grating_freq,blocks_prac.thisRepN,blocks_prac.thisTrialN,blocks_prac.thisN,blocks_prac.thisIndex,blocks.thisRepN,blocks.thisTrialN,blocks.thisN,blocks.thisIndex,repeat_freq.thisRepN,repeat_freq.thisTrialN,repeat_freq.thisN,repeat_freq.thisIndex,trials.thisRepN,trials.thisTrialN,trials.thisN,trials.thisIndex,break_loop.thisRepN,break_loop.thisTrialN,break_loop.thisN,break_loop.thisIndex,rest_loop.thisRepN,rest_loop.thisTrialN,rest_loop.thisN,rest_loop.thisIndex,instruct_prac_text.started,instruct_prac_text.stopped,b_instruct_text_2_.started,b_instruct_text_2_.stopped,prac_done_text.started,prac_done_text.stopped,instruct_text.started,instruct_text.stopped,fixation.started,fixation.stopped,grating.started,grating.stopped,blank.started,blank.stopped,resp.keys,resp.corr,resp.started,resp.stopped,direction,duration,trigger,stim_type,corr_ans,scaling,resp.rt,rest_text.started,rest_text.stopped,text_2.started,text_2.stopped,thx_txt.started,thx_txt.stopped,gender,age,participant,language,main_hand,nBlock_prac,file_suffix,date,expName,psychopyVersion,frameRate,
5,,,,,0,0,0,1,0,0,0,0,0,0,0,0,,,,,,,,,42.64248970011249,None,107.54430630011484,None,131.11596770002507,None,144.20617739995942,None,165.74907299992628,None,166.4317483000923,167.03333340003155,166.98341190000065,168.98393100011162,None,1,0.6122541099321097,2.612774010049179,increament,0.6,15,standard,None,100,,,,,,,,m,29,203,en,r,0,raw,2022-05-13_10h19.14.187,oddball,2022.1.2,59.94822867840358,
5,,,,,0,0,0,1,0,0,0,0,1,0,1,0,,,,,,,,,,,,,,,,,169.00079680001363,None,169.55064120003954,170.15274169994518,170.13429390010424,172.1349456999451,None,1,0.612705510109663,2.629931010073051,increament,0.6,15,standard,None,100,,,,,,,,m,29,203,en,r,0,raw,2022-05-13_10h19.14.187,oddball,2022.1.2,59.94822867840358,
5,,,,,0,0,0,1,0,0,0,0,2,0,2,0,,,,,,,,,,,,,,,,,172.1684099000413,None,172.80172460014,173.40221640001982,173.385691100033,175.38613130012527,None,1,0.6125452099367976,2.612914110068232,increament,0.6,15,standard,None,100,,,,,,,,m,29,203,en,r,0,raw,2022-05-13_10h19.14.187,oddball,2022.1.2,59.94822867840358,
5,,,,,0,0,0,1,0,0,0,0,3,0,3,0,,,,,,,,,,,,,,,,,175.402734400006,None,176.05347279994749,176.65367290005088,176.6370461001061,178.63741070008837,None,1,0.6100565101951361,2.6103687102440745,increament,0.6,15,standard,None,100,,,,,,,,m,29,203,en,r,0,raw,2022-05-13_10h19.14.187,oddball,2022.1.2,59.94822867840358,
5,,,,,0,0,0,1,0,0,0,0,4,0,4,0,,,,,,,,,,,,,,,,,178.6541353999637,None,179.23765940009616,179.83801600011066,179.8215715000406,181.82221000012942,None,1,0.6148310098797083,2.6154866099823266,increament,0.6,15,standard,None,100,,,,,,,,m,29,203,en,r,0,raw,2022-05-13_10h19.14.187,oddball,2022.1.2,59.94822867840358,
5,,,,,0,0,0,1,0,0,0,0,5,0,5,0,,,,,,,,,,,,,,,,,181.83901010011323,None,182.63894849992357,183.23947000014596,183.22275050007738,185.22331640007906,None,1,0.6099211100954562,2.610428410116583,increament,0.6,15,standard,None,100,,,,,,,,m,29,203,en,r,0,raw,2022-05-13_10h19.14.187,oddball,2022.1.2,59.94822867840358,
5,,,,,0,0,0,1,0,0,0,0,6,0,6,0,,,,,,,,,,,,,,,,,185.23983249999583,None,185.97392200003378,186.57427300000563,186.5576369999908,188.55780249997042,j,0,0.6126740099862218,2.612749009858817,increament,0.6,15,standard,None,100,0.08039509993977845,,,,,,,m,29,203,en,r,0,raw,2022-05-13_10h19.14.187,oddball,2022.1.2,59.94822867840358,
5,,,,,0,0,0,1,0,0,0,0,7,0,7,0,,,,,,,,,,,,,,,,,188.57478060014546,None,189.17512860009447,189.77491030003875,189.75834230007604,191.75911570014432,None,1,0.6116750100627542,2.6125067099928856,increament,0.6,15,standard,None,100,,,,,,,,m,29,203,en,r,0,raw,2022-05-13_10h19.14.187,oddball,2022.1.2,59.94822867840358,
5,,,,,0,0,0,1,0,0,0,0,8,0,8,0,,,,,,,,,,,,,,,,,191.77600500010885,None,192.35952119994909,192.95980229997076,192.94303570012562,194.9439485000912,None,1,0.6114968098700047,2.6124432098586112,increament,0.6,15,standard,None,100,,,,,,,,m,29,203,en,r,0,raw,2022-05-13_10h19.14.187,oddball,2022.1.2,59.94822867840358,
5,,,,,0,0,0,1,0,0,0,0,9,0,9,0,,,,,,,,,,,,,,,,,194.96044740010984,None,195.52747630001977,196.12742989999242,196.11127510014921,198.11175830010325,None,1,0.6135656100232154,2.6140561101492494,increament,0.6,15,standard,None,100,,,,,,,,m,29,203,en,r,0,raw,2022-05-13_10h19.14.187,oddball,2022.1.2,59.94822867840358,
5,,,,,0,0,0,1,0,0,0,0,10,0,10,0,,,,,,,,,,,,,,,,,198.1280900000129,None,198.91228320007212,199.51200640015304,199.49542260007001,201.4964399000164,None,1,0.6093483101576567,2.610422510188073,increament,0.6,15,standard,None,100,,,,,,,,m,29,203,en,r,0,raw,2022-05-13_10h19.14.187,oddball,2022.1.2,59.94822867840358,
5,,,,,0,0,0,1,0,0,0,0,11,0,11,0,,,,,,,,,,,,,,,,,201.5134421000257,None,202.09629909996875,202.6968487999402,202.68005450000055,204.68059440003708,None,1,0.6104611100163311,2.6109679099172354,increament,0.6,15,standard,None,100,,,,,,,,m,29,203,en,r,0,raw,2022-05-13_10h19.14.187,oddball,2022.1.2,59.94822867840358,
5,,,,,0,0,0,1,0,0,0,0,12,0,12,0,,,,,,,,,,,,,,,,,204.69769560010172,None,205.2140808000695,205.81444380013272,205.79797950014472,207.79849680000916,None,1,0.6147756101563573,2.6152538100723177,increament,0.6,15,standard,None,100,,,,,,,,m,29,203,en,r,0,raw,2022-05-13_10h19.14.187,oddball,2022.1.2,59.94822867840358,
5,,,,,0,0,0,1,0,0,0,0,13,0,13,0,,,,,,,,,,,,,,,,,207.81504809996113,None,208.34903139993548,209.31597579992376,209.28261280013248,211.28317239996977,None,0,0.9616047099698335,2.962185610085726,increament,0.96,18,oddball,j,160,,,,,,,,m,29,203,en,r,0,raw,2022-05-13_10h19.14.187,oddball,2022.1.2,59.94822867840358,
5,,,,,0,0,0,1,0,0,0,0,14,0,14,0,,,,,,,,,,,,,,,,,211.30025780014694,None,211.88348289998248,212.48374609998427,212.4671330000274,214.46803390001878,None,1,0.6126855099573731,2.613670209888369,increament,0.6,15,standard,None,100,,,,,,,,m,29,203,en,r,0,raw,2022-05-13_10h19.14.187,oddball,2022.1.2,59.94822867840358,
5,,,,,0,0,0,1,0,0,0,0,15,0,15,0,,,,,,,,,,,,,,,,,214.48455539997667,None,215.11799119994976,215.71827560011297,215.7017161999829,217.70266579999588,None,1,0.6124158098828048,2.6133536100387573,increament,0.6,15,standard,None,100,,,,,,,,m,29,203,en,r,0,raw,2022-05-13_10h19.14.187,oddball,2022.1.2,59.94822867840358,
5,,,,,0,0,0,1,0,0,0,0,16,0,16,0,,,,,,,,,,,,,,,,,217.71889859996736,None,218.23577939998358,218.83600070001557,218.81982750003226,220.82018929999322,None,1,0.6130600098986179,2.6133054099045694,increament,0.6,15,standard,None,100,,,,,,,,m,29,203,en,r,0,raw,2022-05-13_10h19.14.187,oddball,2022.1.2,59.94822867840358,
5,,,,,0,0,0,1,0,0,0,0,17,0,17,0,,,,,,,,,,,,,,,,,220.83701310004108,None,221.404085499933,222.00388680002652,221.9869908001274,223.98810730013065,j,0,0.6108595100231469,2.6120399099308997,increament,0.6,15,standard,None,100,0.18721470003947616,,,,,,,m,29,203,en,r,0,raw,2022-05-13_10h19.14.187,oddball,2022.1.2,59.94822867840358,
5,,,,,0,0,0,1,0,0,0,0,18,0,18,0,,,,,,,,,,,,,,,,,224.00446510012262,None,224.72156350011937,225.32206479995511,225.30556330014952,227.30596469994634,j,0,0.6097454100381583,2.6100968099199235,increament,0.6,15,standard,None,100,0.15611739992164075,,,,,,,m,29,203,en,r,0,raw,2022-05-13_10h19.14.187,oddball,2022.1.2,59.94822867840358,
5,,,,,0,0,0,1,0,0,0,0,19,0,19,0,,,,,,,,,,,,,,,,,227.32265600003302,None,227.92314389999956,228.52307650004514,228.50633829995058,230.5068894000724,None,1,0.6093700102064759,2.6099004100542516,increament,0.6,15,standard,None,100,,,,,,,,m,29,203,en,r,0,raw,2022-05-13_10h19.14.187,oddball,2022.1.2,59.94822867840358,
5,,,,,0,0,0,1,0,0,0,0,20,0,20,0,,,,,,,,,,,,,,,,,230.52375619998202,None,231.0407207000535,231.64143240009435,231.6247652999591,233.62508959998377,None,1,0.6123330099508166,2.612566109979525,increament,0.6,15,standard,None,100,,,,,,,,m,29,203,en,r,0,raw,2022-05-13_10h19.14.187,oddball,2022.1.2,59.94822867840358,
5,,,,,0,0,0,1,0,0,0,0,21,0,21,0,,,,,,,,,,,,,,,,,233.64177540014498,None,234.5089086999651,235.35871249996126,235.32586010009982,237.32654920010827,None,0,0.8450181097723544,2.8457070097792894,increament,0.84,17,oddball,j,140,,,,,,,,m,29,203,en,r,0,raw,2022-05-13_10h19.14.187,oddball,2022.1.2,59.94822867840358,
5,,,,,0,0,0,1,0,0,0,0,22,0,22,0,,,,,,,,,,,,,,,,,237.34308780007996,None,238.0268010001164,238.62678789999336,238.6105083001312,240.61089130002074,None,1,0.611533610150218,2.611905609956011,increament,0.6,15,standard,None,100,,,,,,,,m,29,203,en,r,0,raw,2022-05-13_10h19.14.187,oddball,2022.1.2,59.94822867840358,
5,,,,,0,0,0,1,0,0,0,0,23,0,23,0,,,,,,,,,,,,,,,,,240.62784130009823,None,241.2780873000156,241.8783261999488,241.8614491999615,243.86239990009926,None,1,0.6120655098930001,2.613039009971544,increament,0.6,15,standard,None,100,,,,,,,,m,29,203,en,r,0,raw,2022-05-13_10h19.14.187,oddball,2022.1.2,59.94822867840358,
5,,,,,0,0,0,1,0,0,0,0,24,0,24,0,,,,,,,,,,,,,,,,,243.87905250000767,None,244.42913289996795,245.02933449996635,245.012691100128,247.01323630008847,None,1,0.6116191102191806,2.6121812101919204,increament,0.6,15,standard,None,100,,,,,,,,m,29,203,en,r,0,raw,2022-05-13_10h19.14.187,oddball,2022.1.2,59.94822867840358,
5,,,,,0,0,0,1,0,0,0,0,25,0,25,0,,,,,,,,,,,,,,,,,247.0303973001428,None,247.74703780002892,248.3471417000983,248.33069319999777,250.33130439999513,j,0,0.6121580100152642,2.612754310015589,increament,0.6,15,standard,None,100,0.3703709999099374,,,,,,,m,29,203,en,r,0,raw,2022-05-13_10h19.14.187,oddball,2022.1.2,59.94822867840358,
5,,,,,0,0,0,1,0,0,0,0,26,0,26,0,,,,,,,,,,,,,,,,,250.34822169994004,None,250.93149340013042,251.53196220006794,251.51507840002887,253.5156368999742,None,1,0.6110334100667387,2.611567009938881,increament,0.6,15,standard,None,100,,,,,,,,m,29,203,en,r,0,raw,2022-05-13_10h19.14.187,oddball,2022.1.2,59.94822867840358,
5,,,,,0,0,0,1,0,0,0,0,27,0,27,0,,,,,,,,,,,,,,,,,253.5325152000878,None,254.24939250014722,254.849559500115,254.83308110013604,256.83382100006565,None,1,0.6132126098964363,2.6139713099692017,increament,0.6,15,standard,None,100,,,,,,,,m,29,203,en,r,0,raw,2022-05-13_10h19.14.187,oddball,2022.1.2,59.94822867840358,
5,,,,,0,0,0,1,0,0,0,0,28,0,28,0,,,,,,,,,,,,,,,,,256.8508787001483,None,257.51735270000063,258.251383200055,258.2177291000262,260.21881380002014,None,0,0.7298261099494994,2.7310123099014163,increament,0.72,16,oddball,j,120,,,,,,,,m,29,203,en,r,0,raw,2022-05-13_10h19.14.187,oddball,2022.1.2,59.94822867840358,
5,,,,,0,0,0,1,0,0,0,0,29,0,29,0,,,,,,,,,,,,,,,,,260.235233000014,None,260.9522335000802,261.5520709999837,261.5355529000517,263.5366239999421,None,1,0.6111793098971248,2.6123513099737465,increament,0.6,15,standard,None,100,,,,,,,,m,29,203,en,r,0,raw,2022-05-13_10h19.14.187,oddball,2022.1.2,59.94822867840358,
5,,,,,0,0,0,1,1,0,1,0,0,0,0,0,,,,,,,,,,,,,,,271.41510009998456,None,277.19170910003595,None,277.79161519999616,278.39174619992264,278.3752226999495,280.3760965000838,None,1,0.6118462099693716,2.6127433099318296,decreament,0.6,11,standard,None,100,,263.55521490005776,None,,,,,m,29,203,en,r,0,raw,2022-05-13_10h19.14.187,oddball,2022.1.2,59.94822867840358,
5,,,,,0,0,0,1,1,0,1,0,1,0,1,0,,,,,,,,,,,,,,,,,280.3926796000451,None,281.1596240999643,281.7600316000171,281.74331069993787,283.74461860000156,None,1,0.6139944097958505,2.615373009815812,decreament,0.6,11,standard,None,100,,,,,,,,m,29,203,en,r,0,raw,2022-05-13_10h19.14.187,oddball,2022.1.2,59.94822867840358,
5,,,,,0,0,0,1,1,0,1,0,2,0,2,0,,,,,,,,,,,,,,,,,283.76139570004307,None,284.32744979998097,284.92791880015284,284.91104219993576,286.9121616000775,None,1,0.6120948099996895,2.6132830099668354,decreament,0.6,11,standard,None,100,,,,,,,,m,29,203,en,r,0,raw,2022-05-13_10h19.14.187,oddball,2022.1.2,59.94822867840358,
5,,,,,0,0,0,1,1,0,1,0,3,0,3,0,,,,,,,,,,,,,,,,,286.92908970010467,None,287.52922379993834,288.12882019998506,288.1122697000392,290.1134482000489,None,1,0.6095542097464204,2.610815509688109,decreament,0.6,11,standard,None,100,,,,,,,,m,29,203,en,r,0,raw,2022-05-13_10h19.14.187,oddball,2022.1.2,59.94822867840358,
5,,,,,0,0,0,1,1,0,1,0,4,0,4,0,,,,,,,,,,,,,,,,,290.1299296000507,None,290.662932400126,291.26356600015424,291.247501200065,293.24770970013924,None,1,0.6153026097454131,2.6154836097266525,decreament,0.6,11,standard,None,100,,,,,,,,m,29,203,en,r,0,raw,2022-05-13_10h19.14.187,oddball,2022.1.2,59.94822867840358,
5,,,,,0,0,0,1,1,0,1,0,5,0,5,0,,,,,,,,,,,,,,,,,293.26409070007503,None,293.8312570999842,294.4313250000123,294.4150143000297,296.4154439999256,None,1,0.6126487099099904,2.6130811099428684,decreament,0.6,11,standard,None,100,,,,,,,,m,29,203,en,r,0,raw,2022-05-13_10h19.14.187,oddball,2022.1.2,59.94822867840358,
5,,,,,0,0,0,1,1,0,1,0,6,0,6,0,,,,,,,,,,,,,,,,,296.4320658000652,None,297.165968199959,297.76600209996104,297.74973149993457,299.7499655999709,None,1,0.613241309998557,2.613432109821588,decreament,0.6,11,standard,None,100,,,,,,,,m,29,203,en,r,0,raw,2022-05-13_10h19.14.187,oddball,2022.1.2,59.94822867840358,
5,,,,,0,0,0,1,1,0,1,0,7,0,7,0,,,,,,,,,,,,,,,,,299.76681090006605,None,300.35062550008297,300.71710880007595,300.68383940006606,302.68458970007487,j,1,0.36070861015468836,2.3614988101180643,decreament,0.36,13,oddball,j,60,0.2821814997587353,,,,,,,m,29,203,en,r,0,raw,2022-05-13_10h19.14.187,oddball,2022.1.2,59.94822867840358,
5,,,,,0,0,0,1,1,0,1,0,8,0,8,0,,,,,,,,,,,,,,,,,302.70144440000877,None,303.3847765000537,303.98482710006647,303.9680931000039,305.9688836999703,None,1,0.6118705102708191,2.6126844100654125,decreament,0.6,11,standard,None,100,,,,,,,,m,29,203,en,r,0,raw,2022-05-13_10h19.14.187,oddball,2022.1.2,59.94822867840358,
5,,,,,0,0,0,1,1,0,1,0,9,0,9,0,,,,,,,,,,,,,,,,,305.9857658999972,None,306.6693464999553,307.27002090006135,307.2528615000192,309.2538493000902,j,0,0.6123113099019974,2.6133650101255625,decreament,0.6,11,standard,None,100,0.6486947999801487,,,,,,,m,29,203,en,r,0,raw,2022-05-13_10h19.14.187,oddball,2022.1.2,59.94822867840358,
5,,,,,0,0,0,1,1,0,1,0,10,0,10,0,,,,,,,,,,,,,,,,,309.2700404000934,None,309.8205182000529,310.4207190000452,310.40409420011565,312.4049991001375,None,1,0.611647010082379,2.6125896100420505,decreament,0.6,11,standard,None,100,,,,,,,,m,29,203,en,r,0,raw,2022-05-13_10h19.14.187,oddball,2022.1.2,59.94822867840358,
5,,,,,0,0,0,1,1,0,1,0,11,0,11,0,,,,,,,,,,,,,,,,,312.4215134999249,None,313.07177140004933,313.67234320007265,313.655269500101,315.6563866001088,None,1,0.6118005099706352,2.6129816100001335,decreament,0.6,11,standard,None,100,,,,,,,,m,29,203,en,r,0,raw,2022-05-13_10h19.14.187,oddball,2022.1.2,59.94822867840358,
5,,,,,0,0,0,1,1,0,1,0,12,0,12,0,,,,,,,,,,,,,,,,,315.6726673000958,None,316.38968160003424,316.98996259993874,316.97355340002105,318.97377149993554,None,1,0.6131907100789249,2.6129402101505548,decreament,0.6,11,standard,None,100,,,,,,,,m,29,203,en,r,0,raw,2022-05-13_10h19.14.187,oddball,2022.1.2,59.94822867840358,
5,,,,,0,0,0,1,1,0,1,0,13,0,13,0,,,,,,,,,,,,,,,,,318.9905237001367,None,319.64106080005877,320.24160220008343,320.22458699997514,322.2253390001133,None,1,0.6109004099853337,2.6116237100213766,decreament,0.6,11,standard,None,100,,,,,,,,m,29,203,en,r,0,raw,2022-05-13_10h19.14.187,oddball,2022.1.2,59.94822867840358,
5,,,,,0,0,0,1,1,0,1,0,14,0,14,0,,,,,,,,,,,,,,,,,322.24200450000353,None,323.02547900006175,323.6259964001365,323.6094728000462,325.6102311001159,j,0,0.6127574101556093,2.613541910191998,decreament,0.6,11,standard,None,100,0.9558089999482036,,,,,,,m,29,203,en,r,0,raw,2022-05-13_10h19.14.187,oddball,2022.1.2,59.94822867840358,
5,,,,,0,0,0,1,1,0,1,0,15,0,15,0,,,,,,,,,,,,,,,,,325.62754489993677,None,326.27703340002336,326.8768790999893,326.8602496001404,328.8609501000028,j,0,0.611366210039705,2.612085010157898,decreament,0.6,11,standard,None,100,0.4246108999941498,,,,,,,m,29,203,en,r,0,raw,2022-05-13_10h19.14.187,oddball,2022.1.2,59.94822867840358,
5,,,,,0,0,0,1,1,0,1,0,16,0,16,0,,,,,,,,,,,,,,,,,328.8779360000044,None,329.57819549995475,330.17815749999136,330.1617356000934,332.1621781999711,None,1,0.6125445102807134,2.6129731102846563,decreament,0.6,11,standard,None,100,,,,,,,,m,29,203,en,r,0,raw,2022-05-13_10h19.14.187,oddball,2022.1.2,59.94822867840358,
5,,,,,0,0,0,1,1,0,1,0,17,0,17,0,,,,,,,,,,,,,,,,,332.17925040004775,None,332.77914769994095,333.37967090005986,333.36279970011674,335.36374599998817,j,0,0.6127774100750685,2.6137366101611406,decreament,0.6,11,standard,None,100,1.0107168997637928,,,,,,,m,29,203,en,r,0,raw,2022-05-13_10h19.14.187,oddball,2022.1.2,59.94822867840358,
5,,,,,0,0,0,1,1,0,1,0,18,0,18,0,,,,,,,,,,,,,,,,,335.3801081001293,None,336.0140496001113,336.6140517999884,336.59775890014134,338.59835340012796,j,0,0.612605009926483,2.613200610037893,decreament,0.6,11,standard,None,100,0.8480428999755532,,,,,,,m,29,203,en,r,0,raw,2022-05-13_10h19.14.187,oddball,2022.1.2,59.94822867840358,
5,,,,,0,0,0,1,1,0,1,0,19,0,19,0,,,,,,,,,,,,,,,,,338.6146939001046,None,339.3815536000766,339.98197229998186,339.96519210003316,341.966497000074,None,1,0.61460100999102,2.615978510119021,decreament,0.6,11,standard,None,100,,,,,,,,m,29,203,en,r,0,raw,2022-05-13_10h19.14.187,oddball,2022.1.2,59.94822867840358,
5,,,,,0,0,0,1,1,0,1,0,20,0,20,0,,,,,,,,,,,,,,,,,341.9835240000393,None,342.59958750009537,343.2002962999977,343.1834309999831,345.1842994999606,None,1,0.6136602100450546,2.614572610007599,decreament,0.6,11,standard,None,100,,,,,,,,m,29,203,en,r,0,raw,2022-05-13_10h19.14.187,oddball,2022.1.2,59.94822867840358,
5,,,,,0,0,0,1,1,0,1,0,21,0,21,0,,,,,,,,,,,,,,,,,345.20259579992853,None,345.7679272000678,346.3676185000222,346.35143949999474,348.352004500106,j,0,0.6099425100255758,2.610449210042134,decreament,0.6,11,standard,None,100,0.6617811999749392,,,,,,,m,29,203,en,r,0,raw,2022-05-13_10h19.14.187,oddball,2022.1.2,59.94822867840358,
5,,,,,0,0,0,1,1,0,1,0,22,0,22,0,,,,,,,,,,,,,,,,,348.36859410000034,None,349.01884220005013,349.61899410001934,349.6024748000782,351.60296309995465,None,1,0.6124620100017637,2.612974710064009,decreament,0.6,11,standard,None,100,,,,,,,,m,29,203,en,r,0,raw,2022-05-13_10h19.14.187,oddball,2022.1.2,59.94822867840358,
5,,,,,0,0,0,1,1,0,1,0,23,0,23,0,,,,,,,,,,,,,,,,,351.6200930001214,None,352.30324309994467,352.5534030001145,352.51986639993265,354.5214414000511,j,1,0.2423487100750208,2.244023110019043,decreament,0.24,12,oddball,j,40,0.6615802999585867,,,,,,,m,29,203,en,r,0,raw,2022-05-13_10h19.14.187,oddball,2022.1.2,59.94822867840358,
5,,,,,0,0,0,1,1,0,1,0,24,0,24,0,,,,,,,,,,,,,,,,,354.53906660014763,None,355.17107850010507,355.7713602001313,355.75454879994504,357.75557340006344,None,1,0.6126554100774229,2.6137347100302577,decreament,0.6,11,standard,None,100,,,,,,,,m,29,203,en,r,0,raw,2022-05-13_10h19.14.187,oddball,2022.1.2,59.94822867840358,
5,,,,,0,0,0,1,1,0,1,0,25,0,25,0,,,,,,,,,,,,,,,,,357.77196749998257,None,358.4388292999938,359.0393616000656,359.0225203000009,361.0231503001414,None,1,0.6118033102247864,2.612430910114199,decreament,0.6,11,standard,None,100,,,,,,,,m,29,203,en,r,0,raw,2022-05-13_10h19.14.187,oddball,2022.1.2,59.94822867840358,
5,,,,,0,0,0,1,1,0,1,0,26,0,26,0,,,,,,,,,,,,,,,,,361.0400159000419,None,361.67365589994006,362.2737531000748,362.25726650003344,364.25782759999856,None,1,0.6107179101090878,2.611295310081914,decreament,0.6,11,standard,None,100,,,,,,,,m,29,203,en,r,0,raw,2022-05-13_10h19.14.187,oddball,2022.1.2,59.94822867840358,
5,,,,,0,0,0,1,1,0,1,0,27,0,27,0,,,,,,,,,,,,,,,,,364.2748157000169,None,364.9914085001219,365.47509280010127,365.4582686999347,None,None,0,0.4791578098665923,2.479619009885937,decreament,0.48,14,oddball,j,80,,,,,,,,m,29,203,en,r,0,raw,2022-05-13_10h19.14.187,oddball,2022.1.2,59.94822867840358,
5,,,,,0,0,0,1,1,0,1,0,28,0,28,0,,,,,,,,,,,,,,,,,367.4589065001346,None,368.14266779995523,368.74283710005693,368.72640560008585,370.7271325001493,j,0,0.6125122101511806,2.61330711026676,decreament,0.6,11,standard,None,100,0.5425507000181824,,,,,,,m,29,203,en,r,0,raw,2022-05-13_10h19.14.187,oddball,2022.1.2,59.94822867840358,
5,,,,,0,0,0,1,1,0,1,0,29,0,29,0,,,,,,,,,,,,,,,,,370.74458010005765,None,371.34359019994736,371.94389629992656,371.92730810004286,373.9281779001467,None,1,0.6138474100735039,2.6147591101471335,decreament,0.6,11,standard,None,100,,,,,,,,m,29,203,en,r,0,raw,2022-05-13_10h19.14.187,oddball,2022.1.2,59.94822867840358,
5,,,,,0,0,0,1,2,0,2,0,0,0,0,0,,,,,,,,,,,,,,,385.22020830004476,None,394.5525800001342,None,395.1362378001213,395.7365197001491,395.72010429995134,397.7204551000614,None,1,0.6108845102135092,2.6111729100812227,increament,0.6,15,standard,None,100,,373.9448259000201,None,,,,,m,29,203,en,r,0,raw,2022-05-13_10h19.14.187,oddball,2022.1.2,59.94822867840358,
5,,,,,0,0,0,1,2,0,2,0,1,0,1,0,,,,,,,,,,,,,,,,,397.7373252999969,None,398.304219200043,398.904119099956,398.8880344000645,400.8881401999388,None,1,0.6120556101668626,2.61208551004529,increament,0.6,15,standard,None,100,,,,,,,,m,29,203,en,r,0,raw,2022-05-13_10h19.14.187,oddball,2022.1.2,59.94822867840358,
5,,,,,0,0,0,1,2,0,2,0,2,0,2,0,,,,,,,,,,,,,,,,,400.9050871001091,None,401.67209629993886,402.2726024999283,402.25596750015393,404.2561641000211,None,1,0.6126267099753022,2.612710010027513,increament,0.6,15,standard,None,100,,,,,,,,m,29,203,en,r,0,raw,2022-05-13_10h19.14.187,oddball,2022.1.2,59.94822867840358,
5,,,,,0,0,0,1,2,0,2,0,3,0,3,0,,,,,,,,,,,,,,,,,404.272810800001,None,404.9399204000365,405.5400825999677,405.5237022000365,407.5242492000107,None,1,0.610085709951818,2.610652910079807,increament,0.6,15,standard,None,100,,,,,,,,m,29,203,en,r,0,raw,2022-05-13_10h19.14.187,oddball,2022.1.2,59.94822867840358,
5,,,,,0,0,0,1,2,0,2,0,4,0,4,0,,,,,,,,,,,,,,,,,407.5409975000657,None,408.1411326001398,408.7416447000578,408.72476090001874,410.7253966999706,None,1,0.6126382101792842,2.6132560102269053,increament,0.6,15,standard,None,100,,,,,,,,m,29,203,en,r,0,raw,2022-05-13_10h19.14.187,oddball,2022.1.2,59.94822867840358,
5,,,,,0,0,0,1,2,0,2,0,5,0,5,0,,,,,,,,,,,,,,,,,410.74218300008215,None,411.40864800009876,412.0094101000577,411.99255920015275,413.9936442000326,None,1,0.6137470100075006,2.614837909815833,increament,0.6,15,standard,None,100,,,,,,,,m,29,203,en,r,0,raw,2022-05-13_10h19.14.187,oddball,2022.1.2,59.94822867840358,
5,,,,,0,0,0,1,2,0,2,0,6,0,6,0,,,,,,,,,,,,,,,,,414.01006020000204,None,414.61003330000676,415.21038740011863,415.19378950004466,417.1944699001033,None,1,0.6128967099357396,2.613595109898597,increament,0.6,15,standard,None,100,,,,,,,,m,29,203,en,r,0,raw,2022-05-13_10h19.14.187,oddball,2022.1.2,59.94822867840358,
5,,,,,0,0,0,1,2,0,2,0,7,0,7,0,,,,,,,,,,,,,,,,,417.2110862999689,None,417.911564799957,418.51187780010514,418.4953489000909,420.4957491001114,None,1,0.6129366101231426,2.613303410122171,increament,0.6,15,standard,None,100,,,,,,,,m,29,203,en,r,0,raw,2022-05-13_10h19.14.187,oddball,2022.1.2,59.94822867840358,
5,,,,,0,0,0,1,2,0,2,0,8,0,8,0,,,,,,,,,,,,,,,,,420.51269330014475,None,421.0960121001117,421.69627690012567,421.6795650999993,423.6802084001247,j,0,0.6098408098332584,2.6104964099358767,increament,0.6,15,standard,None,100,0.2771131996996701,,,,,,,m,29,203,en,r,0,raw,2022-05-13_10h19.14.187,oddball,2022.1.2,59.94822867840358,
5,,,,,0,0,0,1,2,0,2,0,9,0,9,0,,,,,,,,,,,,,,,,,423.69707809994,None,424.28070060000755,424.8812953000888,424.86406509997323,426.86472339998,None,1,0.6117594100069255,2.6124037101399153,increament,0.6,15,standard,None,100,,,,,,,,m,29,203,en,r,0,raw,2022-05-13_10h19.14.187,oddball,2022.1.2,59.94822867840358,
5,,,,,0,0,0,1,2,0,2,0,10,0,10,0,,,,,,,,,,,,,,,,,426.8815389999654,None,427.5486101999413,428.14857740001753,428.13214659993537,430.13278779992834,j,0,0.612552110105753,2.6131810101214796,increament,0.6,15,standard,None,100,0.2486315998248756,,,,,,,m,29,203,en,r,0,raw,2022-05-13_10h19.14.187,oddball,2022.1.2,59.94822867840358,
5,,,,,0,0,0,1,2,0,2,0,11,0,11,0,,,,,,,,,,,,,,,,,430.1494972000364,None,430.66632389998995,431.2664177000988,431.2503269999288,433.25052609993145,None,1,0.6127519099973142,2.6127695098984987,increament,0.6,15,standard,None,100,,,,,,,,m,29,203,en,r,0,raw,2022-05-13_10h19.14.187,oddball,2022.1.2,59.94822867840358,
5,,,,,0,0,0,1,2,0,2,0,12,0,12,0,,,,,,,,,,,,,,,,,433.2673107001465,None,433.88427520007826,434.48429409996606,434.46749760000966,436.4685995001346,None,1,0.6119240100961179,2.613079410046339,increament,0.6,15,standard,None,100,,,,,,,,m,29,203,en,r,0,raw,2022-05-13_10h19.14.187,oddball,2022.1.2,59.94822867840358,
5,,,,,0,0,0,1,2,0,2,0,13,0,13,0,,,,,,,,,,,,,,,,,436.4851027999539,None,437.2019204001408,438.052318100119,438.0191329999361,440.0196927001234,j,1,0.8445728099904954,2.8451546099968255,increament,0.84,17,oddball,j,140,0.24911649990826845,,,,,,,m,29,203,en,r,0,raw,2022-05-13_10h19.14.187,oddball,2022.1.2,59.94822867840358,
5,,,,,0,0,0,1,2,0,2,0,14,0,14,0,,,,,,,,,,,,,,,,,440.036694600014,None,440.72020160011016,441.32018560008146,441.3039126000367,443.30478050000966,None,1,0.6108439099043608,2.61174660990946,increament,0.6,15,standard,None,100,,,,,,,,m,29,203,en,r,0,raw,2022-05-13_10h19.14.187,oddball,2022.1.2,59.94822867840358,
5,,,,,0,0,0,1,2,0,2,0,15,0,15,0,,,,,,,,,,,,,,,,,443.32111550006084,None,443.88812150014564,444.48838380002417,444.47188720013946,446.4721461001318,None,1,0.6119186100549996,2.6120952100027353,increament,0.6,15,standard,None,100,,,,,,,,m,29,203,en,r,0,raw,2022-05-13_10h19.14.187,oddball,2022.1.2,59.94822867840358,
5,,,,,0,0,0,1,2,0,2,0,16,0,16,0,,,,,,,,,,,,,,,,,446.48895570007153,None,447.1062159999274,447.70599030004814,447.68950859992765,449.69001700007357,None,1,0.6112683098763227,2.6117731099948287,increament,0.6,15,standard,None,100,,,,,,,,m,29,203,en,r,0,raw,2022-05-13_10h19.14.187,oddball,2022.1.2,59.94822867840358,
5,,,,,0,0,0,1,2,0,2,0,17,0,17,0,,,,,,,,,,,,,,,,,449.707141000079,None,450.3406044000294,450.94056190014817,450.9238793000113,452.92475889995694,None,1,0.6127579100430012,2.613758410094306,increament,0.6,15,standard,None,100,,,,,,,,m,29,203,en,r,0,raw,2022-05-13_10h19.14.187,oddball,2022.1.2,59.94822867840358,
5,,,,,0,0,0,1,2,0,2,0,18,0,18,0,,,,,,,,,,,,,,,,,452.9414510000497,None,453.55832900013775,454.2920031999238,454.25873480015434,456.25940510001965,None,0,0.7262005098164082,2.7269030099269003,increament,0.72,16,oddball,j,120,,,,,,,,m,29,203,en,r,0,raw,2022-05-13_10h19.14.187,oddball,2022.1.2,59.94822867840358,
5,,,,,0,0,0,1,2,0,2,0,19,0,19,0,,,,,,,,,,,,,,,,,456.2759414999746,None,456.8095740999561,457.4096250999719,457.39292320003733,459.39383390010335,None,1,0.6125454101711512,2.6134633102919906,increament,0.6,15,standard,None,100,,,,,,,,m,29,203,en,r,0,raw,2022-05-13_10h19.14.187,oddball,2022.1.2,59.94822867840358,
5,,,,,0,0,0,1,2,0,2,0,20,0,20,0,,,,,,,,,,,,,,,,,459.4104693001136,None,460.16100970003754,460.761078099953,460.7445348999463,462.7453986001201,None,1,0.6128457100130618,2.613677010172978,increament,0.6,15,standard,None,100,,,,,,,,m,29,203,en,r,0,raw,2022-05-13_10h19.14.187,oddball,2022.1.2,59.94822867840358,
5,,,,,0,0,0,1,2,0,2,0,21,0,21,0,,,,,,,,,,,,,,,,,462.7617115001194,None,463.34556609997526,463.9453078000806,463.9290233999491,465.9297067001462,None,1,0.6125159100629389,2.6133304100949317,increament,0.6,15,standard,None,100,,,,,,,,m,29,203,en,r,0,raw,2022-05-13_10h19.14.187,oddball,2022.1.2,59.94822867840358,
5,,,,,0,0,0,1,2,0,2,0,22,0,22,0,,,,,,,,,,,,,,,,,465.9465940000955,None,466.6297007999383,467.2302933000028,467.21337709994987,469.2148534001317,None,1,0.6092114099301398,2.6107973100151867,increament,0.6,15,standard,None,100,,,,,,,,m,29,203,en,r,0,raw,2022-05-13_10h19.14.187,oddball,2022.1.2,59.94822867840358,
5,,,,,0,0,0,1,2,0,2,0,23,0,23,0,,,,,,,,,,,,,,,,,469.23111600009724,None,469.9145072000101,470.88139410014264,470.8482093999628,472.8490536001045,None,0,0.9623061099555343,2.9633704100269824,increament,0.96,18,oddball,j,160,,,,,,,,m,29,203,en,r,0,raw,2022-05-13_10h19.14.187,oddball,2022.1.2,59.94822867840358,
5,,,,,0,0,0,1,2,0,2,0,24,0,24,0,,,,,,,,,,,,,,,,,472.86548879998736,None,473.51578400004655,474.11619780003093,474.0998325999826,476.100115200039,j,0,0.6141581099946052,2.6143537100870162,increament,0.6,15,standard,None,100,0.0013595998752862215,,,,,,,m,29,203,en,r,0,raw,2022-05-13_10h19.14.187,oddball,2022.1.2,59.94822867840358,
5,,,,,0,0,0,1,2,0,2,0,25,0,25,0,,,,,,,,,,,,,,,,,476.1171011000406,None,476.80031570000574,477.40060420008376,477.3841744000092,479.3847286000382,j,0,0.6134000101592392,2.6139629101380706,increament,0.6,15,standard,None,100,0.15655339998193085,,,,,,,m,29,203,en,r,0,raw,2022-05-13_10h19.14.187,oddball,2022.1.2,59.94822867840358,
5,,,,,0,0,0,1,2,0,2,0,26,0,26,0,,,,,,,,,,,,,,,,,479.4013930000365,None,480.0018078000285,480.601817100076,480.58541089994833,482.58619530010037,None,1,0.6095347099471837,2.6103307099547237,increament,0.6,15,standard,None,100,,,,,,,,m,29,203,en,r,0,raw,2022-05-13_10h19.14.187,oddball,2022.1.2,59.94822867840358,
5,,,,,0,0,0,1,2,0,2,0,27,0,27,0,,,,,,,,,,,,,,,,,482.6027955999598,None,483.1863351999782,483.7864872000646,483.7699258001521,485.770297100069,j,0,0.6097120100166649,2.6100868098437786,increament,0.6,15,standard,None,100,0.0020412998273968697,,,,,,,m,29,203,en,r,0,raw,2022-05-13_10h19.14.187,oddball,2022.1.2,59.94822867840358,
5,,,,,0,0,0,1,2,0,2,0,28,0,28,0,,,,,,,,,,,,,,,,,485.78724219999276,None,486.3873847001232,486.9875922999345,486.9713085000403,488.9715579999611,None,1,0.6094558099284768,2.609685809817165,increament,0.6,15,standard,None,100,,,,,,,,m,29,203,en,r,0,raw,2022-05-13_10h19.14.187,oddball,2022.1.2,59.94822867840358,
5,,,,,0,0,0,1,2,0,2,0,29,0,29,0,,,,,,,,,,,,,,,,,488.9885476999916,None,489.6551507001277,490.25564939994365,490.2392717001494,492.23957059998065,None,1,0.6136005101725459,2.6138093101326376,increament,0.6,15,standard,None,100,,,,,,,,m,29,203,en,r,0,raw,2022-05-13_10h19.14.187,oddball,2022.1.2,59.94822867840358,
5,,,,,0,0,0,1,3,0,3,0,0,0,0,0,,,,,,,,,,,,,,,496.9309014000464,None,503.5608361000195,None,504.2444859999232,504.8445103999693,504.82770500006154,506.8284016000107,None,1,0.610521910013631,2.6112159101758152,decreament,0.6,11,standard,None,100,,492.2564497999847,None,,,,,m,29,203,en,r,0,raw,2022-05-13_10h19.14.187,oddball,2022.1.2,59.94822867840358,
5,,,,,0,0,0,1,3,0,3,0,1,0,1,0,,,,,,,,,,,,,,,,,506.8452763000969,None,507.41232579993084,508.01213230006397,507.9960056999698,509.9964203001,None,1,0.6099418101366609,2.610301709966734,decreament,0.6,11,standard,None,100,,,,,,,,m,29,203,en,r,0,raw,2022-05-13_10h19.14.187,oddball,2022.1.2,59.94822867840358,
5,,,,,0,0,0,1,3,0,3,0,2,0,2,0,,,,,,,,,,,,,,,,,510.01316680014133,None,510.59649210004136,511.197008300107,511.18034640001133,513.1809735000134,None,1,0.613689310150221,2.614271310158074,decreament,0.6,11,standard,None,100,,,,,,,,m,29,203,en,r,0,raw,2022-05-13_10h19.14.187,oddball,2022.1.2,59.94822867840358,
5,,,,,0,0,0,1,3,0,3,0,3,0,3,0,,,,,,,,,,,,,,,,,513.1976008999627,None,513.8144425000064,514.41474570008,514.3980380999856,516.3985019000247,None,1,0.6096954098902643,2.6101410100236535,decreament,0.6,11,standard,None,100,,,,,,,,m,29,203,en,r,0,raw,2022-05-13_10h19.14.187,oddball,2022.1.2,59.94822867840358,
5,,,,,0,0,0,1,3,0,3,0,4,0,4,0,,,,,,,,,,,,,,,,,516.4155749001075,None,517.032773999963,517.63276710012,517.6162600000389,519.6168343001045,None,1,0.6095855101011693,2.6101002101786435,decreament,0.6,11,standard,None,100,,,,,,,,m,29,203,en,r,0,raw,2022-05-13_10h19.14.187,oddball,2022.1.2,59.94822867840358,
5,,,,,0,0,0,1,3,0,3,0,5,0,5,0,,,,,,,,,,,,,,,,,519.6337361999322,None,520.1669137000572,520.4172100999858,520.3838681001216,522.384391900152,j,1,0.24257041001692414,2.2430867101065814,decreament,0.24,12,oddball,j,40,1.4202332999557257,,,,,,,m,29,203,en,r,0,raw,2022-05-13_10h19.14.187,oddball,2022.1.2,59.94822867840358,
5,,,,,0,0,0,1,3,0,3,0,6,0,6,0,,,,,,,,,,,,,,,,,522.40120079997,None,523.1512377001345,523.7517840999644,523.735415500123,525.7352986000478,None,1,0.6128865100909024,2.6126665100455284,decreament,0.6,11,standard,None,100,,,,,,,,m,29,203,en,r,0,raw,2022-05-13_10h19.14.187,oddball,2022.1.2,59.94822867840358,
5,,,,,0,0,0,1,3,0,3,0,7,0,7,0,,,,,,,,,,,,,,,,,525.7521858001128,None,526.6194035999943,527.2194678999949,527.2029049000703,529.2035958999768,None,1,0.6127570099197328,2.6134460100438446,decreament,0.6,11,standard,None,100,,,,,,,,m,29,203,en,r,0,raw,2022-05-13_10h19.14.187,oddball,2022.1.2,59.94822867840358,
5,,,,,0,0,0,1,3,0,3,0,8,0,8,0,,,,,,,,,,,,,,,,,529.2202686001547,None,529.8206392999273,530.4207731001079,530.404196199961,532.404567199992,None,1,0.6127612099517137,2.6130631098058075,decreament,0.6,11,standard,None,100,,,,,,,,m,29,203,en,r,0,raw,2022-05-13_10h19.14.187,oddball,2022.1.2,59.94822867840358,
5,,,,,0,0,0,1,3,0,3,0,9,0,9,0,,,,,,,,,,,,,,,,,532.4211639999412,None,533.0718551999889,533.6719263000414,533.6555292000994,535.6561126001179,j,0,0.612897909944877,2.6134988099802285,decreament,0.6,11,standard,None,100,0.9017598000355065,,,,,,,m,29,203,en,r,0,raw,2022-05-13_10h19.14.187,oddball,2022.1.2,59.94822867840358,
5,,,,,0,0,0,1,3,0,3,0,10,0,10,0,,,,,,,,,,,,,,,,,535.6725840999279,None,536.2730157999322,536.8734572001267,536.856814000057,538.8574624001049,j,0,0.6137080097105354,2.614359009778127,decreament,0.6,11,standard,None,100,0.3807508999016136,,,,,,,m,29,203,en,r,0,raw,2022-05-13_10h19.14.187,oddball,2022.1.2,59.94822867840358,
5,,,,,0,0,0,1,3,0,3,0,11,0,11,0,,,,,,,,,,,,,,,,,538.8751799000893,None,539.4406596999615,540.0411936000455,540.0245465999469,542.0252976999618,j,0,0.6135693099349737,2.6144044098909944,decreament,0.6,11,standard,None,100,0.9073342997580767,,,,,,,m,29,203,en,r,0,raw,2022-05-13_10h19.14.187,oddball,2022.1.2,59.94822867840358,
5,,,,,0,0,0,1,3,0,3,0,12,0,12,0,,,,,,,,,,,,,,,,,542.0431647000369,None,542.6591105000116,543.0253624999896,542.9921087999828,544.9927573001478,j,1,0.36013300996273756,2.360766710015014,decreament,0.36,13,oddball,j,60,0.7801695999223739,,,,,,,m,29,203,en,r,0,raw,2022-05-13_10h19.14.187,oddball,2022.1.2,59.94822867840358,
5,,,,,0,0,0,1,3,0,3,0,13,0,13,0,,,,,,,,,,,,,,,,,545.0094393000472,None,545.6432825000957,546.2437473000027,546.2269032001495,548.227627400076,None,1,0.6127819099929184,2.613457210129127,decreament,0.6,11,standard,None,100,,,,,,,,m,29,203,en,r,0,raw,2022-05-13_10h19.14.187,oddball,2022.1.2,59.94822867840358,
5,,,,,0,0,0,1,3,0,3,0,14,0,14,0,,,,,,,,,,,,,,,,,548.2440625999589,None,548.7614897999447,549.3614779000636,549.344999599969,551.3451298000291,None,1,0.6099805098492652,2.6100384099408984,decreament,0.6,11,standard,None,100,,,,,,,,m,29,203,en,r,0,raw,2022-05-13_10h19.14.187,oddball,2022.1.2,59.94822867840358,
5,,,,,0,0,0,1,3,0,3,0,15,0,15,0,,,,,,,,,,,,,,,,,551.3619012001436,None,552.0623886999674,552.6625858999323,552.6460633999668,554.6465958000626,None,1,0.6118275099433959,2.61238300986588,decreament,0.6,11,standard,None,100,,,,,,,,m,29,203,en,r,0,raw,2022-05-13_10h19.14.187,oddball,2022.1.2,59.94822867840358,
5,,,,,0,0,0,1,3,0,3,0,16,0,16,0,,,,,,,,,,,,,,,,,554.6633765001316,None,555.3468111001421,555.9470673999749,555.9304853000212,557.9310266000684,None,1,0.6121422098949552,2.6126888098660856,decreament,0.6,11,standard,None,100,,,,,,,,m,29,203,en,r,0,raw,2022-05-13_10h19.14.187,oddball,2022.1.2,59.94822867840358,
5,,,,,0,0,0,1,3,0,3,0,17,0,17,0,,,,,,,,,,,,,,,,,557.9479962000623,None,558.5646693001036,559.16494840011,559.1481324001215,561.1490359001327,None,1,0.6137754099909216,2.61472230986692,decreament,0.6,11,standard,None,100,,,,,,,,m,29,203,en,r,0,raw,2022-05-13_10h19.14.187,oddball,2022.1.2,59.94822867840358,
5,,,,,0,0,0,1,3,0,3,0,18,0,18,0,,,,,,,,,,,,,,,,,561.165779999923,None,561.6992981000803,562.2994725999888,562.2827182000037,564.2835441001225,None,1,0.6119748100172728,2.61280070990324,decreament,0.6,11,standard,None,100,,,,,,,,m,29,203,en,r,0,raw,2022-05-13_10h19.14.187,oddball,2022.1.2,59.94822867840358,
5,,,,,0,0,0,1,3,0,3,0,19,0,19,0,,,,,,,,,,,,,,,,,564.3001544999424,None,564.9837966000196,565.4678241000511,565.4509320999496,567.4513632999733,None,0,0.4953873101621866,2.495772910071537,decreament,0.48,14,oddball,j,80,,,,,,,,m,29,203,en,r,0,raw,2022-05-13_10h19.14.187,oddball,2022.1.2,59.94822867840358,
5,,,,,0,0,0,1,3,0,3,0,20,0,20,0,,,,,,,,,,,,,,,,,567.4681329999585,None,568.1520841999445,568.7519311001524,568.7352732000872,570.7361940999981,None,1,0.6097034101840109,2.610642510233447,decreament,0.6,11,standard,None,100,,,,,,,,m,29,203,en,r,0,raw,2022-05-13_10h19.14.187,oddball,2022.1.2,59.94822867840358,
5,,,,,0,0,0,1,3,0,3,0,21,0,21,0,,,,,,,,,,,,,,,,,570.7527028000914,None,571.5195224999916,572.1197526999749,572.1033463999629,574.1041474000085,None,1,0.6133116099517792,2.6141269099898636,decreament,0.6,11,standard,None,100,,,,,,,,m,29,203,en,r,0,raw,2022-05-13_10h19.14.187,oddball,2022.1.2,59.94822867840358,
5,,,,,0,0,0,1,3,0,3,0,22,0,22,0,,,,,,,,,,,,,,,,,574.1207254999317,None,574.7376608001068,575.337582899956,575.3210799000226,577.3217909000814,None,1,0.6095563101116568,2.6102958102710545,decreament,0.6,11,standard,None,100,,,,,,,,m,29,203,en,r,0,raw,2022-05-13_10h19.14.187,oddball,2022.1.2,59.94822867840358,
5,,,,,0,0,0,1,3,0,3,0,23,0,23,0,,,,,,,,,,,,,,,,,577.3388110999949,None,578.0889550000429,578.6893180999905,578.6723180001136,580.6732832000125,None,1,0.6123385101091117,2.613367009907961,decreament,0.6,11,standard,None,100,,,,,,,,m,29,203,en,r,0,raw,2022-05-13_10h19.14.187,oddball,2022.1.2,59.94822867840358,
5,,,,,0,0,0,1,3,0,3,0,24,0,24,0,,,,,,,,,,,,,,,,,580.6906697000377,None,581.2069099000655,581.8068163001444,581.7903853000607,583.7911285001319,None,1,0.6124969099182636,2.6132582100108266,decreament,0.6,11,standard,None,100,,,,,,,,m,29,203,en,r,0,raw,2022-05-13_10h19.14.187,oddball,2022.1.2,59.94822867840358,
5,,,,,0,0,0,1,3,0,3,0,25,0,25,0,,,,,,,,,,,,,,,,,583.8075469001196,None,584.4577751001343,585.057951600058,585.0415811000858,587.0420739999972,None,1,0.6123800100758672,2.612780309980735,decreament,0.6,11,standard,None,100,,,,,,,,m,29,203,en,r,0,raw,2022-05-13_10h19.14.187,oddball,2022.1.2,59.94822867840358,
5,,,,,0,0,0,1,3,0,3,0,26,0,26,0,,,,,,,,,,,,,,,,,587.0587033999618,None,587.8260644001421,588.426094800001,588.4093818999827,590.4104689999949,None,1,0.6120426100678742,2.6132107102312148,decreament,0.6,11,standard,None,100,,,,,,,,m,29,203,en,r,0,raw,2022-05-13_10h19.14.187,oddball,2022.1.2,59.94822867840358,
5,,,,,0,0,0,1,3,0,3,0,27,0,27,0,,,,,,,,,,,,,,,,,590.4267262001522,None,591.0605673000682,591.661000699969,591.6441270001233,593.6445005999412,None,1,0.6126902101095766,2.61300621018745,decreament,0.6,11,standard,None,100,,,,,,,,m,29,203,en,r,0,raw,2022-05-13_10h19.14.187,oddball,2022.1.2,59.94822867840358,
5,,,,,0,0,0,1,3,0,3,0,28,0,28,0,,,,,,,,,,,,,,,,,593.6614037000109,None,594.3783969001379,594.9784399000928,594.9622063001152,596.9629069000948,None,1,0.6116101101506501,2.6123468100558966,decreament,0.6,11,standard,None,100,,,,,,,,m,29,203,en,r,0,raw,2022-05-13_10h19.14.187,oddball,2022.1.2,59.94822867840358,
5,,,,,0,0,0,1,3,0,3,0,29,0,29,0,,,,,,,,,,,,,,,,,596.9791230000556,None,597.6298748000991,598.2296782000922,598.2130001999903,600.2136425001081,None,1,0.6089462100062519,2.6095634100493044,decreament,0.6,11,standard,None,100,,,,,,,,m,29,203,en,r,0,raw,2022-05-13_10h19.14.187,oddball,2022.1.2,59.94822867840358,
5,,,,,0,0,0,1,4,0,4,0,0,0,0,0,,,,,,,,,,,,,,,604.5390844000503,None,613.5190530000255,None,614.219338899944,614.8190828999504,614.8028488999698,616.8038566999603,None,1,0.6121472099330276,2.6132807100657374,increament,0.6,15,standard,None,100,,600.2307299000677,None,,,,,m,29,203,en,r,0,raw,2022-05-13_10h19.14.187,oddball,2022.1.2,59.94822867840358,
5,,,,,0,0,0,1,4,0,4,0,1,0,1,0,,,,,,,,,,,,,,,,,616.8222324999515,None,617.5037184001412,618.1045880999882,618.0872591999359,620.0884301001206,None,1,0.6140399100258946,2.615265609929338,increament,0.6,15,standard,None,100,,,,,,,,m,29,203,en,r,0,raw,2022-05-13_10h19.14.187,oddball,2022.1.2,59.94822867840358,
5,,,,,0,0,0,1,4,0,4,0,2,0,2,0,,,,,,,,,,,,,,,,,620.1045691999607,None,620.7714456000831,621.3718775999732,621.3557726000436,623.3558684999589,None,1,0.6139866099692881,2.6140697097871453,increament,0.6,15,standard,None,100,,,,,,,,m,29,203,en,r,0,raw,2022-05-13_10h19.14.187,oddball,2022.1.2,59.94822867840358,
5,,,,,0,0,0,1,4,0,4,0,3,0,3,0,,,,,,,,,,,,,,,,,623.3724930000026,None,624.0230757999234,624.6231738999486,624.6066563001368,626.6073221999686,None,1,0.6100581099744886,2.610732209868729,increament,0.6,15,standard,None,100,,,,,,,,m,29,203,en,r,0,raw,2022-05-13_10h19.14.187,oddball,2022.1.2,59.94822867840358,
5,,,,,0,0,0,1,4,0,4,0,4,0,4,0,,,,,,,,,,,,,,,,,626.6240151000675,None,627.2073162000161,627.8075473001227,627.7912900999654,629.7921613999642,None,1,0.6127273098099977,2.613639809889719,increament,0.6,15,standard,None,100,,,,,,,,m,29,203,en,r,0,raw,2022-05-13_10h19.14.187,oddball,2022.1.2,59.94822867840358,
5,,,,,0,0,0,1,4,0,4,0,5,0,5,0,,,,,,,,,,,,,,,,,629.8099090000615,None,630.7754669999704,631.3757645001169,631.3591388000641,633.3595652999356,None,1,0.6122775098774582,2.6127721099182963,increament,0.6,15,standard,None,100,,,,,,,,m,29,203,en,r,0,raw,2022-05-13_10h19.14.187,oddball,2022.1.2,59.94822867840358,
5,,,,,0,0,0,1,4,0,4,0,6,0,6,0,,,,,,,,,,,,,,,,,633.3764853000175,None,634.1769586000592,634.7769685999956,634.7603152000811,636.7613449001219,j,0,0.6123016101773828,2.6133502102456987,increament,0.6,15,standard,None,100,0.028646599734202027,,,,,,,m,29,203,en,r,0,raw,2022-05-13_10h19.14.187,oddball,2022.1.2,59.94822867840358,
5,,,,,0,0,0,1,4,0,4,0,7,0,7,0,,,,,,,,,,,,,,,,,636.7776230999734,None,637.4279805000406,638.0283799001481,638.0117756000254,640.0121899000369,None,1,0.6124408103059977,2.612791710300371,increament,0.6,15,standard,None,100,,,,,,,,m,29,203,en,r,0,raw,2022-05-13_10h19.14.187,oddball,2022.1.2,59.94822867840358,
5,,,,,0,0,0,1,4,0,4,0,8,0,8,0,,,,,,,,,,,,,,,,,640.0291188999545,None,640.6126375000458,641.2125822000671,641.1965359000023,643.1967615000904,None,1,0.6108426100108773,2.610980710014701,increament,0.6,15,standard,None,100,,,,,,,,m,29,203,en,r,0,raw,2022-05-13_10h19.14.187,oddball,2022.1.2,59.94822867840358,
5,,,,,0,0,0,1,4,0,4,0,9,0,9,0,,,,,,,,,,,,,,,,,643.2134891001042,None,643.8136454999913,644.4143116001505,644.3980771000497,646.3978413001169,None,1,0.613194809993729,2.612851510057226,increament,0.6,15,standard,None,100,,,,,,,,m,29,203,en,r,0,raw,2022-05-13_10h19.14.187,oddball,2022.1.2,59.94822867840358,
5,,,,,0,0,0,1,4,0,4,0,10,0,10,0,,,,,,,,,,,,,,,,,646.4144168000203,None,647.014737999998,647.6150688000489,647.59863579995,649.5992258000188,None,1,0.6135284102056175,2.614127810113132,increament,0.6,15,standard,None,100,,,,,,,,m,29,203,en,r,0,raw,2022-05-13_10h19.14.187,oddball,2022.1.2,59.94822867840358,
5,,,,,0,0,0,1,4,0,4,0,11,0,11,0,,,,,,,,,,,,,,,,,649.6159198000096,None,650.1996160000563,650.7998625999317,650.7831232999451,652.7839069999754,None,1,0.6107698101550341,2.6115309100132436,increament,0.6,15,standard,None,100,,,,,,,,m,29,203,en,r,0,raw,2022-05-13_10h19.14.187,oddball,2022.1.2,59.94822867840358,
5,,,,,0,0,0,1,4,0,4,0,12,0,12,0,,,,,,,,,,,,,,,,,652.8003567999694,None,653.3337856000289,653.9344303000253,653.917665899964,655.9185526000801,None,1,0.6148699100594968,2.6157934099901468,increament,0.6,15,standard,None,100,,,,,,,,m,29,203,en,r,0,raw,2022-05-13_10h19.14.187,oddball,2022.1.2,59.94822867840358,
5,,,,,0,0,0,1,4,0,4,0,13,0,13,0,,,,,,,,,,,,,,,,,655.9361183000728,None,656.6852635000832,657.285388499964,657.2687915000133,659.2696879999712,None,1,0.6116110100410879,2.6125285101588815,increament,0.6,15,standard,None,100,,,,,,,,m,29,203,en,r,0,raw,2022-05-13_10h19.14.187,oddball,2022.1.2,59.94822867840358,
5,,,,,0,0,0,1,4,0,4,0,14,0,14,0,,,,,,,,,,,,,,,,,659.2863274000119,None,659.8530707999598,660.45343949995,660.4365604999475,662.4372871001251,None,1,0.6123698099981993,2.613071809988469,increament,0.6,15,standard,None,100,,,,,,,,m,29,203,en,r,0,raw,2022-05-13_10h19.14.187,oddball,2022.1.2,59.94822867840358,
5,,,,,0,0,0,1,4,0,4,0,15,0,15,0,,,,,,,,,,,,,,,,,662.4540059000719,None,663.0879150000401,663.9378190001007,663.9049863999244,665.9049722000491,None,0,0.8430480102542788,2.842960410285741,increament,0.84,17,oddball,j,140,,,,,,,,m,29,203,en,r,0,raw,2022-05-13_10h19.14.187,oddball,2022.1.2,59.94822867840358,
5,,,,,0,0,0,1,4,0,4,0,16,0,16,0,,,,,,,,,,,,,,,,,665.9216118999757,None,666.605773099931,667.2062248999719,667.1893688000273,669.1904343001079,None,1,0.61167200980708,2.612759009934962,increament,0.6,15,standard,None,100,,,,,,,,m,29,203,en,r,0,raw,2022-05-13_10h19.14.187,oddball,2022.1.2,59.94822867840358,
5,,,,,0,0,0,1,4,0,4,0,17,0,17,0,,,,,,,,,,,,,,,,,669.2077645000536,None,669.8735482001211,670.4736854999792,670.457155900076,672.4578503000084,None,1,0.6127408100292087,2.6134339100681245,increament,0.6,15,standard,None,100,,,,,,,,m,29,203,en,r,0,raw,2022-05-13_10h19.14.187,oddball,2022.1.2,59.94822867840358,
5,,,,,0,0,0,1,4,0,4,0,18,0,18,0,,,,,,,,,,,,,,,,,672.474482800113,None,673.1749430000782,673.7751706999261,673.7586527001113,675.75947550009,j,0,0.6117184101603925,2.6125652100890875,increament,0.6,15,standard,None,100,0.03806819976307452,,,,,,,m,29,203,en,r,0,raw,2022-05-13_10h19.14.187,oddball,2022.1.2,59.94822867840358,
5,,,,,0,0,0,1,4,0,4,0,19,0,19,0,,,,,,,,,,,,,,,,,675.7771262000315,None,676.4092801001389,677.0093350999523,676.9929667999968,678.9939230999444,None,1,0.6123875097837299,2.613433209946379,increament,0.6,15,standard,None,100,,,,,,,,m,29,203,en,r,0,raw,2022-05-13_10h19.14.187,oddball,2022.1.2,59.94822867840358,
5,,,,,0,0,0,1,4,0,4,0,20,0,20,0,,,,,,,,,,,,,,,,,679.0104819000699,None,679.5438344001304,680.1444335000124,680.1276930000167,682.1277604999486,None,1,0.6088822099845856,2.608823109883815,increament,0.6,15,standard,None,100,,,,,,,,m,29,203,en,r,0,raw,2022-05-13_10h19.14.187,oddball,2022.1.2,59.94822867840358,
5,,,,,0,0,0,1,4,0,4,0,21,0,21,0,,,,,,,,,,,,,,,,,682.1444202000275,None,682.8617044000421,683.4618309000507,683.4451522999443,685.4461175999604,None,1,0.6120160098653287,2.613009809749201,increament,0.6,15,standard,None,100,,,,,,,,m,29,203,en,r,0,raw,2022-05-13_10h19.14.187,oddball,2022.1.2,59.94822867840358,
5,,,,,0,0,0,1,4,0,4,0,22,0,22,0,,,,,,,,,,,,,,,,,685.462672600057,None,686.1299401000142,686.7298767000902,686.7133563000243,688.714015699923,None,1,0.6101629100739956,2.6108778100460768,increament,0.6,15,standard,None,100,,,,,,,,m,29,203,en,r,0,raw,2022-05-13_10h19.14.187,oddball,2022.1.2,59.94822867840358,
5,,,,,0,0,0,1,4,0,4,0,23,0,23,0,,,,,,,,,,,,,,,,,688.7310331000481,None,689.3141348999925,689.9144780000206,689.8982580001466,691.8989603000227,None,1,0.6144443098455667,2.6151010098401457,increament,0.6,15,standard,None,100,,,,,,,,m,29,203,en,r,0,raw,2022-05-13_10h19.14.187,oddball,2022.1.2,59.94822867840358,
5,,,,,0,0,0,1,4,0,4,0,24,0,24,0,,,,,,,,,,,,,,,,,691.915262500057,None,692.4823279001284,693.0823792000301,693.0655926000327,695.0663368001115,None,1,0.612547310302034,2.6132701102178544,increament,0.6,15,standard,None,100,,,,,,,,m,29,203,en,r,0,raw,2022-05-13_10h19.14.187,oddball,2022.1.2,59.94822867840358,
5,,,,,0,0,0,1,4,0,4,0,25,0,25,0,,,,,,,,,,,,,,,,,695.0828438000754,None,695.7674068000633,696.5002016001381,696.467032100074,698.4675805000588,None,0,0.729159909998998,2.729577810037881,increament,0.72,16,oddball,j,120,,,,,,,,m,29,203,en,r,0,raw,2022-05-13_10h19.14.187,oddball,2022.1.2,59.94822867840358,
5,,,,,0,0,0,1,4,0,4,0,26,0,26,0,,,,,,,,,,,,,,,,,698.4842467000708,None,699.0512876000721,699.6514451999683,699.6346374999266,701.635521300137,None,1,0.611960609909147,2.6128491098061204,increament,0.6,15,standard,None,100,,,,,,,,m,29,203,en,r,0,raw,2022-05-13_10h19.14.187,oddball,2022.1.2,59.94822867840358,
5,,,,,0,0,0,1,4,0,4,0,27,0,27,0,,,,,,,,,,,,,,,,,701.6520156001206,None,702.3023376001511,702.9025872000493,702.8859687000513,704.8867449001409,None,1,0.6138528098817915,2.6146522099152207,increament,0.6,15,standard,None,100,,,,,,,,m,29,203,en,r,0,raw,2022-05-13_10h19.14.187,oddball,2022.1.2,59.94822867840358,
5,,,,,0,0,0,1,4,0,4,0,28,0,28,0,,,,,,,,,,,,,,,,,704.9035354000516,None,705.570340000093,706.1704011999536,706.1538750999607,708.1549118999392,None,1,0.6144008100964129,2.615501710213721,increament,0.6,15,standard,None,100,,,,,,,,m,29,203,en,r,0,raw,2022-05-13_10h19.14.187,oddball,2022.1.2,59.94822867840358,
5,,,,,0,0,0,1,4,0,4,0,29,0,29,0,,,,,,,,,,,,,,,,,708.1719724999275,None,708.7883645000402,709.7554171001539,709.7219054000452,711.7227402001154,None,0,0.9610629098024219,2.961933809798211,increament,0.96,18,oddball,j,160,,,,,,,,m,29,203,en,r,0,raw,2022-05-13_10h19.14.187,oddball,2022.1.2,59.94822867840358,
5,,,,,0,0,0,1,5,0,5,0,0,0,0,0,,,,,,,,,,,,,,,720.0185581000987,None,726.9618941000663,None,727.5623820000328,728.1620732001029,728.1455902999733,730.1462386001367,None,1,0.6114099100232124,2.612061809981242,decreament,0.6,11,standard,None,100,,711.7423930000514,None,,,,,m,29,203,en,r,0,raw,2022-05-13_10h19.14.187,oddball,2022.1.2,59.94822867840358,
5,,,,,0,0,0,1,5,0,5,0,1,0,1,0,,,,,,,,,,,,,,,,,730.1630859000143,None,730.8133735000156,731.4133777001407,731.3968096999452,733.3976400000975,None,1,0.6117862099781632,2.612643509870395,decreament,0.6,11,standard,None,100,,,,,,,,m,29,203,en,r,0,raw,2022-05-13_10h19.14.187,oddball,2022.1.2,59.94822867840358,
5,,,,,0,0,0,1,5,0,5,0,2,0,2,0,,,,,,,,,,,,,,,,,733.4143370001111,None,734.1644010001328,734.7648450999986,734.7483942001127,736.7485801000148,None,1,0.613764809910208,2.613817509962246,decreament,0.6,11,standard,None,100,,,,,,,,m,29,203,en,r,0,raw,2022-05-13_10h19.14.187,oddball,2022.1.2,59.94822867840358,
5,,,,,0,0,0,1,5,0,5,0,3,0,3,0,,,,,,,,,,,,,,,,,736.7652193999384,None,737.4656930000056,738.0661331999581,738.0497835001443,740.0500978000928,None,1,0.6135938100051135,2.614473609952256,decreament,0.6,11,standard,None,100,,,,,,,,m,29,203,en,r,0,raw,2022-05-13_10h19.14.187,oddball,2022.1.2,59.94822867840358,
5,,,,,0,0,0,1,5,0,5,0,4,0,4,0,,,,,,,,,,,,,,,,,740.0669029001147,None,740.6169718999881,741.2171726999804,741.201034600148,743.2011436000466,None,1,0.6132760101463646,2.6133831101469696,decreament,0.6,11,standard,None,100,,,,,,,,m,29,203,en,r,0,raw,2022-05-13_10h19.14.187,oddball,2022.1.2,59.94822867840358,
5,,,,,0,0,0,1,5,0,5,0,5,0,5,0,,,,,,,,,,,,,,,,,743.2176477001049,None,743.8517708000727,744.4519744999707,744.4353865999728,746.4358741999604,None,1,0.6109806103631854,2.611444710288197,decreament,0.6,11,standard,None,100,,,,,,,,m,29,203,en,r,0,raw,2022-05-13_10h19.14.187,oddball,2022.1.2,59.94822867840358,
5,,,,,0,0,0,1,5,0,5,0,6,0,6,0,,,,,,,,,,,,,,,,,746.4527505999431,None,747.1863142999355,747.7865047999658,747.769743300043,749.7701669000089,None,1,0.6111543099395931,2.61152030993253,decreament,0.6,11,standard,None,100,,,,,,,,m,29,203,en,r,0,raw,2022-05-13_10h19.14.187,oddball,2022.1.2,59.94822867840358,
5,,,,,0,0,0,1,5,0,5,0,7,0,7,0,,,,,,,,,,,,,,,,,749.7869178999681,None,750.3709953001235,750.9711385001428,750.9546209999826,752.9552267000545,None,1,0.6098953103646636,2.610533610219136,decreament,0.6,11,standard,None,100,,,,,,,,m,29,203,en,r,0,raw,2022-05-13_10h19.14.187,oddball,2022.1.2,59.94822867840358,
5,,,,,0,0,0,1,5,0,5,0,8,0,8,0,,,,,,,,,,,,,,,,,752.9719205000438,None,753.6555280000903,754.255399200134,754.2390117000323,756.2397684999742,None,1,0.609749109717086,2.6105041096452624,decreament,0.6,11,standard,None,100,,,,,,,,m,29,203,en,r,0,raw,2022-05-13_10h19.14.187,oddball,2022.1.2,59.94822867840358,
5,,,,,0,0,0,1,5,0,5,0,9,0,9,0,,,,,,,,,,,,,,,,,756.2562398000155,None,756.9234770999756,757.5238058001269,757.5072693000548,759.5078515999485,None,1,0.6100256098434329,2.6105713099241257,decreament,0.6,11,standard,None,100,,,,,,,,m,29,203,en,r,0,raw,2022-05-13_10h19.14.187,oddball,2022.1.2,59.94822867840358,
5,,,,,0,0,0,1,5,0,5,0,10,0,10,0,,,,,,,,,,,,,,,,,759.5242073999252,None,760.2912300999742,760.8914614999667,760.8748723999597,762.8756604001392,None,1,0.612857110099867,2.613706110045314,decreament,0.6,11,standard,None,100,,,,,,,,m,29,203,en,r,0,raw,2022-05-13_10h19.14.187,oddball,2022.1.2,59.94822867840358,
5,,,,,0,0,0,1,5,0,5,0,11,0,11,0,,,,,,,,,,,,,,,,,762.8922022001352,None,763.4921999999788,763.9757030999754,763.9423189000227,765.9437184999697,None,0,0.4796677101403475,2.481181610142812,decreament,0.48,14,oddball,j,80,,,,,,,,m,29,203,en,r,0,raw,2022-05-13_10h19.14.187,oddball,2022.1.2,59.94822867840358,
5,,,,,0,0,0,1,5,0,5,0,12,0,12,0,,,,,,,,,,,,,,,,,765.9607321999501,None,766.6767069001216,767.277198900003,767.2607797000092,769.2613083999604,None,1,0.61529541015625,2.615763810230419,decreament,0.6,11,standard,None,100,,,,,,,,m,29,203,en,r,0,raw,2022-05-13_10h19.14.187,oddball,2022.1.2,59.94822867840358,
5,,,,,0,0,0,1,5,0,5,0,13,0,13,0,,,,,,,,,,,,,,,,,769.2779827001505,None,769.9950800000224,770.5952066001482,770.5789326999802,772.5792026000563,None,1,0.6102756101172417,2.610493010142818,decreament,0.6,11,standard,None,100,,,,,,,,m,29,203,en,r,0,raw,2022-05-13_10h19.14.187,oddball,2022.1.2,59.94822867840358,
5,,,,,0,0,0,1,5,0,5,0,14,0,14,0,,,,,,,,,,,,,,,,,772.5959324000869,None,773.2959813000634,773.8960854001343,773.8794371001422,775.8801221000031,j,0,0.6093882098793983,2.610031310003251,decreament,0.6,11,standard,None,100,0.019948899978771806,,,,,,,m,29,203,en,r,0,raw,2022-05-13_10h19.14.187,oddball,2022.1.2,59.94822867840358,
5,,,,,0,0,0,1,5,0,5,0,15,0,15,0,,,,,,,,,,,,,,,,,775.8970000001136,None,776.5805274001323,777.1809986000881,777.1645857000258,779.165070899995,None,1,0.6143830101937056,2.614822610048577,decreament,0.6,11,standard,None,100,,,,,,,,m,29,203,en,r,0,raw,2022-05-13_10h19.14.187,oddball,2022.1.2,59.94822867840358,
5,,,,,0,0,0,1,5,0,5,0,16,0,16,0,,,,,,,,,,,,,,,,,779.1819639001042,None,779.7485595999751,780.3487700999249,780.3320647999644,782.3331069000997,None,1,0.6117960100527853,2.6129252100363374,decreament,0.6,11,standard,None,100,,,,,,,,m,29,203,en,r,0,raw,2022-05-13_10h19.14.187,oddball,2022.1.2,59.94822867840358,
5,,,,,0,0,0,1,5,0,5,0,17,0,17,0,,,,,,,,,,,,,,,,,782.3495948000345,None,783.0663272999227,783.6666147001088,783.6497969999909,785.6507566999644,None,1,0.6133840100374073,2.6143661099486053,decreament,0.6,11,standard,None,100,,,,,,,,m,29,203,en,r,0,raw,2022-05-13_10h19.14.187,oddball,2022.1.2,59.94822867840358,
5,,,,,0,0,0,1,5,0,5,0,18,0,18,0,,,,,,,,,,,,,,,,,785.6673858000431,None,786.367663500132,786.9681436000392,786.9514399999753,788.9522021999583,None,1,0.6137265102006495,2.614488010061905,decreament,0.6,11,standard,None,100,,,,,,,,m,29,203,en,r,0,raw,2022-05-13_10h19.14.187,oddball,2022.1.2,59.94822867840358,
5,,,,,0,0,0,1,5,0,5,0,19,0,19,0,,,,,,,,,,,,,,,,,788.968719100114,None,789.6856369001325,789.9357406999916,789.902535200119,791.9030879000202,j,1,0.2457645097747445,2.246337109943852,decreament,0.24,12,oddball,j,40,0.7413221998140216,,,,,,,m,29,203,en,r,0,raw,2022-05-13_10h19.14.187,oddball,2022.1.2,59.94822867840358,
5,,,,,0,0,0,1,5,0,5,0,20,0,20,0,,,,,,,,,,,,,,,,,791.9197973001283,None,792.4701837999746,793.0701562999748,793.0537241001148,795.0543281999417,j,0,0.6136233101133257,2.6142582099419087,decreament,0.6,11,standard,None,100,0.9744622998405248,,,,,,,m,29,203,en,r,0,raw,2022-05-13_10h19.14.187,oddball,2022.1.2,59.94822867840358,
5,,,,,0,0,0,1,5,0,5,0,21,0,21,0,,,,,,,,,,,,,,,,,795.0710494001396,None,795.8545641999226,796.4550979000051,796.4382036000025,798.4392985000741,None,1,0.613057809881866,2.614210410043597,decreament,0.6,11,standard,None,100,,,,,,,,m,29,203,en,r,0,raw,2022-05-13_10h19.14.187,oddball,2022.1.2,59.94822867840358,
5,,,,,0,0,0,1,5,0,5,0,22,0,22,0,,,,,,,,,,,,,,,,,798.4564758001361,None,799.1390756000765,799.7392231000122,799.7229627000634,801.7235227001365,None,1,0.6131453099660575,2.6137240098323673,decreament,0.6,11,standard,None,100,,,,,,,,m,29,203,en,r,0,raw,2022-05-13_10h19.14.187,oddball,2022.1.2,59.94822867840358,
5,,,,,0,0,0,1,5,0,5,0,23,0,23,0,,,,,,,,,,,,,,,,,801.7399965000805,None,802.3402062000241,802.7071019001305,802.6736582999583,804.6746280000079,j,1,0.36186470999382436,2.3629025099799037,decreament,0.36,13,oddball,j,60,0.2816272999625653,,,,,,,m,29,203,en,r,0,raw,2022-05-13_10h19.14.187,oddball,2022.1.2,59.94822867840358,
5,,,,,0,0,0,1,5,0,5,0,24,0,24,0,,,,,,,,,,,,,,,,,804.6910933000036,None,805.4413197000977,806.0419662001077,806.0256463000551,808.0258583000395,None,1,0.6138455101754516,2.614003010094166,decreament,0.6,11,standard,None,100,,,,,,,,m,29,203,en,r,0,raw,2022-05-13_10h19.14.187,oddball,2022.1.2,59.94822867840358,
5,,,,,0,0,0,1,5,0,5,0,25,0,25,0,,,,,,,,,,,,,,,,,808.0426821000874,None,808.7259676000103,809.3263451000676,809.3099114000797,811.3106617999729,None,1,0.6131987099070102,2.613997209817171,decreament,0.6,11,standard,None,100,,,,,,,,m,29,203,en,r,0,raw,2022-05-13_10h19.14.187,oddball,2022.1.2,59.94822867840358,
5,,,,,0,0,0,1,5,0,5,0,26,0,26,0,,,,,,,,,,,,,,,,,811.3277523999568,None,811.8941913000308,812.4943721001036,812.4776739000808,814.4783922999632,None,1,0.6119938099291176,2.6126787099055946,decreament,0.6,11,standard,None,100,,,,,,,,m,29,203,en,r,0,raw,2022-05-13_10h19.14.187,oddball,2022.1.2,59.94822867840358,
5,,,,,0,0,0,1,5,0,5,0,27,0,27,0,,,,,,,,,,,,,,,,,814.4950339000206,None,815.0287097000983,815.6286717001349,815.6125866000075,817.6129926999565,None,1,0.6116034099832177,2.612014410085976,decreament,0.6,11,standard,None,100,,,,,,,,m,29,203,en,r,0,raw,2022-05-13_10h19.14.187,oddball,2022.1.2,59.94822867840358,
5,,,,,0,0,0,1,5,0,5,0,28,0,28,0,,,,,,,,,,,,,,,,,817.6296405999456,None,818.4131184001453,819.0130956000648,818.9968304999638,820.9973929000553,None,1,0.6124364098068327,2.6129975100047886,decreament,0.6,11,standard,None,100,,,,,,,,m,29,203,en,r,0,raw,2022-05-13_10h19.14.187,oddball,2022.1.2,59.94822867840358,
5,,,,,0,0,0,1,5,0,5,0,29,0,29,0,,,,,,,,,,,,,,,,,821.0142928001005,None,821.6478854999878,822.2480842999648,822.2312376999762,824.2322289000731,None,1,0.6125821098685265,2.613598909927532,decreament,0.6,11,standard,None,100,,,,,,,,m,29,203,en,r,0,raw,2022-05-13_10h19.14.187,oddball,2022.1.2,59.94822867840358,
5,,,,,0,0,0,1,6,0,6,0,0,0,0,0,,,,,,,,,,,,,,,842.993242500117,None,854.2098926999606,None,854.8936427000444,855.4939143001102,855.4772245001514,857.4777015999425,None,1,0.6125279101543128,2.61295611015521,increament,0.6,15,standard,None,100,,824.2491047999356,None,,,,,m,29,203,en,r,0,raw,2022-05-13_10h19.14.187,oddball,2022.1.2,59.94822867840358,
5,,,,,0,0,0,1,6,0,6,0,1,0,1,0,,,,,,,,,,,,,,,,,857.4944925000891,None,858.2283187001012,858.828954000026,858.8119209001306,860.8123924999963,None,1,0.6129353099968284,2.613370210165158,increament,0.6,15,standard,None,100,,,,,,,,m,29,203,en,r,0,raw,2022-05-13_10h19.14.187,oddball,2022.1.2,59.94822867840358,
5,,,,,0,0,0,1,6,0,6,0,2,0,2,0,,,,,,,,,,,,,,,,,860.8291325001046,None,861.4960312999319,862.0961810001172,862.0798496000934,864.0806216001511,None,1,0.6132992100901902,2.614310309989378,increament,0.6,15,standard,None,100,,,,,,,,m,29,203,en,r,0,raw,2022-05-13_10h19.14.187,oddball,2022.1.2,59.94822867840358,
5,,,,,0,0,0,1,6,0,6,0,3,0,3,0,,,,,,,,,,,,,,,,,864.0970425999258,None,864.8812478999607,865.4812072000932,865.4645809000358,867.4650491999928,None,1,0.6102872102055699,2.610704710241407,increament,0.6,15,standard,None,100,,,,,,,,m,29,203,en,r,0,raw,2022-05-13_10h19.14.187,oddball,2022.1.2,59.94822867840358,
5,,,,,0,0,0,1,6,0,6,0,4,0,4,0,,,,,,,,,,,,,,,,,867.4819775000215,None,868.148669200018,868.7491182000376,868.7322841000278,870.733057500096,None,1,0.6115618101321161,2.6123871100135148,increament,0.6,15,standard,None,100,,,,,,,,m,29,203,en,r,0,raw,2022-05-13_10h19.14.187,oddball,2022.1.2,59.94822867840358,
5,,,,,0,0,0,1,6,0,6,0,5,0,5,0,,,,,,,,,,,,,,,,,870.7498407999519,None,871.4000059000682,872.3672571999487,872.3334615000058,874.3344531001057,None,0,0.9602574098389596,2.9613188097719103,increament,0.96,18,oddball,j,160,,,,,,,,m,29,203,en,r,0,raw,2022-05-13_10h19.14.187,oddball,2022.1.2,59.94822867840358,
5,,,,,0,0,0,1,6,0,6,0,6,0,6,0,,,,,,,,,,,,,,,,,874.3509083001409,None,875.0351146999747,875.6346790001262,875.61807029997,877.6190244001336,None,1,0.6106524099595845,2.611604310106486,increament,0.6,15,standard,None,100,,,,,,,,m,29,203,en,r,0,raw,2022-05-13_10h19.14.187,oddball,2022.1.2,59.94822867840358,
5,,,,,0,0,0,1,6,0,6,0,7,0,7,0,,,,,,,,,,,,,,,,,877.635733500123,None,878.2194153999444,878.8197185001336,878.8028508001007,880.8034501001239,None,1,0.6097788098268211,2.6103554097935557,increament,0.6,15,standard,None,100,,,,,,,,m,29,203,en,r,0,raw,2022-05-13_10h19.14.187,oddball,2022.1.2,59.94822867840358,
5,,,,,0,0,0,1,6,0,6,0,8,0,8,0,,,,,,,,,,,,,,,,,880.820393800037,None,881.5038070001174,882.104596399935,882.087494000094,884.0883148000576,None,1,0.6136484097223729,2.6144791098777205,increament,0.6,15,standard,None,100,,,,,,,,m,29,203,en,r,0,raw,2022-05-13_10h19.14.187,oddball,2022.1.2,59.94822867840358,
5,,,,,0,0,0,1,6,0,6,0,9,0,9,0,,,,,,,,,,,,,,,,,884.1047237999737,None,884.7219521999359,885.3220299000386,885.3054277999327,887.3055313001387,None,1,0.6110496101900935,2.6110635101795197,increament,0.6,15,standard,None,100,,,,,,,,m,29,203,en,r,0,raw,2022-05-13_10h19.14.187,oddball,2022.1.2,59.94822867840358,
5,,,,,0,0,0,1,6,0,6,0,10,0,10,0,,,,,,,,,,,,,,,,,887.3225916000083,None,888.1233159999829,888.7233071001247,888.7067651001271,890.7073858999647,None,1,0.6101053101010621,2.6106253101024777,increament,0.6,15,standard,None,100,,,,,,,,m,29,203,en,r,0,raw,2022-05-13_10h19.14.187,oddball,2022.1.2,59.94822867840358,
5,,,,,0,0,0,1,6,0,6,0,11,0,11,0,,,,,,,,,,,,,,,,,890.7236860999838,None,891.3242204999551,891.9243936999701,891.9075792999938,893.9088940999936,j,0,0.6119311100337654,2.6133264100644737,increament,0.6,15,standard,None,100,0.33618099987506866,,,,,,,m,29,203,en,r,0,raw,2022-05-13_10h19.14.187,oddball,2022.1.2,59.94822867840358,
5,,,,,0,0,0,1,6,0,6,0,12,0,12,0,,,,,,,,,,,,,,,,,893.9252106000204,None,894.5585235001054,895.1590528001543,895.1424438001122,897.143050200073,None,1,0.6126010098960251,2.6131944097578526,increament,0.6,15,standard,None,100,,,,,,,,m,29,203,en,r,0,raw,2022-05-13_10h19.14.187,oddball,2022.1.2,59.94822867840358,
5,,,,,0,0,0,1,6,0,6,0,13,0,13,0,,,,,,,,,,,,,,,,,897.1596594001167,None,897.8098983000964,898.5432516001165,898.5100664999336,900.5109004001133,None,0,0.7288714100141078,2.7297615099232644,increament,0.72,16,oddball,j,120,,,,,,,,m,29,203,en,r,0,raw,2022-05-13_10h19.14.187,oddball,2022.1.2,59.94822867840358,
5,,,,,0,0,0,1,6,0,6,0,14,0,14,0,,,,,,,,,,,,,,,,,900.527584400028,None,901.2111224001274,901.8113869000226,901.7946008001454,903.7953165001236,None,1,0.612939810147509,2.6136456101667136,increament,0.6,15,standard,None,100,,,,,,,,m,29,203,en,r,0,raw,2022-05-13_10h19.14.187,oddball,2022.1.2,59.94822867840358,
5,,,,,0,0,0,1,6,0,6,0,15,0,15,0,,,,,,,,,,,,,,,,,903.8123207001481,None,904.5624673999846,905.1626097001135,905.1460009999573,907.1469717000145,j,0,0.6131383099127561,2.6141475099138916,increament,0.6,15,standard,None,100,0.016902999952435493,,,,,,,m,29,203,en,r,0,raw,2022-05-13_10h19.14.187,oddball,2022.1.2,59.94822867840358,
5,,,,,0,0,0,1,6,0,6,0,16,0,16,0,,,,,,,,,,,,,,,,,907.1634370000102,None,907.7638892999385,908.3644131000619,908.3474437000696,910.348423599964,None,1,0.6111786100082099,2.6121592100244015,increament,0.6,15,standard,None,100,,,,,,,,m,29,203,en,r,0,raw,2022-05-13_10h19.14.187,oddball,2022.1.2,59.94822867840358,
5,,,,,0,0,0,1,6,0,6,0,17,0,17,0,,,,,,,,,,,,,,,,,910.364876500098,None,911.0315543001052,911.6317008000333,911.61557299993,913.6161865999456,None,1,0.6119085100945085,2.612511910032481,increament,0.6,15,standard,None,100,,,,,,,,m,29,203,en,r,0,raw,2022-05-13_10h19.14.187,oddball,2022.1.2,59.94822867840358,
5,,,,,0,0,0,1,6,0,6,0,18,0,18,0,,,,,,,,,,,,,,,,,913.6326725999825,None,914.2659825000446,914.8664259000216,914.8498901999556,916.8502070000395,j,0,0.613683310104534,2.613944709999487,increament,0.6,15,standard,None,100,0.2005230998620391,,,,,,,m,29,203,en,r,0,raw,2022-05-13_10h19.14.187,oddball,2022.1.2,59.94822867840358,
5,,,,,0,0,0,1,6,0,6,0,19,0,19,0,,,,,,,,,,,,,,,,,916.8672625001054,None,917.6504182000645,918.2510492999572,918.2344252001494,920.2348186001182,None,1,0.6137693100608885,2.6141066101845354,increament,0.6,15,standard,None,100,,,,,,,,m,29,203,en,r,0,raw,2022-05-13_10h19.14.187,oddball,2022.1.2,59.94822867840358,
5,,,,,0,0,0,1,6,0,6,0,20,0,20,0,,,,,,,,,,,,,,,,,920.2515362999402,None,920.935488200048,921.5356988001149,921.5188374000136,923.5194095000625,j,0,0.6118450099602342,2.6123976099770516,increament,0.6,15,standard,None,100,0.2683040997944772,,,,,,,m,29,203,en,r,0,raw,2022-05-13_10h19.14.187,oddball,2022.1.2,59.94822867840358,
5,,,,,0,0,0,1,6,0,6,0,21,0,21,0,,,,,,,,,,,,,,,,,923.5361144000199,None,924.10363649996,924.7031877001282,924.6867215000093,926.6875299001113,None,1,0.6093203099444509,2.6101517099887133,increament,0.6,15,standard,None,100,,,,,,,,m,29,203,en,r,0,raw,2022-05-13_10h19.14.187,oddball,2022.1.2,59.94822867840358,
5,,,,,0,0,0,1,6,0,6,0,22,0,22,0,,,,,,,,,,,,,,,,,926.7040744000115,None,927.2713180999272,927.8714120001532,927.8551396999974,929.8553578001447,None,1,0.6125935099553317,2.612712109927088,increament,0.6,15,standard,None,100,,,,,,,,m,29,203,en,r,0,raw,2022-05-13_10h19.14.187,oddball,2022.1.2,59.94822867840358,
5,,,,,0,0,0,1,6,0,6,0,23,0,23,0,,,,,,,,,,,,,,,,,929.8722806000151,None,930.5560884000733,931.1561284000054,931.1397589000408,933.1401943999808,None,1,0.6095345101784915,2.609974310034886,increament,0.6,15,standard,None,100,,,,,,,,m,29,203,en,r,0,raw,2022-05-13_10h19.14.187,oddball,2022.1.2,59.94822867840358,
5,,,,,0,0,0,1,6,0,6,0,24,0,24,0,,,,,,,,,,,,,,,,,933.1567005999386,None,933.9734702999704,934.5739788999781,934.55738750007,936.5581197999418,None,1,0.6144404099322855,2.6152055100537837,increament,0.6,15,standard,None,100,,,,,,,,m,29,203,en,r,0,raw,2022-05-13_10h19.14.187,oddball,2022.1.2,59.94822867840358,
5,,,,,0,0,0,1,6,0,6,0,25,0,25,0,,,,,,,,,,,,,,,,,936.5746802000795,None,937.2416073000059,937.8414950999431,937.8252002000809,939.8263495001011,None,1,0.6137558098416775,2.6150037099141628,increament,0.6,15,standard,None,100,,,,,,,,m,29,203,en,r,0,raw,2022-05-13_10h19.14.187,oddball,2022.1.2,59.94822867840358,
5,,,,,0,0,0,1,6,0,6,0,26,0,26,0,,,,,,,,,,,,,,,,,939.843412999995,None,940.3932121000253,940.9929770000745,940.9762627000455,942.9768944999669,None,1,0.6085375098045915,2.6091454098932445,increament,0.6,15,standard,None,100,,,,,,,,m,29,203,en,r,0,raw,2022-05-13_10h19.14.187,oddball,2022.1.2,59.94822867840358,
5,,,,,0,0,0,1,6,0,6,0,27,0,27,0,,,,,,,,,,,,,,,,,942.9938962999731,None,943.677194799995,944.5275008999743,944.4941567999776,946.49483290012,None,0,0.8429648100864142,2.8436399102211,increament,0.84,17,oddball,j,140,,,,,,,,m,29,203,en,r,0,raw,2022-05-13_10h19.14.187,oddball,2022.1.2,59.94822867840358,
5,,,,,0,0,0,1,6,0,6,0,28,0,28,0,,,,,,,,,,,,,,,,,946.5117848999798,None,947.329172299942,947.9286692999303,947.9119730999228,949.9128368999809,None,1,0.6090998100116849,2.609954709885642,increament,0.6,15,standard,None,100,,,,,,,,m,29,203,en,r,0,raw,2022-05-13_10h19.14.187,oddball,2022.1.2,59.94822867840358,
5,,,,,0,0,0,1,6,0,6,0,29,0,29,0,,,,,,,,,,,,,,,,,949.9294745000079,None,950.4796351999976,951.0801769001409,951.0635814000852,953.0641537001356,j,0,0.6138360099866986,2.6143917101435363,increament,0.6,15,standard,None,100,0.4834582998882979,,,,,,,m,29,203,en,r,0,raw,2022-05-13_10h19.14.187,oddball,2022.1.2,59.94822867840358,
5,,,,,0,0,0,1,7,0,7,0,0,0,0,0,,,,,,,,,,,,,,,955.5695774001069,None,985.3096128001343,None,986.0765909999609,986.6770262999926,986.6599998001475,988.661073199939,None,1,0.6111700099427253,2.612326110014692,decreament,0.6,11,standard,None,100,,953.0809249000158,None,,,,,m,29,203,en,r,0,raw,2022-05-13_10h19.14.187,oddball,2022.1.2,59.94822867840358,
5,,,,,0,0,0,1,7,0,7,0,1,0,1,0,,,,,,,,,,,,,,,,,988.6774907000363,None,989.3777298000641,989.9781258001458,989.961646999931,991.9624757000711,None,1,0.6136924100574106,2.6145215099677444,decreament,0.6,11,standard,None,100,,,,,,,,m,29,203,en,r,0,raw,2022-05-13_10h19.14.187,oddball,2022.1.2,59.94822867840358,
5,,,,,0,0,0,1,7,0,7,0,2,0,2,0,,,,,,,,,,,,,,,,,991.978967100149,None,992.6129072001204,993.2129691001028,993.1962047000416,995.1969223001506,None,1,0.6097241099923849,2.6104469099082053,decreament,0.6,11,standard,None,100,,,,,,,,m,29,203,en,r,0,raw,2022-05-13_10h19.14.187,oddball,2022.1.2,59.94822867840358,
5,,,,,0,0,0,1,7,0,7,0,3,0,3,0,,,,,,,,,,,,,,,,,995.2144293999299,None,996.0471409000456,996.6476108999923,996.6308536999859,998.6315747001208,None,1,0.6136570100206882,2.6143757100217044,decreament,0.6,11,standard,None,100,,,,,,,,m,29,203,en,r,0,raw,2022-05-13_10h19.14.187,oddball,2022.1.2,59.94822867840358,
5,,,,,0,0,0,1,7,0,7,0,4,0,4,0,,,,,,,,,,,,,,,,,998.6483249999583,None,999.1650831999723,999.7650834999513,999.7487647000235,1001.7495262001175,None,1,0.6124416100792587,2.6132117100059986,decreament,0.6,11,standard,None,100,,,,,,,,m,29,203,en,r,0,raw,2022-05-13_10h19.14.187,oddball,2022.1.2,59.94822867840358,
5,,,,,0,0,0,1,7,0,7,0,5,0,5,0,,,,,,,,,,,,,,,,,1001.7658440000378,None,1002.3661766001023,1002.9663422999438,1002.9497142999899,1004.950569699984,None,1,0.6125641104299575,2.6135082102846354,decreament,0.6,11,standard,None,100,,,,,,,,m,29,203,en,r,0,raw,2022-05-13_10h19.14.187,oddball,2022.1.2,59.94822867840358,
5,,,,,0,0,0,1,7,0,7,0,6,0,6,0,,,,,,,,,,,,,,,,,1004.9669323000126,None,1005.7677664000075,1006.3678095000796,1006.3512939999346,1008.3515669000335,None,1,0.6108089098706841,2.611055709887296,decreament,0.6,11,standard,None,100,,,,,,,,m,29,203,en,r,0,raw,2022-05-13_10h19.14.187,oddball,2022.1.2,59.94822867840358,
5,,,,,0,0,0,1,7,0,7,0,7,0,7,0,,,,,,,,,,,,,,,,,1008.368543599965,None,1008.935261900071,1009.4189409001265,1009.3854982000776,1011.3860778000671,j,1,0.47972601000219584,2.4803206101059914,decreament,0.48,14,oddball,j,80,0.16915869992226362,,,,,,,m,29,203,en,r,0,raw,2022-05-13_10h19.14.187,oddball,2022.1.2,59.94822867840358,
5,,,,,0,0,0,1,7,0,7,0,8,0,8,0,,,,,,,,,,,,,,,,,1011.4029240000527,None,1011.9866303999443,1012.5867073999252,1012.569830799941,1014.571021300042,None,1,0.6118238097988069,2.61309990985319,decreament,0.6,11,standard,None,100,,,,,,,,m,29,203,en,r,0,raw,2022-05-13_10h19.14.187,oddball,2022.1.2,59.94822867840358,
5,,,,,0,0,0,1,7,0,7,0,9,0,9,0,,,,,,,,,,,,,,,,,1014.5873108999804,None,1015.1875458001159,1015.7875091999304,1015.7709669000469,1017.7722951001488,None,1,0.6133531099185348,2.6149819099809974,decreament,0.6,11,standard,None,100,,,,,,,,m,29,203,en,r,0,raw,2022-05-13_10h19.14.187,oddball,2022.1.2,59.94822867840358,
5,,,,,0,0,0,1,7,0,7,0,10,0,10,0,,,,,,,,,,,,,,,,,1017.790108300047,None,1018.572173899971,1019.172530699987,1019.1558421000373,1021.1568350000307,j,0,0.6136113097891212,2.614669509930536,decreament,0.6,11,standard,None,100,0.09525600005872548,,,,,,,m,29,203,en,r,0,raw,2022-05-13_10h19.14.187,oddball,2022.1.2,59.94822867840358,
5,,,,,0,0,0,1,7,0,7,0,11,0,11,0,,,,,,,,,,,,,,,,,1021.1731108000968,None,1021.8569406999741,1022.457362000132,1022.4405312000308,1024.441130100051,None,1,0.612919710110873,2.613519510254264,decreament,0.6,11,standard,None,100,,,,,,,,m,29,203,en,r,0,raw,2022-05-13_10h19.14.187,oddball,2022.1.2,59.94822867840358,
5,,,,,0,0,0,1,7,0,7,0,12,0,12,0,,,,,,,,,,,,,,,,,1024.4578190001193,None,1025.0417009000666,1025.2918019001372,1025.2583103999496,1027.258814400062,j,1,0.24252161011099815,2.2430098101031035,decreament,0.24,12,oddball,j,40,0.6406931998208165,,,,,,,m,29,203,en,r,0,raw,2022-05-13_10h19.14.187,oddball,2022.1.2,59.94822867840358,
5,,,,,0,0,0,1,7,0,7,0,13,0,13,0,,,,,,,,,,,,,,,,,1027.2753324001096,None,1027.8260363999289,1028.4260591000784,1028.4094180001412,1030.410117899999,None,1,0.6114134099334478,2.6121069099754095,decreament,0.6,11,standard,None,100,,,,,,,,m,29,203,en,r,0,raw,2022-05-13_10h19.14.187,oddball,2022.1.2,59.94822867840358,
5,,,,,0,0,0,1,7,0,7,0,14,0,14,0,,,,,,,,,,,,,,,,,1030.4268470001407,None,1031.0770362999756,1031.6777876999695,1031.6606835999992,1033.6615148999263,None,1,0.6109671099111438,2.6118137100711465,decreament,0.6,11,standard,None,100,,,,,,,,m,29,203,en,r,0,raw,2022-05-13_10h19.14.187,oddball,2022.1.2,59.94822867840358,
5,,,,,0,0,0,1,7,0,7,0,15,0,15,0,,,,,,,,,,,,,,,,,1033.6780679000076,None,1034.2449336000718,1034.8452212000266,1034.8287973999977,1036.829692899948,j,0,0.6130102099850774,2.6139316100161523,decreament,0.6,11,standard,None,100,0.14246639981865883,,,,,,,m,29,203,en,r,0,raw,2022-05-13_10h19.14.187,oddball,2022.1.2,59.94822867840358,
5,,,,,0,0,0,1,7,0,7,0,16,0,16,0,,,,,,,,,,,,,,,,,1036.847449199995,None,1037.4793322000187,1038.0796279001515,1038.0630350001156,1040.0636291000992,None,1,0.6119129098951817,2.612504009855911,decreament,0.6,11,standard,None,100,,,,,,,,m,29,203,en,r,0,raw,2022-05-13_10h19.14.187,oddball,2022.1.2,59.94822867840358,
5,,,,,0,0,0,1,7,0,7,0,17,0,17,0,,,,,,,,,,,,,,,,,1040.080551299965,None,1040.5977463999297,1041.197837700136,1041.181408799952,1043.181576800067,None,1,0.6098509102594107,2.6099790101870894,decreament,0.6,11,standard,None,100,,,,,,,,m,29,203,en,r,0,raw,2022-05-13_10h19.14.187,oddball,2022.1.2,59.94822867840358,
5,,,,,0,0,0,1,7,0,7,0,18,0,18,0,,,,,,,,,,,,,,,,,1043.1984641000163,None,1043.9484675000422,1044.5487327000592,1044.5326132001355,1046.5327240999322,None,1,0.6132915099151433,2.613344609970227,decreament,0.6,11,standard,None,100,,,,,,,,m,29,203,en,r,0,raw,2022-05-13_10h19.14.187,oddball,2022.1.2,59.94822867840358,
5,,,,,0,0,0,1,7,0,7,0,19,0,19,0,,,,,,,,,,,,,,,,,1046.549483400071,None,1047.1662975000218,1047.7665804999415,1047.7501570000313,1049.750852999976,None,1,0.6128632097970694,2.613575709750876,decreament,0.6,11,standard,None,100,,,,,,,,m,29,203,en,r,0,raw,2022-05-13_10h19.14.187,oddball,2022.1.2,59.94822867840358,
5,,,,,0,0,0,1,7,0,7,0,20,0,20,0,,,,,,,,,,,,,,,,,1049.7673736999277,None,1050.3175608001184,1050.9175863999408,1050.9010867001489,1052.9021638999693,None,1,0.6139867100864649,2.6151538100093603,decreament,0.6,11,standard,None,100,,,,,,,,m,29,203,en,r,0,raw,2022-05-13_10h19.14.187,oddball,2022.1.2,59.94822867840358,
5,,,,,0,0,0,1,7,0,7,0,21,0,21,0,,,,,,,,,,,,,,,,,1052.9189450999256,None,1053.5020793001167,1054.102385800099,1054.0858159000054,1056.086293300148,j,0,0.6128474103752524,2.613295510178432,decreament,0.6,11,standard,None,100,0.05220559984445572,,,,,,,m,29,203,en,r,0,raw,2022-05-13_10h19.14.187,oddball,2022.1.2,59.94822867840358,
5,,,,,0,0,0,1,7,0,7,0,22,0,22,0,,,,,,,,,,,,,,,,,1056.1030330001377,None,1056.7198910000734,1057.3203108001035,1057.3037026000675,1059.3048636000603,None,1,0.6135251100640744,2.6147585101425648,decreament,0.6,11,standard,None,100,,,,,,,,m,29,203,en,r,0,raw,2022-05-13_10h19.14.187,oddball,2022.1.2,59.94822867840358,
5,,,,,0,0,0,1,7,0,7,0,23,0,23,0,,,,,,,,,,,,,,,,,1059.3208725999575,None,1059.8713969001547,1060.4714951000642,1060.4547208999284,1062.4556529999245,None,1,0.6092632100917399,2.610222710063681,decreament,0.6,11,standard,None,100,,,,,,,,m,29,203,en,r,0,raw,2022-05-13_10h19.14.187,oddball,2022.1.2,59.94822867840358,
5,,,,,0,0,0,1,7,0,7,0,24,0,24,0,,,,,,,,,,,,,,,,,1062.4723299001344,None,1063.0393755999394,1063.6392000000924,1063.622501899954,1065.624059899943,None,1,0.6107708099298179,2.61239091004245,decreament,0.6,11,standard,None,100,,,,,,,,m,29,203,en,r,0,raw,2022-05-13_10h19.14.187,oddball,2022.1.2,59.94822867840358,
5,,,,,0,0,0,1,7,0,7,0,25,0,25,0,,,,,,,,,,,,,,,,,1065.63998420001,None,1066.2408495000564,1066.8403809000738,1066.824205599958,1068.8245673000347,None,1,0.610824909992516,2.6112340099643916,decreament,0.6,11,standard,None,100,,,,,,,,m,29,203,en,r,0,raw,2022-05-13_10h19.14.187,oddball,2022.1.2,59.94822867840358,
5,,,,,0,0,0,1,7,0,7,0,26,0,26,0,,,,,,,,,,,,,,,,,1068.841386300046,None,1069.4079617001116,1070.0088405001443,1069.992086299928,1071.9925846999977,j,0,0.6152795101515949,2.615746509982273,decreament,0.6,11,standard,None,100,0.16259510000236332,,,,,,,m,29,203,en,r,0,raw,2022-05-13_10h19.14.187,oddball,2022.1.2,59.94822867840358,
5,,,,,0,0,0,1,7,0,7,0,27,0,27,0,,,,,,,,,,,,,,,,,1072.0093312999234,None,1072.7263108000625,1073.0926908999681,1073.0599372000434,1075.060290500056,None,0,0.36044031009078026,2.360726210055873,decreament,0.36,13,oddball,j,60,,,,,,,,m,29,203,en,r,0,raw,2022-05-13_10h19.14.187,oddball,2022.1.2,59.94822867840358,
5,,,,,0,0,0,1,7,0,7,0,28,0,28,0,,,,,,,,,,,,,,,,,1075.0770276000258,None,1075.7607106999494,1076.3610644000582,1076.3444187999703,1078.345281700138,None,1,0.6126464102417231,2.6134911100380123,decreament,0.6,11,standard,None,100,,,,,,,,m,29,203,en,r,0,raw,2022-05-13_10h19.14.187,oddball,2022.1.2,59.94822867840358,
5,,,,,0,0,0,1,7,0,7,0,29,0,29,0,,,,,,,,,,,,,,,,,1078.361702100141,None,1079.061864099931,1079.6619533000048,1079.645477199927,1081.6460653000977,None,1,0.6137707100715488,2.6143429100047797,decreament,0.6,11,standard,None,100,,,,,,,,m,29,203,en,r,0,raw,2022-05-13_10h19.14.187,oddball,2022.1.2,59.94822867840358,
5,,,,,0,0,0,1,8,0,8,0,0,0,0,0,,,,,,,,,,,,,,,1090.810701600043,None,1095.0680768999737,None,1095.7348084999248,1096.3351060000714,1096.3183150999248,1098.3191633999813,None,1,0.6129287099465728,2.613774409983307,increament,0.6,15,standard,None,100,,1081.663097300101,None,,,,,m,29,203,en,r,0,raw,2022-05-13_10h19.14.187,oddball,2022.1.2,59.94822867840358,
5,,,,,0,0,0,1,8,0,8,0,1,0,1,0,,,,,,,,,,,,,,,,,1098.3359588999301,None,1099.0695251999423,1099.6695515001193,1099.6529417999554,1101.6539894000161,None,1,0.6094331098720431,2.6105587100610137,increament,0.6,15,standard,None,100,,,,,,,,m,29,203,en,r,0,raw,2022-05-13_10h19.14.187,oddball,2022.1.2,59.94822867840358,
5,,,,,0,0,0,1,8,0,8,0,2,0,2,0,,,,,,,,,,,,,,,,,1101.6709243999794,None,1102.3041465000715,1102.9044999000616,1102.8877207001206,1104.8885091999546,None,1,0.6109185102395713,2.6116756103001535,increament,0.6,15,standard,None,100,,,,,,,,m,29,203,en,r,0,raw,2022-05-13_10h19.14.187,oddball,2022.1.2,59.94822867840358,
5,,,,,0,0,0,1,8,0,8,0,3,0,3,0,,,,,,,,,,,,,,,,,1104.9050895001274,None,1105.4884319999255,1106.0894194000866,1106.0723534999415,1108.0729481000453,None,1,0.6132300100289285,2.6138241100125015,increament,0.6,15,standard,None,100,,,,,,,,m,29,203,en,r,0,raw,2022-05-13_10h19.14.187,oddball,2022.1.2,59.94822867840358,
5,,,,,0,0,0,1,8,0,8,0,4,0,4,0,,,,,,,,,,,,,,,,,1108.0893926999997,None,1108.706247900147,1109.306600900134,1109.2901364001445,1111.2911779000424,None,1,0.6133357100188732,2.614445110084489,increament,0.6,15,standard,None,100,,,,,,,,m,29,203,en,r,0,raw,2022-05-13_10h19.14.187,oddball,2022.1.2,59.94822867840358,
5,,,,,0,0,0,1,8,0,8,0,5,0,5,0,,,,,,,,,,,,,,,,,1111.3079701999668,None,1112.0746081001125,1112.6747173001058,1112.6584894000553,1114.6587048000656,None,1,0.6091284099966288,2.60928291012533,increament,0.6,15,standard,None,100,,,,,,,,m,29,203,en,r,0,raw,2022-05-13_10h19.14.187,oddball,2022.1.2,59.94822867840358,
5,,,,,0,0,0,1,8,0,8,0,6,0,6,0,,,,,,,,,,,,,,,,,1114.6751516000368,None,1115.3255354999565,1115.925833699992,1115.9090190001298,1117.9104323000647,None,1,0.6133896100800484,2.6148881101980805,increament,0.6,15,standard,None,100,,,,,,,,m,29,203,en,r,0,raw,2022-05-13_10h19.14.187,oddball,2022.1.2,59.94822867840358,
5,,,,,0,0,0,1,8,0,8,0,7,0,7,0,,,,,,,,,,,,,,,,,1117.9266727999784,None,1118.5935562001541,1119.1937090000138,1119.1772320999298,1121.1781512000598,None,1,0.6135719099547714,2.6145595100242645,increament,0.6,15,standard,None,100,,,,,,,,m,29,203,en,r,0,raw,2022-05-13_10h19.14.187,oddball,2022.1.2,59.94822867840358,
5,,,,,0,0,0,1,8,0,8,0,8,0,8,0,,,,,,,,,,,,,,,,,1121.1943779001012,None,1121.8117502001114,1122.4114310999867,1122.3949591999408,1124.3956345999613,None,1,0.6120173099916428,2.612742709927261,increament,0.6,15,standard,None,100,,,,,,,,m,29,203,en,r,0,raw,2022-05-13_10h19.14.187,oddball,2022.1.2,59.94822867840358,
5,,,,,0,0,0,1,8,0,8,0,9,0,9,0,,,,,,,,,,,,,,,,,1124.4126776000485,None,1125.0461881000083,1125.645875300048,1125.6296427999623,1127.6304457001388,None,1,0.6102011101320386,2.611081310082227,increament,0.6,15,standard,None,100,,,,,,,,m,29,203,en,r,0,raw,2022-05-13_10h19.14.187,oddball,2022.1.2,59.94822867840358,
5,,,,,0,0,0,1,8,0,8,0,10,0,10,0,,,,,,,,,,,,,,,,,1127.6478120000102,None,1128.3476048000157,1128.9474539000075,1128.9309191999491,1130.9314590999857,None,1,0.6094903098419309,2.609972909791395,increament,0.6,15,standard,None,100,,,,,,,,m,29,203,en,r,0,raw,2022-05-13_10h19.14.187,oddball,2022.1.2,59.94822867840358,
5,,,,,0,0,0,1,8,0,8,0,11,0,11,0,,,,,,,,,,,,,,,,,1130.9481202000752,None,1131.7318605999462,1132.3318670999724,1132.315356099978,1134.315899899928,None,1,0.6125404101330787,2.6130584101192653,increament,0.6,15,standard,None,100,,,,,,,,m,29,203,en,r,0,raw,2022-05-13_10h19.14.187,oddball,2022.1.2,59.94822867840358,
5,,,,,0,0,0,1,8,0,8,0,12,0,12,0,,,,,,,,,,,,,,,,,1134.3327439001296,None,1134.9163198000751,1135.5164543001447,1135.5000931001268,1137.5005218000151,None,1,0.6124523100443184,2.612887510098517,increament,0.6,15,standard,None,100,,,,,,,,m,29,203,en,r,0,raw,2022-05-13_10h19.14.187,oddball,2022.1.2,59.94822867840358,
5,,,,,0,0,0,1,8,0,8,0,13,0,13,0,,,,,,,,,,,,,,,,,1137.5176703000907,None,1138.1343570000026,1138.7346541001461,1138.7180872000754,1140.7189718999434,None,1,0.6110963099636137,2.6120458100922406,increament,0.6,15,standard,None,100,,,,,,,,m,29,203,en,r,0,raw,2022-05-13_10h19.14.187,oddball,2022.1.2,59.94822867840358,
5,,,,,0,0,0,1,8,0,8,0,14,0,14,0,,,,,,,,,,,,,,,,,1140.7350542000495,None,1141.4520610999316,1142.0524510000832,1142.0357812999282,1144.0363624000456,None,1,0.6127687101252377,2.61336001008749,increament,0.6,15,standard,None,100,,,,,,,,m,29,203,en,r,0,raw,2022-05-13_10h19.14.187,oddball,2022.1.2,59.94822867840358,
5,,,,,0,0,0,1,8,0,8,0,15,0,15,0,,,,,,,,,,,,,,,,,1144.0533787999302,None,1144.7033357999753,1145.3040132001042,1145.2873627999797,1147.2876281000208,None,1,0.6134724102448672,2.6136191103141755,increament,0.6,15,standard,None,100,,,,,,,,m,29,203,en,r,0,raw,2022-05-13_10h19.14.187,oddball,2022.1.2,59.94822867840358,
5,,,,,0,0,0,1,8,0,8,0,16,0,16,0,,,,,,,,,,,,,,,,,1147.3041894999333,None,1147.8380420000758,1148.8050410000142,1148.7716121999547,1150.7722138001118,None,0,0.9594923101831228,2.9600935101043433,increament,0.96,18,oddball,j,160,,,,,,,,m,29,203,en,r,0,raw,2022-05-13_10h19.14.187,oddball,2022.1.2,59.94822867840358,
5,,,,,0,0,0,1,8,0,8,0,17,0,17,0,,,,,,,,,,,,,,,,,1150.7890501001384,None,1151.4058620000724,1152.0064888999332,1151.9896698000375,1153.9905669,None,1,0.6126035100314766,2.613540309946984,increament,0.6,15,standard,None,100,,,,,,,,m,29,203,en,r,0,raw,2022-05-13_10h19.14.187,oddball,2022.1.2,59.94822867840358,
5,,,,,0,0,0,1,8,0,8,0,18,0,18,0,,,,,,,,,,,,,,,,,1154.0076168000232,None,1154.6574484999292,1155.2573508999776,1155.2408445000183,1157.2416073000059,None,1,0.6114344100933522,2.6122625099960715,increament,0.6,15,standard,None,100,,,,,,,,m,29,203,en,r,0,raw,2022-05-13_10h19.14.187,oddball,2022.1.2,59.94822867840358,
5,,,,,0,0,0,1,8,0,8,0,19,0,19,0,,,,,,,,,,,,,,,,,1157.2587425000966,None,1157.8254603000823,1158.425167700043,1158.4087646000553,1160.4094869000837,None,1,0.6113794101402164,2.6121421102434397,increament,0.6,15,standard,None,100,,,,,,,,m,29,203,en,r,0,raw,2022-05-13_10h19.14.187,oddball,2022.1.2,59.94822867840358,
5,,,,,0,0,0,1,8,0,8,0,20,0,20,0,,,,,,,,,,,,,,,,,1160.426188700134,None,1161.1598734001163,1161.759944499936,1161.7435194000136,1163.7443695999682,None,1,0.6108586098998785,2.6117179098073393,increament,0.6,15,standard,None,100,,,,,,,,m,29,203,en,r,0,raw,2022-05-13_10h19.14.187,oddball,2022.1.2,59.94822867840358,
5,,,,,0,0,0,1,8,0,8,0,21,0,21,0,,,,,,,,,,,,,,,,,1163.7615523999557,None,1164.310723300092,1164.9107860999648,1164.8946414999664,1166.8950585999992,None,1,0.6125348098576069,2.612964709987864,increament,0.6,15,standard,None,100,,,,,,,,m,29,203,en,r,0,raw,2022-05-13_10h19.14.187,oddball,2022.1.2,59.94822867840358,
5,,,,,0,0,0,1,8,0,8,0,22,0,22,0,,,,,,,,,,,,,,,,,1166.911805700045,None,1167.4624928999692,1168.0621301000938,1168.045703300042,1170.0466775000095,None,1,0.6113337099086493,2.6123638097196817,increament,0.6,15,standard,None,100,,,,,,,,m,29,203,en,r,0,raw,2022-05-13_10h19.14.187,oddball,2022.1.2,59.94822867840358,
5,,,,,0,0,0,1,8,0,8,0,23,0,23,0,,,,,,,,,,,,,,,,,1170.0642669000663,None,1170.6298982000444,1171.4799820999615,1171.4473775001243,1173.447514000116,None,0,0.8472191102337092,2.847280210116878,increament,0.84,17,oddball,j,140,,,,,,,,m,29,203,en,r,0,raw,2022-05-13_10h19.14.187,oddball,2022.1.2,59.94822867840358,
5,,,,,0,0,0,1,8,0,8,0,24,0,24,0,,,,,,,,,,,,,,,,,1173.4645170001313,None,1174.131185400067,1174.7315978000406,1174.71516719996,1176.7155587000307,None,1,0.6129165100865066,2.6132574102375656,increament,0.6,15,standard,None,100,,,,,,,,m,29,203,en,r,0,raw,2022-05-13_10h19.14.187,oddball,2022.1.2,59.94822867840358,
5,,,,,0,0,0,1,8,0,8,0,25,0,25,0,,,,,,,,,,,,,,,,,1176.7323125000112,None,1177.349203000078,1177.9491435000673,1177.9328914000653,1179.9333532999735,None,1,0.6096661100164056,2.610087309964001,increament,0.6,15,standard,None,100,,,,,,,,m,29,203,en,r,0,raw,2022-05-13_10h19.14.187,oddball,2022.1.2,59.94822867840358,
5,,,,,0,0,0,1,8,0,8,0,26,0,26,0,,,,,,,,,,,,,,,,,1179.9498441999312,None,1180.517019300023,1181.117071500048,1181.1004031000193,1183.1016538999975,None,1,0.6138801099732518,2.615176809951663,increament,0.6,15,standard,None,100,,,,,,,,m,29,203,en,r,0,raw,2022-05-13_10h19.14.187,oddball,2022.1.2,59.94822867840358,
5,,,,,0,0,0,1,8,0,8,0,27,0,27,0,,,,,,,,,,,,,,,,,1183.1179774000775,None,1183.818028199952,1184.552128399955,1184.5185883000959,1186.5190181999933,None,0,0.7303848103620112,2.73076961026527,increament,0.72,16,oddball,j,120,,,,,,,,m,29,203,en,r,0,raw,2022-05-13_10h19.14.187,oddball,2022.1.2,59.94822867840358,
5,,,,,0,0,0,1,8,0,8,0,28,0,28,0,,,,,,,,,,,,,,,,,1186.5356578000356,None,1187.2529498999938,1187.8532434999943,1187.8366920999251,1189.8373046999332,None,1,0.6137069100514054,2.614321910077706,increament,0.6,15,standard,None,100,,,,,,,,m,29,203,en,r,0,raw,2022-05-13_10h19.14.187,oddball,2022.1.2,59.94822867840358,
5,,,,,0,0,0,1,8,0,8,0,29,0,29,0,,,,,,,,,,,,,,,,,1189.854326199973,None,1190.55436119996,1191.1541043999605,1191.137837300077,1193.1383247999474,None,1,0.6091802101582289,2.609667210141197,increament,0.6,15,standard,None,100,,,,,,,,m,29,203,en,r,0,raw,2022-05-13_10h19.14.187,oddball,2022.1.2,59.94822867840358,
5,,,,,0,0,0,1,9,0,9,0,0,0,0,0,,,,,,,,,,,,,,,1203.1421177999582,None,1207.6937726000324,None,1208.3943004000466,1208.9943580001127,1208.9779439000413,1210.9786716999952,None,1,0.6108948099426925,2.6116884099319577,decreament,0.6,11,standard,None,100,,1193.1553207000252,None,,,,,m,29,203,en,r,0,raw,2022-05-13_10h19.14.187,oddball,2022.1.2,59.94822867840358,
5,,,,,0,0,0,1,9,0,9,0,1,0,1,0,,,,,,,,,,,,,,,,,1210.9951510000974,None,1211.5955843999982,1212.1958328001201,1212.1793226001319,1214.1797269999515,None,1,0.6112251100130379,2.611648310208693,decreament,0.6,11,standard,None,100,,,,,,,,m,29,203,en,r,0,raw,2022-05-13_10h19.14.187,oddball,2022.1.2,59.94822867840358,
5,,,,,0,0,0,1,9,0,9,0,2,0,2,0,,,,,,,,,,,,,,,,,1214.1965348999947,None,1214.8631915000733,1215.4634555999655,1215.4470170000568,1217.4477057000622,None,1,0.6103578100446612,2.611073010135442,decreament,0.6,11,standard,None,100,,,,,,,,m,29,203,en,r,0,raw,2022-05-13_10h19.14.187,oddball,2022.1.2,59.94822867840358,
5,,,,,0,0,0,1,9,0,9,0,3,0,3,0,,,,,,,,,,,,,,,,,1217.4642296999227,None,1218.0477396999486,1218.6484114001505,1218.6313432999887,1220.6319848999847,None,1,0.6125453098211437,2.613184310030192,decreament,0.6,11,standard,None,100,,,,,,,,m,29,203,en,r,0,raw,2022-05-13_10h19.14.187,oddball,2022.1.2,59.94822867840358,
5,,,,,0,0,0,1,9,0,9,0,4,0,4,0,,,,,,,,,,,,,,,,,1220.6490237000398,None,1221.34900450008,1221.9490839000791,1221.9326710000169,1223.9331479999237,None,1,0.6137173103634268,2.6141734102275223,decreament,0.6,11,standard,None,100,,,,,,,,m,29,203,en,r,0,raw,2022-05-13_10h19.14.187,oddball,2022.1.2,59.94822867840358,
5,,,,,0,0,0,1,9,0,9,0,5,0,5,0,,,,,,,,,,,,,,,,,1223.950043400051,None,1224.6835980000906,1224.9337677999865,1224.900326800067,1226.9010459999554,j,1,0.24569970997981727,2.246420910116285,decreament,0.24,12,oddball,j,40,0.893419899744913,,,,,,,m,29,203,en,r,0,raw,2022-05-13_10h19.14.187,oddball,2022.1.2,59.94822867840358,
5,,,,,0,0,0,1,9,0,9,0,6,0,6,0,,,,,,,,,,,,,,,,,1226.9181538000703,None,1227.5350822999608,1228.134970900137,1228.1184555001091,1230.118938599946,None,1,0.612661010120064,2.613140210043639,decreament,0.6,11,standard,None,100,,,,,,,,m,29,203,en,r,0,raw,2022-05-13_10h19.14.187,oddball,2022.1.2,59.94822867840358,
5,,,,,0,0,0,1,9,0,9,0,7,0,7,0,,,,,,,,,,,,,,,,,1230.1356733001303,None,1230.93646300002,1231.536453000037,1231.519617000129,1233.5209937000182,None,1,0.6125586100388318,2.614023410016671,decreament,0.6,11,standard,None,100,,,,,,,,m,29,203,en,r,0,raw,2022-05-13_10h19.14.187,oddball,2022.1.2,59.94822867840358,
5,,,,,0,0,0,1,9,0,9,0,8,0,8,0,,,,,,,,,,,,,,,,,1233.5368588999845,None,1234.2373391999863,1234.8377092999872,1234.8208900999743,1236.821507500019,j,0,0.6128167097922415,2.6134444097988307,decreament,0.6,11,standard,None,100,0.38933699973858893,,,,,,,m,29,203,en,r,0,raw,2022-05-13_10h19.14.187,oddball,2022.1.2,59.94822867840358,
5,,,,,0,0,0,1,9,0,9,0,9,0,9,0,,,,,,,,,,,,,,,,,1236.8384966999292,None,1237.5220266999677,1238.1223041000776,1238.1060603000224,1240.1059946999885,None,1,0.6112922101747245,2.6110880100168288,decreament,0.6,11,standard,None,100,,,,,,,,m,29,203,en,r,0,raw,2022-05-13_10h19.14.187,oddball,2022.1.2,59.94822867840358,
5,,,,,0,0,0,1,9,0,9,0,10,0,10,0,,,,,,,,,,,,,,,,,1240.1227889000438,None,1240.8402201000135,1241.439881700091,1241.4236566999462,1243.42404860002,j,0,0.6101295100525022,2.610499909846112,decreament,0.6,11,standard,None,100,0.7466745998244733,,,,,,,m,29,203,en,r,0,raw,2022-05-13_10h19.14.187,oddball,2022.1.2,59.94822867840358,
5,,,,,0,0,0,1,9,0,9,0,11,0,11,0,,,,,,,,,,,,,,,,,1243.440823199926,None,1244.0581132001244,1244.6579885999672,1244.641662799986,1246.6421519999858,None,1,0.6100378099363297,2.6101492100860924,decreament,0.6,11,standard,None,100,,,,,,,,m,29,203,en,r,0,raw,2022-05-13_10h19.14.187,oddball,2022.1.2,59.94822867840358,
5,,,,,0,0,0,1,9,0,9,0,12,0,12,0,,,,,,,,,,,,,,,,,1246.658594300039,None,1247.2756070999894,1247.875644300133,1247.8590315999463,1249.8598677001428,None,1,0.6121262100059539,2.612976710079238,decreament,0.6,11,standard,None,100,,,,,,,,m,29,203,en,r,0,raw,2022-05-13_10h19.14.187,oddball,2022.1.2,59.94822867840358,
5,,,,,0,0,0,1,9,0,9,0,13,0,13,0,,,,,,,,,,,,,,,,,1249.8766042999923,None,1250.5600712001324,1251.1602022999432,1251.143994800048,1253.1443163999356,None,1,0.61462861020118,2.614910810254514,decreament,0.6,11,standard,None,100,,,,,,,,m,29,203,en,r,0,raw,2022-05-13_10h19.14.187,oddball,2022.1.2,59.94822867840358,
5,,,,,0,0,0,1,9,0,9,0,14,0,14,0,,,,,,,,,,,,,,,,,1253.1611161001492,None,1253.778524100082,1254.262165500084,1254.2448655001353,1256.2458071999718,j,1,0.49266200978308916,2.4936628099530935,decreament,0.48,14,oddball,j,80,0.6616520998068154,,,,,,,m,29,203,en,r,0,raw,2022-05-13_10h19.14.187,oddball,2022.1.2,59.94822867840358,
5,,,,,0,0,0,1,9,0,9,0,15,0,15,0,,,,,,,,,,,,,,,,,1256.2621268001385,None,1257.045467399992,1257.6460897000507,1257.6129795000888,1259.6139744999819,None,1,0.5990586101543158,2.6001425101421773,decreament,0.6,11,standard,None,100,,,,,,,,m,29,203,en,r,0,raw,2022-05-13_10h19.14.187,oddball,2022.1.2,59.94822867840358,
5,,,,,0,0,0,1,9,0,9,0,16,0,16,0,,,,,,,,,,,,,,,,,1259.631359500112,None,1260.197579700034,1260.7972057999577,1260.7806436999235,1262.7816433000844,None,1,0.6096432101912796,2.610653310082853,decreament,0.6,11,standard,None,100,,,,,,,,m,29,203,en,r,0,raw,2022-05-13_10h19.14.187,oddball,2022.1.2,59.94822867840358,
5,,,,,0,0,0,1,9,0,9,0,17,0,17,0,,,,,,,,,,,,,,,,,1262.7983752000146,None,1263.5149884999264,1264.1152641000226,1264.0987871999387,1266.0993695000652,None,1,0.6133777101058513,2.6139738101046532,decreament,0.6,11,standard,None,100,,,,,,,,m,29,203,en,r,0,raw,2022-05-13_10h19.14.187,oddball,2022.1.2,59.94822867840358,
5,,,,,0,0,0,1,9,0,9,0,18,0,18,0,,,,,,,,,,,,,,,,,1266.1162008999381,None,1266.799740999937,1267.399931800086,1267.3830645999406,1269.3838696000166,None,1,0.6092408101540059,2.6100177101325244,decreament,0.6,11,standard,None,100,,,,,,,,m,29,203,en,r,0,raw,2022-05-13_10h19.14.187,oddball,2022.1.2,59.94822867840358,
5,,,,,0,0,0,1,9,0,9,0,19,0,19,0,,,,,,,,,,,,,,,,,1269.4007359000389,None,1270.167548000114,1270.7679256000556,1270.751338900067,1272.7522033001296,j,0,0.6116583100520074,2.612556610023603,decreament,0.6,11,standard,None,100,0.16312409983947873,,,,,,,m,29,203,en,r,0,raw,2022-05-13_10h19.14.187,oddball,2022.1.2,59.94822867840358,
5,,,,,0,0,0,1,9,0,9,0,20,0,20,0,,,,,,,,,,,,,,,,,1272.7683504000306,None,1273.3689925000072,1273.9692025000695,1273.9525977000594,1275.9530289000832,None,1,0.6123796100728214,2.612754210131243,decreament,0.6,11,standard,None,100,,,,,,,,m,29,203,en,r,0,raw,2022-05-13_10h19.14.187,oddball,2022.1.2,59.94822867840358,
5,,,,,0,0,0,1,9,0,9,0,21,0,21,0,,,,,,,,,,,,,,,,,1275.9698761999607,None,1276.5865937999915,1277.1867535000201,1277.1703685000539,1279.171160500031,None,1,0.6123248101212084,2.61318861017935,decreament,0.6,11,standard,None,100,,,,,,,,m,29,203,en,r,0,raw,2022-05-13_10h19.14.187,oddball,2022.1.2,59.94822867840358,
5,,,,,0,0,0,1,9,0,9,0,22,0,22,0,,,,,,,,,,,,,,,,,1279.1875559000764,None,1279.8379323000554,1280.4382497000042,1280.421907100128,1282.422273900127,None,1,0.6134928101673722,2.613793710246682,decreament,0.6,11,standard,None,100,,,,,,,,m,29,203,en,r,0,raw,2022-05-13_10h19.14.187,oddball,2022.1.2,59.94822867840358,
5,,,,,0,0,0,1,9,0,9,0,23,0,23,0,,,,,,,,,,,,,,,,,1282.4388592999894,None,1283.105949100107,1283.7067869000603,1283.689357999945,1285.6900081001222,None,1,0.6130839099641889,2.6136922100558877,decreament,0.6,11,standard,None,100,,,,,,,,m,29,203,en,r,0,raw,2022-05-13_10h19.14.187,oddball,2022.1.2,59.94822867840358,
5,,,,,0,0,0,1,9,0,9,0,24,0,24,0,,,,,,,,,,,,,,,,,1285.706727999961,None,1286.4074158000294,1287.0070520001464,1286.9904666999355,1288.991467700107,None,1,0.6092474099714309,2.6103051099926233,decreament,0.6,11,standard,None,100,,,,,,,,m,29,203,en,r,0,raw,2022-05-13_10h19.14.187,oddball,2022.1.2,59.94822867840358,
5,,,,,0,0,0,1,9,0,9,0,25,0,25,0,,,,,,,,,,,,,,,,,1289.0081224001478,None,1289.8250472999644,1290.424994100118,1290.4087867001072,1292.4092316001188,None,1,0.6115811101626605,2.612018210114911,decreament,0.6,11,standard,None,100,,,,,,,,m,29,203,en,r,0,raw,2022-05-13_10h19.14.187,oddball,2022.1.2,59.94822867840358,
5,,,,,0,0,0,1,9,0,9,0,26,0,26,0,,,,,,,,,,,,,,,,,1292.4258282999508,None,1293.1599531001411,1293.526166799944,1293.5100084999576,1295.510431200033,j,1,0.37490560999140143,2.375328310066834,decreament,0.36,13,oddball,j,60,0.16418689978308976,,,,,,,m,29,203,en,r,0,raw,2022-05-13_10h19.14.187,oddball,2022.1.2,59.94822867840358,
5,,,,,0,0,0,1,9,0,9,0,27,0,27,0,,,,,,,,,,,,,,,,,1295.5270293001086,None,1296.1942046000622,1296.7942641000263,1296.7779600999784,1298.778529500123,None,1,0.6127593098208308,2.613356809830293,decreament,0.6,11,standard,None,100,,,,,,,,m,29,203,en,r,0,raw,2022-05-13_10h19.14.187,oddball,2022.1.2,59.94822867840358,
5,,,,,0,0,0,1,9,0,9,0,28,0,28,0,,,,,,,,,,,,,,,,,1298.7951961001381,None,1299.4121284000576,1300.012523100013,1299.9954353999346,1301.9966007000767,None,1,0.6121943099424243,2.613476609811187,decreament,0.6,11,standard,None,100,,,,,,,,m,29,203,en,r,0,raw,2022-05-13_10h19.14.187,oddball,2022.1.2,59.94822867840358,
5,,,,,0,0,0,1,9,0,9,0,29,0,29,0,,,,,,,,,,,,,,,,,1302.013127299957,None,1302.6301438999362,1303.2304450001102,1303.2135743999388,1305.2140896001365,None,1,0.6093156100250781,2.6097939100582153,decreament,0.6,11,standard,None,100,,,,,,,,m,29,203,en,r,0,raw,2022-05-13_10h19.14.187,oddball,2022.1.2,59.94822867840358,
10,,,,,0,1,1,2,0,0,0,0,0,0,0,0,,,,,,,,,,,,,,,1495.7594614999834,None,1504.4228489000816,None,1505.023362700129,1505.6235585999675,1505.6068822001107,1507.6072837000247,None,1,0.6095170099288225,2.609875210095197,increament,0.6,25,standard,None,100,,1485.2495629000477,None,1305.2413487001322,None,,,m,29,203,en,r,0,raw,2022-05-13_10h19.14.187,oddball,2022.1.2,59.94822867840358,
10,,,,,0,1,1,2,0,0,0,0,1,0,1,0,,,,,,,,,,,,,,,,,1507.6242786999792,None,1508.1413753000088,1508.741897100117,1508.7248621000908,1510.7256557999644,None,1,0.6112611098214984,2.6121231098659337,increament,0.6,25,standard,None,100,,,,,,,,m,29,203,en,r,0,raw,2022-05-13_10h19.14.187,oddball,2022.1.2,59.94822867840358,
10,,,,,0,1,1,2,0,0,0,0,2,0,2,0,,,,,,,,,,,,,,,,,1510.742237500148,None,1511.3926804999355,1511.9927483000793,1511.9759669001214,1513.9771298000123,None,1,0.6107360098976642,2.6119170100428164,increament,0.6,25,standard,None,100,,,,,,,,m,29,203,en,r,0,raw,2022-05-13_10h19.14.187,oddball,2022.1.2,59.94822867840358,
10,,,,,0,1,1,2,0,0,0,0,3,0,3,0,,,,,,,,,,,,,,,,,1513.9938163999468,None,1514.626917900052,1515.2269493001513,1515.21077720006,1517.210965699982,None,1,0.6117483100388199,2.6118508100043982,increament,0.6,25,standard,None,100,,,,,,,,m,29,203,en,r,0,raw,2022-05-13_10h19.14.187,oddball,2022.1.2,59.94822867840358,
10,,,,,0,1,1,2,0,0,0,0,4,0,4,0,,,,,,,,,,,,,,,,,1517.2278841000516,None,1518.044838400092,1518.6451503001153,1518.6286875000224,1520.62886980013,None,1,0.6138835099991411,2.6139636100269854,increament,0.6,25,standard,None,100,,,,,,,,m,29,203,en,r,0,raw,2022-05-13_10h19.14.187,oddball,2022.1.2,59.94822867840358,
10,,,,,0,1,1,2,0,0,0,0,5,0,5,0,,,,,,,,,,,,,,,,,1520.6453980000224,None,1521.2127652000636,1521.8132952000014,1521.796368499985,1523.7971574999392,None,1,0.6107248100452125,2.611471310025081,increament,0.6,25,standard,None,100,,,,,,,,m,29,203,en,r,0,raw,2022-05-13_10h19.14.187,oddball,2022.1.2,59.94822867840358,
10,,,,,0,1,1,2,0,0,0,0,6,0,6,0,,,,,,,,,,,,,,,,,1523.813594599953,None,1524.5638202999253,1525.1641103001311,1525.1475225000177,1527.1483797000255,None,1,0.6126163101289421,2.6135001101065427,increament,0.6,25,standard,None,100,,,,,,,,m,29,203,en,r,0,raw,2022-05-13_10h19.14.187,oddball,2022.1.2,59.94822867840358,
10,,,,,0,1,1,2,0,0,0,0,7,0,7,0,,,,,,,,,,,,,,,,,1527.1652913999278,None,1527.731779300142,1528.331869600108,1528.3155124001205,1530.3160318001173,None,1,0.6121041099540889,2.6126099098473787,increament,0.6,25,standard,None,100,,,,,,,,m,29,203,en,r,0,raw,2022-05-13_10h19.14.187,oddball,2022.1.2,59.94822867840358,
10,,,,,0,1,1,2,0,0,0,0,8,0,8,0,,,,,,,,,,,,,,,,,1530.3328941999935,None,1531.0835357999895,1531.6836308999918,1531.6667798999697,1533.6675418999512,None,1,0.6095196101814508,2.6103466101922095,increament,0.6,25,standard,None,100,,,,,,,,m,29,203,en,r,0,raw,2022-05-13_10h19.14.187,oddball,2022.1.2,59.94822867840358,
10,,,,,0,1,1,2,0,0,0,0,9,0,9,0,,,,,,,,,,,,,,,,,1533.6844160000328,None,1534.2174834001344,1535.0679550999776,1535.0346584999934,1537.035726699978,j,1,0.8483240099158138,2.8498136098496616,increament,0.84,27,oddball,j,140,0.6864315997809172,,,,,,,m,29,203,en,r,0,raw,2022-05-13_10h19.14.187,oddball,2022.1.2,59.94822867840358,
10,,,,,0,1,1,2,0,0,0,0,10,0,10,0,,,,,,,,,,,,,,,,,1537.0531834000722,None,1537.6521948000882,1538.2525830001105,1538.2357694001403,1540.2367016000208,None,1,0.6120796101167798,2.6129940100945532,increament,0.6,25,standard,None,100,,,,,,,,m,29,203,en,r,0,raw,2022-05-13_10h19.14.187,oddball,2022.1.2,59.94822867840358,
10,,,,,0,1,1,2,0,0,0,0,11,0,11,0,,,,,,,,,,,,,,,,,1540.2532005999237,None,1540.786800300004,1541.3870184000116,1541.3702632000204,1543.3709656000137,None,1,0.6133370101451874,2.6140324100852013,increament,0.6,25,standard,None,100,,,,,,,,m,29,203,en,r,0,raw,2022-05-13_10h19.14.187,oddball,2022.1.2,59.94822867840358,
10,,,,,0,1,1,2,0,0,0,0,12,0,12,0,,,,,,,,,,,,,,,,,1543.3878597000148,None,1544.0714114999864,1544.6716611001175,1544.6550996000879,1546.6554590000305,None,1,0.6126222100574523,2.6131958100013435,increament,0.6,25,standard,None,100,,,,,,,,m,29,203,en,r,0,raw,2022-05-13_10h19.14.187,oddball,2022.1.2,59.94822867840358,
10,,,,,0,1,1,2,0,0,0,0,13,0,13,0,,,,,,,,,,,,,,,,,1546.67262460012,None,1547.472436600132,1548.0726725999266,1548.0561567000113,1550.0570670000743,None,1,0.6140371100045741,2.6149658099748194,increament,0.6,25,standard,None,100,,,,,,,,m,29,203,en,r,0,raw,2022-05-13_10h19.14.187,oddball,2022.1.2,59.94822867840358,
