grating_freq,blocks_prac.thisRepN,blocks_prac.thisTrialN,blocks_prac.thisN,blocks_prac.thisIndex,blocks.thisRepN,blocks.thisTrialN,blocks.thisN,blocks.thisIndex,repeat_freq.thisRepN,repeat_freq.thisTrialN,repeat_freq.thisN,repeat_freq.thisIndex,trials.thisRepN,trials.thisTrialN,trials.thisN,trials.thisIndex,break_loop.thisRepN,break_loop.thisTrialN,break_loop.thisN,break_loop.thisIndex,rest_loop.thisRepN,rest_loop.thisTrialN,rest_loop.thisN,rest_loop.thisIndex,instruct_prac_text.started,instruct_prac_text.stopped,b_instruct_text_2_.started,b_instruct_text_2_.stopped,prac_done_text.started,prac_done_text.stopped,instruct_text.started,instruct_text.stopped,fixation.started,fixation.stopped,grating.started,grating.stopped,blank.started,blank.stopped,resp.keys,resp.corr,resp.started,resp.stopped,direction,duration,trigger,stim_type,corr_ans,scaling,resp.rt,rest_text.started,rest_text.stopped,text_2.started,text_2.stopped,thx_txt.started,thx_txt.stopped,gender,age,participant,language,main_hand,nBlock_prac,file_suffix,date,expName,psychopyVersion,frameRate,
10,,,,,0,0,0,2,0,0,0,0,0,0,0,0,,,,,,,,,20.77981850015931,None,27.03473710012622,None,45.84396299999207,None,53.80967510002665,None,56.22892030002549,None,57.038926400011405,57.64614289999008,57.596195300109684,59.59650840004906,None,1,0.6086337198503315,2.6088926198426634,increament,0.6,25,standard,None,100,,,,,,,,m,31,207,fr,r,0,raw,2022-05-19_10h17.10.489,oddball,2022.1.2,59.97019482359056,
10,,,,,0,0,0,2,0,0,0,0,1,0,1,0,,,,,,,,,,,,,,,,,59.61337020015344,None,60.263250400079414,60.8642361999955,60.84720990015194,62.848054400179535,None,1,0.6152522198390216,2.6161198196932673,increament,0.6,25,standard,None,100,,,,,,,,m,31,207,fr,r,0,raw,2022-05-19_10h17.10.489,oddball,2022.1.2,59.97019482359056,
10,,,,,0,0,0,2,0,0,0,0,2,0,2,0,,,,,,,,,,,,,,,,,62.864691300084814,None,63.51509970007464,64.11499130004086,64.09834670019336,66.09900350007229,None,1,0.6087452198844403,2.609410719713196,increament,0.6,25,standard,None,100,,,,,,,,m,31,207,fr,r,0,raw,2022-05-19_10h17.10.489,oddball,2022.1.2,59.97019482359056,
10,,,,,0,0,0,2,0,0,0,0,3,0,3,0,,,,,,,,,,,,,,,,,66.11601750017144,None,66.81631030002609,67.41626600013115,67.39990010019392,69.40068410011008,None,1,0.6106303199194372,2.611446819966659,increament,0.6,25,standard,None,100,,,,,,,,m,31,207,fr,r,0,raw,2022-05-19_10h17.10.489,oddball,2022.1.2,59.97019482359056,
10,,,,,0,0,0,2,0,0,0,0,4,0,4,0,,,,,,,,,,,,,,,,,69.41741190012544,None,70.23452790011652,70.83436560002156,70.81831410015002,72.81838460010476,None,1,0.6120501200202852,2.612057219957933,increament,0.6,25,standard,None,100,,,,,,,,m,31,207,fr,r,0,raw,2022-05-19_10h17.10.489,oddball,2022.1.2,59.97019482359056,
10,,,,,0,0,0,2,0,0,0,0,5,0,5,0,,,,,,,,,,,,,,,,,72.83512300020084,None,73.41890040016733,74.38584180013277,74.35276350006461,76.35329410014674,j,1,0.9632789196912199,2.9637703197076917,increament,0.96,28,oddball,j,160,0.38439009990543127,,,,,,,m,31,207,fr,r,0,raw,2022-05-19_10h17.10.489,oddball,2022.1.2,59.97019482359056,
10,,,,,0,0,0,2,0,0,0,0,6,0,6,0,,,,,,,,,,,,,,,,,76.36969180009328,None,77.05346260010265,77.65343780000694,77.63707670010626,79.63800050015561,None,1,0.6125586198177189,2.6135010197758675,increament,0.6,25,standard,None,100,,,,,,,,m,31,207,fr,r,0,raw,2022-05-19_10h17.10.489,oddball,2022.1.2,59.97019482359056,
10,,,,,0,0,0,2,0,0,0,0,7,0,7,0,,,,,,,,,,,,,,,,,79.6542584002018,None,80.23819210007787,80.83783169998787,80.82142699998803,82.82218100014143,None,1,0.6112270199228078,2.612014619866386,increament,0.6,25,standard,None,100,,,,,,,,m,31,207,fr,r,0,raw,2022-05-19_10h17.10.489,oddball,2022.1.2,59.97019482359056,
10,,,,,0,0,0,2,0,0,0,0,8,0,8,0,,,,,,,,,,,,,,,,,82.83891250006855,None,83.52267730003223,84.12242100015283,84.105872400105,86.10678130015731,None,1,0.6105855200439692,2.611455119913444,increament,0.6,25,standard,None,100,,,,,,,,m,31,207,fr,r,0,raw,2022-05-19_10h17.10.489,oddball,2022.1.2,59.97019482359056,
10,,,,,0,0,0,2,0,0,0,0,9,0,9,0,,,,,,,,,,,,,,,,,86.1236254000105,None,86.90740150003694,87.50748630007729,87.49061219999567,89.49152690009214,None,1,0.609574819682166,2.610536519670859,increament,0.6,25,standard,None,100,,,,,,,,m,31,207,fr,r,0,raw,2022-05-19_10h17.10.489,oddball,2022.1.2,59.97019482359056,
10,,,,,0,0,0,2,0,0,0,0,10,0,10,0,,,,,,,,,,,,,,,,,89.50802549999207,None,90.27468660008162,90.87517200014554,90.8586291000247,92.85932720010169,None,1,0.6148957200348377,2.6155403200536966,increament,0.6,25,standard,None,100,,,,,,,,m,31,207,fr,r,0,raw,2022-05-19_10h17.10.489,oddball,2022.1.2,59.97019482359056,
10,,,,,0,0,0,2,0,0,0,0,11,0,11,0,,,,,,,,,,,,,,,,,92.87590780016035,None,93.50982680008747,94.10993220005184,94.09336070017889,96.09432270005345,None,1,0.609865719685331,2.610936219803989,increament,0.6,25,standard,None,100,,,,,,,,m,31,207,fr,r,0,raw,2022-05-19_10h17.10.489,oddball,2022.1.2,59.97019482359056,
10,,,,,0,0,0,2,0,0,0,0,12,0,12,0,,,,,,,,,,,,,,,,,96.11076380009763,None,96.8109658001922,97.41121300007217,97.39433380006813,99.39509250014089,j,0,0.6115273199975491,2.6122502197977155,increament,0.6,25,standard,None,100,1.038133799796924,,,,,,,m,31,207,fr,r,0,raw,2022-05-19_10h17.10.489,oddball,2022.1.2,59.97019482359056,
10,,,,,0,0,0,2,0,0,0,0,13,0,13,0,,,,,,,,,,,,,,,,,99.41175870015286,None,100.12865309999324,100.72883230005391,100.71234369999729,102.71294940006919,None,1,0.6141917200293392,2.6147932200692594,increament,0.6,25,standard,None,100,,,,,,,,m,31,207,fr,r,0,raw,2022-05-19_10h17.10.489,oddball,2022.1.2,59.97019482359056,
10,,,,,0,0,0,2,0,0,0,0,14,0,14,0,,,,,,,,,,,,,,,,,102.7295741001144,None,103.54701720015146,104.1467514000833,104.13022530009039,106.13105250010267,None,1,0.6105884197168052,2.611435119761154,increament,0.6,25,standard,None,100,,,,,,,,m,31,207,fr,r,0,raw,2022-05-19_10h17.10.489,oddball,2022.1.2,59.97019482359056,
10,,,,,0,0,0,2,0,0,0,0,15,0,15,0,,,,,,,,,,,,,,,,,106.14774060016498,None,106.78123970003799,107.3816113001667,107.36503280000761,109.36560010001995,None,1,0.6126258200965822,2.613349020248279,increament,0.6,25,standard,None,100,,,,,,,,m,31,207,fr,r,0,raw,2022-05-19_10h17.10.489,oddball,2022.1.2,59.97019482359056,
10,,,,,0,0,0,2,0,0,0,0,16,0,16,0,,,,,,,,,,,,,,,,,109.38240560004488,None,109.91561240004376,110.64909080020152,110.61592920008115,112.6167596001178,j,1,0.7302652196958661,2.7311017198953778,increament,0.72,26,oddball,j,120,0.3366947998292744,,,,,,,m,31,207,fr,r,0,raw,2022-05-19_10h17.10.489,oddball,2022.1.2,59.97019482359056,
10,,,,,0,0,0,2,0,0,0,0,17,0,17,0,,,,,,,,,,,,,,,,,112.63382980017923,None,113.18407550011761,113.78385210013948,113.76737610017881,115.76796890003607,None,1,0.6122909199912101,2.6128829198423773,increament,0.6,25,standard,None,100,,,,,,,,m,31,207,fr,r,0,raw,2022-05-19_10h17.10.489,oddball,2022.1.2,59.97019482359056,
10,,,,,0,0,0,2,0,0,0,0,18,0,18,0,,,,,,,,,,,,,,,,,115.784982400015,None,116.368165000109,116.9686331001576,116.95214590011165,118.95291240001097,None,1,0.6099007199518383,2.610691119916737,increament,0.6,25,standard,None,100,,,,,,,,m,31,207,fr,r,0,raw,2022-05-19_10h17.10.489,oddball,2022.1.2,59.97019482359056,
10,,,,,0,0,0,2,0,0,0,0,19,0,19,0,,,,,,,,,,,,,,,,,118.97087850002572,None,119.6194048000034,120.21959250001237,120.2033292001579,122.20372020010836,None,1,0.6136317197233438,2.613926919642836,increament,0.6,25,standard,None,100,,,,,,,,m,31,207,fr,r,0,raw,2022-05-19_10h17.10.489,oddball,2022.1.2,59.97019482359056,
10,,,,,0,0,0,2,0,0,0,0,20,0,20,0,,,,,,,,,,,,,,,,,122.22024950012565,None,122.95411160006188,123.55412720004097,123.5377115001902,125.53842800017446,None,1,0.6143115200102329,2.6151064198929816,increament,0.6,25,standard,None,100,,,,,,,,m,31,207,fr,r,0,raw,2022-05-19_10h17.10.489,oddball,2022.1.2,59.97019482359056,
10,,,,,0,0,0,2,0,0,0,0,21,0,21,0,,,,,,,,,,,,,,,,,125.5548187000677,None,126.13839179999195,126.73881700006314,126.72209390019998,128.7230314000044,None,1,0.6134732197970152,2.6144062196835876,increament,0.6,25,standard,None,100,,,,,,,,m,31,207,fr,r,0,raw,2022-05-19_10h17.10.489,oddball,2022.1.2,59.97019482359056,
10,,,,,0,0,0,2,0,0,0,0,22,0,22,0,,,,,,,,,,,,,,,,,128.7395436000079,None,129.52322440012358,130.1233320001047,130.10725030000322,132.10786040010862,None,1,0.6121040200814605,2.612737220013514,increament,0.6,25,standard,None,100,,,,,,,,m,31,207,fr,r,0,raw,2022-05-19_10h17.10.489,oddball,2022.1.2,59.97019482359056,
10,,,,,0,0,0,2,0,0,0,0,23,0,23,0,,,,,,,,,,,,,,,,,132.12600100017153,None,132.7244019000791,133.57460310007446,133.54144370020367,135.5419300000649,j,1,0.8455775200854987,2.846055720001459,increament,0.84,27,oddball,j,140,0.5961680999025702,,,,,,,m,31,207,fr,r,0,raw,2022-05-19_10h17.10.489,oddball,2022.1.2,59.97019482359056,
10,,,,,0,0,0,2,0,0,0,0,24,0,24,0,,,,,,,,,,,,,,,,,135.55871420004405,None,136.40920150000602,137.00941940001212,136.99262110004202,138.99330130009912,None,1,0.6116180198732764,2.6122697200626135,increament,0.6,25,standard,None,100,,,,,,,,m,31,207,fr,r,0,raw,2022-05-19_10h17.10.489,oddball,2022.1.2,59.97019482359056,
10,,,,,0,0,0,2,0,0,0,0,25,0,25,0,,,,,,,,,,,,,,,,,139.0098940001335,None,139.61086240014993,140.21079540019855,140.1940440000035,142.1948158000596,None,1,0.6072605201043189,2.6080268200021237,increament,0.6,25,standard,None,100,,,,,,,,m,31,207,fr,r,0,raw,2022-05-19_10h17.10.489,oddball,2022.1.2,59.97019482359056,
10,,,,,0,0,0,2,0,0,0,0,26,0,26,0,,,,,,,,,,,,,,,,,142.2113246000372,None,142.76182700018398,143.3617905001156,143.3450800999999,145.34574310015887,None,1,0.6123795197345316,2.6130397198721766,increament,0.6,25,standard,None,100,,,,,,,,m,31,207,fr,r,0,raw,2022-05-19_10h17.10.489,oddball,2022.1.2,59.97019482359056,
10,,,,,0,0,0,2,0,0,0,0,27,0,27,0,,,,,,,,,,,,,,,,,145.36259969999082,None,146.07946670008823,146.679739800049,146.66322110011242,148.66378790000454,None,1,0.6118568198289722,2.6123550198972225,increament,0.6,25,standard,None,100,,,,,,,,m,31,207,fr,r,0,raw,2022-05-19_10h17.10.489,oddball,2022.1.2,59.97019482359056,
10,,,,,0,0,0,2,0,0,0,0,28,0,28,0,,,,,,,,,,,,,,,,,148.68061270006,None,149.24744000006467,149.84775290009566,149.830842200201,151.8317910002079,None,1,0.6108253200072795,2.611780219944194,increament,0.6,25,standard,None,100,,,,,,,,m,31,207,fr,r,0,raw,2022-05-19_10h17.10.489,oddball,2022.1.2,59.97019482359056,
10,,,,,0,0,0,2,0,0,0,0,29,0,29,0,,,,,,,,,,,,,,,,,151.84823430003598,None,152.44880340015516,153.04884790000506,153.032217200147,155.03279309999198,None,1,0.6100333200301975,2.6106253201141953,increament,0.6,25,standard,None,100,,,,,,,,m,31,207,fr,r,0,raw,2022-05-19_10h17.10.489,oddball,2022.1.2,59.97019482359056,
10,,,,,0,0,0,2,1,0,1,0,0,0,0,0,,,,,,,,,,,,,,,205.43485020007938,None,207.2694037000183,None,208.01971450005658,208.6201216999907,208.6033344999887,210.60380360018462,None,1,0.6090399199165404,2.6094662197865546,decreament,0.6,21,standard,None,100,,155.0498346001841,None,,,,,m,31,207,fr,r,0,raw,2022-05-19_10h17.10.489,oddball,2022.1.2,59.97019482359056,
10,,,,,0,0,0,2,1,0,1,0,1,0,1,0,,,,,,,,,,,,,,,,,210.6207044001203,None,211.30421000020579,211.90455760015175,211.8878057000693,213.88837749999948,None,1,0.6118569197133183,2.6124198196921498,decreament,0.6,21,standard,None,100,,,,,,,,m,31,207,fr,r,0,raw,2022-05-19_10h17.10.489,oddball,2022.1.2,59.97019482359056,
10,,,,,0,0,0,2,1,0,1,0,2,0,2,0,,,,,,,,,,,,,,,,,213.90505440020934,None,214.5387973000761,215.13892629998736,215.1227908001747,217.12301710015163,None,1,0.6131765197496861,2.613284119637683,decreament,0.6,21,standard,None,100,,,,,,,,m,31,207,fr,r,0,raw,2022-05-19_10h17.10.489,oddball,2022.1.2,59.97019482359056,
10,,,,,0,0,0,2,1,0,1,0,3,0,3,0,,,,,,,,,,,,,,,,,217.13997160014696,None,217.89058190002106,218.49040400004014,218.4735948999878,220.47413560003042,None,1,0.6095531198661774,2.6100801199208945,decreament,0.6,21,standard,None,100,,,,,,,,m,31,207,fr,r,0,raw,2022-05-19_10h17.10.489,oddball,2022.1.2,59.97019482359056,
10,,,,,0,0,0,2,1,0,1,0,4,0,4,0,,,,,,,,,,,,,,,,,220.49067470012233,None,221.12501340010203,221.7251181001775,221.70833960012533,223.70884850015864,None,1,0.609204419888556,2.609733919845894,decreament,0.6,21,standard,None,100,,,,,,,,m,31,207,fr,r,0,raw,2022-05-19_10h17.10.489,oddball,2022.1.2,59.97019482359056,
10,,,,,0,0,0,2,1,0,1,0,5,0,5,0,,,,,,,,,,,,,,,,,223.72563820006326,None,224.37601380003616,224.62601070012897,224.59245890006423,226.59331680019386,j,1,0.2424387198407203,2.2433456198778003,decreament,0.24,22,oddball,j,40,0.8812812000978738,,,,,,,m,31,207,fr,r,0,raw,2022-05-19_10h17.10.489,oddball,2022.1.2,59.97019482359056,
10,,,,,0,0,0,2,1,0,1,0,6,0,6,0,,,,,,,,,,,,,,,,,226.60996980010532,None,227.2768103000708,227.87692050007172,227.86059790011495,229.86111330008134,None,1,0.6135031199082732,2.6139896197710186,decreament,0.6,21,standard,None,100,,,,,,,,m,31,207,fr,r,0,raw,2022-05-19_10h17.10.489,oddball,2022.1.2,59.97019482359056,
10,,,,,0,0,0,2,1,0,1,0,7,0,7,0,,,,,,,,,,,,,,,,,229.8776727002114,None,230.42798899998888,231.02844920009375,231.01200710004196,233.01227760012262,None,1,0.6137232198379934,2.613895419985056,decreament,0.6,21,standard,None,100,,,,,,,,m,31,207,fr,r,0,raw,2022-05-19_10h17.10.489,oddball,2022.1.2,59.97019482359056,
10,,,,,0,0,0,2,1,0,1,0,8,0,8,0,,,,,,,,,,,,,,,,,233.028986700112,None,233.66265950002708,234.2625539000146,234.24599500000477,236.24641920020804,None,1,0.6095562200061977,2.6099508199840784,decreament,0.6,21,standard,None,100,,,,,,,,m,31,207,fr,r,0,raw,2022-05-19_10h17.10.489,oddball,2022.1.2,59.97019482359056,
10,,,,,0,0,0,2,1,0,1,0,9,0,9,0,,,,,,,,,,,,,,,,,236.2632344001904,None,236.9634327001404,237.56362450006418,237.5469951000996,239.54875549999997,None,1,0.6152361200656742,2.6171146200504154,decreament,0.6,21,standard,None,100,,,,,,,,m,31,207,fr,r,0,raw,2022-05-19_10h17.10.489,oddball,2022.1.2,59.97019482359056,
10,,,,,0,0,0,2,1,0,1,0,10,0,10,0,,,,,,,,,,,,,,,,,239.5660610999912,None,240.2320605001878,240.7153271001298,240.6823990000412,242.68314920016564,None,0,0.4792683201376349,2.480063920142129,decreament,0.48,24,oddball,j,80,,,,,,,,m,31,207,fr,r,0,raw,2022-05-19_10h17.10.489,oddball,2022.1.2,59.97019482359056,
10,,,,,0,0,0,2,1,0,1,0,11,0,11,0,,,,,,,,,,,,,,,,,242.70101750013418,None,243.3999710001517,244.00004160008393,243.9833528001327,245.98343350016512,j,0,0.6091064198408276,2.609121719840914,decreament,0.6,21,standard,None,100,0.7211426997091621,,,,,,,m,31,207,fr,r,0,raw,2022-05-19_10h17.10.489,oddball,2022.1.2,59.97019482359056,
10,,,,,0,0,0,2,1,0,1,0,12,0,12,0,,,,,,,,,,,,,,,,,246.00016350019723,None,246.73386400006711,247.33463579998352,247.3014666000381,249.30191590008326,None,1,0.5995933199301362,2.6000133198685944,decreament,0.6,21,standard,None,100,,,,,,,,m,31,207,fr,r,0,raw,2022-05-19_10h17.10.489,oddball,2022.1.2,59.97019482359056,
10,,,,,0,0,0,2,1,0,1,0,13,0,13,0,,,,,,,,,,,,,,,,,249.31872040010057,None,250.0522106999997,250.65263340016827,250.63598520006053,252.63705040002242,None,1,0.6105266199447215,2.6116149199660867,decreament,0.6,21,standard,None,100,,,,,,,,m,31,207,fr,r,0,raw,2022-05-19_10h17.10.489,oddball,2022.1.2,59.97019482359056,
10,,,,,0,0,0,2,1,0,1,0,14,0,14,0,,,,,,,,,,,,,,,,,252.6552591000218,None,253.23664980009198,253.83685480011627,253.82012640009634,255.82101630000398,None,1,0.6122725200839341,2.6131844201590866,decreament,0.6,21,standard,None,100,,,,,,,,m,31,207,fr,r,0,raw,2022-05-19_10h17.10.489,oddball,2022.1.2,59.97019482359056,
10,,,,,0,0,0,2,1,0,1,0,15,0,15,0,,,,,,,,,,,,,,,,,255.83776580006815,None,256.4212367001455,257.0215812001843,257.0048804001417,259.0057785001118,j,0,0.6091943201608956,2.6100771201308817,decreament,0.6,21,standard,None,100,0.5322764997836202,,,,,,,m,31,207,fr,r,0,raw,2022-05-19_10h17.10.489,oddball,2022.1.2,59.97019482359056,
10,,,,,0,0,0,2,1,0,1,0,16,0,16,0,,,,,,,,,,,,,,,,,259.02236960013397,None,259.62262889998965,260.2226343001239,260.2061436001677,262.20689250016585,None,1,0.6129792199935764,2.613801119849086,decreament,0.6,21,standard,None,100,,,,,,,,m,31,207,fr,r,0,raw,2022-05-19_10h17.10.489,oddball,2022.1.2,59.97019482359056,
10,,,,,0,0,0,2,1,0,1,0,17,0,17,0,,,,,,,,,,,,,,,,,262.22344650002196,None,263.0075192002114,263.6075916001573,263.5908878000919,265.59143590019085,None,1,0.6122950199060142,2.6127735199406743,decreament,0.6,21,standard,None,100,,,,,,,,m,31,207,fr,r,0,raw,2022-05-19_10h17.10.489,oddball,2022.1.2,59.97019482359056,
10,,,,,0,0,0,2,1,0,1,0,18,0,18,0,,,,,,,,,,,,,,,,,265.6081811999902,None,266.3417204001453,266.94193239999004,266.9253736000974,268.9260211000219,None,1,0.6130822198465466,2.6137232198379934,decreament,0.6,21,standard,None,100,,,,,,,,m,31,207,fr,r,0,raw,2022-05-19_10h17.10.489,oddball,2022.1.2,59.97019482359056,
10,,,,,0,0,0,2,1,0,1,0,19,0,19,0,,,,,,,,,,,,,,,,,268.9429799001664,None,269.50946510001086,270.10983720002696,270.09331190004013,272.0941304001026,j,0,0.6131934197619557,2.6140416199341416,decreament,0.6,21,standard,None,100,1.4679634000640363,,,,,,,m,31,207,fr,r,0,raw,2022-05-19_10h17.10.489,oddball,2022.1.2,59.97019482359056,
10,,,,,0,0,0,2,1,0,1,0,20,0,20,0,,,,,,,,,,,,,,,,,272.1110068000853,None,272.72749640000984,273.32767710019834,273.3112933000084,275.3115231001284,None,1,0.6130588201340288,2.6132715200074017,decreament,0.6,21,standard,None,100,,,,,,,,m,31,207,fr,r,0,raw,2022-05-19_10h17.10.489,oddball,2022.1.2,59.97019482359056,
10,,,,,0,0,0,2,1,0,1,0,21,0,21,0,,,,,,,,,,,,,,,,,275.32830580021255,None,275.911978200078,276.5125240001362,276.4959380000364,278.49711360014044,None,1,0.6120159199927002,2.6131999199278653,decreament,0.6,21,standard,None,100,,,,,,,,m,31,207,fr,r,0,raw,2022-05-19_10h17.10.489,oddball,2022.1.2,59.97019482359056,
10,,,,,0,0,0,2,1,0,1,0,22,0,22,0,,,,,,,,,,,,,,,,,278.51287820003927,None,279.1966360001825,279.7967599001713,279.78024680004455,281.78102890006267,None,1,0.612416619900614,2.6132952198386192,decreament,0.6,21,standard,None,100,,,,,,,,m,31,207,fr,r,0,raw,2022-05-19_10h17.10.489,oddball,2022.1.2,59.97019482359056,
10,,,,,0,0,0,2,1,0,1,0,23,0,23,0,,,,,,,,,,,,,,,,,281.7976479001809,None,282.48123550019227,283.08129380014725,283.06486929999664,285.06556890020147,None,1,0.6112200198695064,2.611917719943449,decreament,0.6,21,standard,None,100,,,,,,,,m,31,207,fr,r,0,raw,2022-05-19_10h17.10.489,oddball,2022.1.2,59.97019482359056,
10,,,,,0,0,0,2,1,0,1,0,24,0,24,0,,,,,,,,,,,,,,,,,285.0823950001504,None,285.7656384999864,286.3657904001884,286.3492244000081,288.3501173001714,None,1,0.6130784198176116,2.6140502197667956,decreament,0.6,21,standard,None,100,,,,,,,,m,31,207,fr,r,0,raw,2022-05-19_10h17.10.489,oddball,2022.1.2,59.97019482359056,
10,,,,,0,0,0,2,1,0,1,0,25,0,25,0,,,,,,,,,,,,,,,,,288.3672491000034,None,289.3173152001109,289.6836683000438,289.6505855000578,291.65124300005846,j,1,0.3593346197158098,2.3600384197197855,decreament,0.36,23,oddball,j,60,0.7814699998125434,,,,,,,m,31,207,fr,r,0,raw,2022-05-19_10h17.10.489,oddball,2022.1.2,59.97019482359056,
10,,,,,0,0,0,2,1,0,1,0,26,0,26,0,,,,,,,,,,,,,,,,,291.66812860011123,None,292.5182728001382,293.1183083001524,293.1016042002011,295.1028295001015,None,1,0.6100012199021876,2.611313119996339,decreament,0.6,21,standard,None,100,,,,,,,,m,31,207,fr,r,0,raw,2022-05-19_10h17.10.489,oddball,2022.1.2,59.97019482359056,
10,,,,,0,0,0,2,1,0,1,0,27,0,27,0,,,,,,,,,,,,,,,,,295.1193555002101,None,295.8028061001096,296.40303630009294,296.38630700018257,298.387190700043,None,1,0.6131351196672767,2.614035819657147,decreament,0.6,21,standard,None,100,,,,,,,,m,31,207,fr,r,0,raw,2022-05-19_10h17.10.489,oddball,2022.1.2,59.97019482359056,
10,,,,,0,0,0,2,1,0,1,0,28,0,28,0,,,,,,,,,,,,,,,,,298.4039231000934,None,299.1044910000637,299.704320800025,299.6876433000434,301.68825900019147,j,0,0.6113141202367842,2.611906420206651,decreament,0.6,21,standard,None,100,0.6252454998902977,,,,,,,m,31,207,fr,r,0,raw,2022-05-19_10h17.10.489,oddball,2022.1.2,59.97019482359056,
10,,,,,0,0,0,2,1,0,1,0,29,0,29,0,,,,,,,,,,,,,,,,,301.70496880006976,None,302.2389213000424,302.8390935000498,302.8225008000154,304.8232046000194,j,0,0.6128182196989655,2.6134906196966767,decreament,0.6,21,standard,None,100,0.7464538000058383,,,,,,,m,31,207,fr,r,0,raw,2022-05-19_10h17.10.489,oddball,2022.1.2,59.97019482359056,
10,,,,,0,0,0,2,2,0,2,0,0,0,0,0,,,,,,,,,,,,,,,325.90190350008197,None,327.565030900063,None,328.34825900010765,328.94859200017527,328.9320443000179,330.93279910017736,None,1,0.6129857199266553,2.6137505199294537,increament,0.6,25,standard,None,100,,304.83974580001086,None,,,,,m,31,207,fr,r,0,raw,2022-05-19_10h17.10.489,oddball,2022.1.2,59.97019482359056,
10,,,,,0,0,0,2,2,0,2,0,1,0,1,0,,,,,,,,,,,,,,,,,330.94939670013264,None,331.66660880018026,332.26656430005096,332.2499781001825,334.2508676000871,None,1,0.6100338199175894,2.610982319805771,increament,0.6,25,standard,None,100,,,,,,,,m,31,207,fr,r,0,raw,2022-05-19_10h17.10.489,oddball,2022.1.2,59.97019482359056,
10,,,,,0,0,0,2,2,0,2,0,2,0,2,0,,,,,,,,,,,,,,,,,334.26765720010735,None,334.9678637001198,335.5675641000271,335.5510253000539,337.5521117001772,None,1,0.6118306198623031,2.6129714199341834,increament,0.6,25,standard,None,100,,,,,,,,m,31,207,fr,r,0,raw,2022-05-19_10h17.10.489,oddball,2022.1.2,59.97019482359056,
10,,,,,0,0,0,2,2,0,2,0,3,0,3,0,,,,,,,,,,,,,,,,,337.5686720001977,None,338.1524793000426,338.7522166001145,338.735999800032,340.7367449000012,None,1,0.6096291199792176,2.6103950201068074,increament,0.6,25,standard,None,100,,,,,,,,m,31,207,fr,r,0,raw,2022-05-19_10h17.10.489,oddball,2022.1.2,59.97019482359056,
10,,,,,0,0,0,2,2,0,2,0,4,0,4,0,,,,,,,,,,,,,,,,,340.75346010015346,None,341.27052360004745,341.87026360002346,341.853644200135,343.85474109998904,None,1,0.6088651199825108,2.6099954198580235,increament,0.6,25,standard,None,100,,,,,,,,m,31,207,fr,r,0,raw,2022-05-19_10h17.10.489,oddball,2022.1.2,59.97019482359056,
10,,,,,0,0,0,2,2,0,2,0,5,0,5,0,,,,,,,,,,,,,,,,,343.8713218001649,None,344.454768900061,345.0546250999905,345.0383655000478,347.038975100033,None,1,0.6094052197877318,2.6100632196757942,increament,0.6,25,standard,None,100,,,,,,,,m,31,207,fr,r,0,raw,2022-05-19_10h17.10.489,oddball,2022.1.2,59.97019482359056,
10,,,,,0,0,0,2,2,0,2,0,6,0,6,0,,,,,,,,,,,,,,,,,347.0557788000442,None,347.72272940003313,348.4559571000282,348.4227863000706,350.423439900158,j,1,0.7260021197143942,2.726659419713542,increament,0.72,26,oddball,j,120,0.36169429984875023,,,,,,,m,31,207,fr,r,0,raw,2022-05-19_10h17.10.489,oddball,2022.1.2,59.97019482359056,
10,,,,,0,0,0,2,2,0,2,0,7,0,7,0,,,,,,,,,,,,,,,,,350.4401318000164,None,351.0238846000284,351.6239530001767,351.6078000999987,353.60818239999935,None,1,0.6120952200144529,2.612436819821596,increament,0.6,25,standard,None,100,,,,,,,,m,31,207,fr,r,0,raw,2022-05-19_10h17.10.489,oddball,2022.1.2,59.97019482359056,
10,,,,,0,0,0,2,2,0,2,0,8,0,8,0,,,,,,,,,,,,,,,,,353.6246911000926,None,354.20841920003295,354.80843190010637,354.7917305000592,356.7924788000528,None,1,0.6136999200098217,2.614422820042819,increament,0.6,25,standard,None,100,,,,,,,,m,31,207,fr,r,0,raw,2022-05-19_10h17.10.489,oddball,2022.1.2,59.97019482359056,
10,,,,,0,0,0,2,2,0,2,0,9,0,9,0,,,,,,,,,,,,,,,,,356.8093644999899,None,357.4928393000737,358.093332500197,358.07684030011296,360.0774546000175,None,1,0.6130548198707402,2.613669019890949,increament,0.6,25,standard,None,100,,,,,,,,m,31,207,fr,r,0,raw,2022-05-19_10h17.10.489,oddball,2022.1.2,59.97019482359056,
10,,,,,0,0,0,2,2,0,2,0,10,0,10,0,,,,,,,,,,,,,,,,,360.0940564000048,None,360.71081389999017,361.3109290001448,361.2941740001552,363.29494460020214,None,1,0.6135956197977066,2.6143835198599845,increament,0.6,25,standard,None,100,,,,,,,,m,31,207,fr,r,0,raw,2022-05-19_10h17.10.489,oddball,2022.1.2,59.97019482359056,
10,,,,,0,0,0,2,2,0,2,0,11,0,11,0,,,,,,,,,,,,,,,,,363.31188050005585,None,363.9454241001513,364.5453851001803,364.5288693001494,366.52953530009836,None,1,0.6127736198250204,2.613445919705555,increament,0.6,25,standard,None,100,,,,,,,,m,31,207,fr,r,0,raw,2022-05-19_10h17.10.489,oddball,2022.1.2,59.97019482359056,
10,,,,,0,0,0,2,2,0,2,0,12,0,12,0,,,,,,,,,,,,,,,,,366.546416600002,None,367.29655610001646,367.89653929998167,367.88000910007395,369.88080650009215,None,1,0.609600119991228,2.6104435198940337,increament,0.6,25,standard,None,100,,,,,,,,m,31,207,fr,r,0,raw,2022-05-19_10h17.10.489,oddball,2022.1.2,59.97019482359056,
10,,,,,0,0,0,2,2,0,2,0,13,0,13,0,,,,,,,,,,,,,,,,,369.8974693000782,None,370.6478145001456,371.2481124000624,371.2319443000015,373.23223650013097,None,1,0.6134349198546261,2.61367771984078,increament,0.6,25,standard,None,100,,,,,,,,m,31,207,fr,r,0,raw,2022-05-19_10h17.10.489,oddball,2022.1.2,59.97019482359056,
10,,,,,0,0,0,2,2,0,2,0,14,0,14,0,,,,,,,,,,,,,,,,,373.24888920015655,None,373.98255560011603,374.5826978001278,374.5658697001636,376.56665350007825,None,1,0.6114673200063407,2.612241920083761,increament,0.6,25,standard,None,100,,,,,,,,m,31,207,fr,r,0,raw,2022-05-19_10h17.10.489,oddball,2022.1.2,59.97019482359056,
10,,,,,0,0,0,2,2,0,2,0,15,0,15,0,,,,,,,,,,,,,,,,,376.58329690014943,None,377.2502572000958,377.85049250000156,377.83396279998124,379.834658900043,None,1,0.6125316200777888,2.613208719994873,increament,0.6,25,standard,None,100,,,,,,,,m,31,207,fr,r,0,raw,2022-05-19_10h17.10.489,oddball,2022.1.2,59.97019482359056,
10,,,,,0,0,0,2,2,0,2,0,16,0,16,0,,,,,,,,,,,,,,,,,379.8512842000928,None,380.4682841000613,381.06866300012916,381.05174720007926,383.05275190016255,None,1,0.6134191197343171,2.614435219671577,increament,0.6,25,standard,None,100,,,,,,,,m,31,207,fr,r,0,raw,2022-05-19_10h17.10.489,oddball,2022.1.2,59.97019482359056,
10,,,,,0,0,0,2,2,0,2,0,17,0,17,0,,,,,,,,,,,,,,,,,383.0692186001688,None,383.7365043000318,384.5862602000125,384.5531813001726,386.55417490005493,j,1,0.8446725199464709,2.8457399199251086,increament,0.84,27,oddball,j,140,0.7750623999163508,,,,,,,m,31,207,fr,r,0,raw,2022-05-19_10h17.10.489,oddball,2022.1.2,59.97019482359056,
10,,,,,0,0,0,2,2,0,2,0,18,0,18,0,,,,,,,,,,,,,,,,,386.57067980011925,None,387.0878042001277,387.6877683000639,387.6712036000099,389.67175280000083,None,1,0.6118283199612051,2.6123770198319107,increament,0.6,25,standard,None,100,,,,,,,,m,31,207,fr,r,0,raw,2022-05-19_10h17.10.489,oddball,2022.1.2,59.97019482359056,
10,,,,,0,0,0,2,2,0,2,0,19,0,19,0,,,,,,,,,,,,,,,,,389.68845020001754,None,390.3054681001231,390.90546290017664,390.88913570018485,392.88966530002654,None,1,0.611667119897902,2.612189620034769,increament,0.6,25,standard,None,100,,,,,,,,m,31,207,fr,r,0,raw,2022-05-19_10h17.10.489,oddball,2022.1.2,59.97019482359056,
10,,,,,0,0,0,2,2,0,2,0,20,0,20,0,,,,,,,,,,,,,,,,,392.9062144001946,None,393.57325390004553,394.1733089000918,394.15673810010776,396.1578109001275,None,1,0.6102234197314829,2.61135191982612,increament,0.6,25,standard,None,100,,,,,,,,m,31,207,fr,r,0,raw,2022-05-19_10h17.10.489,oddball,2022.1.2,59.97019482359056,
10,,,,,0,0,0,2,2,0,2,0,21,0,21,0,,,,,,,,,,,,,,,,,396.17484790016897,None,396.74123760010116,397.34157430008054,397.3247595001012,399.32575080008246,None,1,0.6108164200559258,2.6118462199810892,increament,0.6,25,standard,None,100,,,,,,,,m,31,207,fr,r,0,raw,2022-05-19_10h17.10.489,oddball,2022.1.2,59.97019482359056,
10,,,,,0,0,0,2,2,0,2,0,22,0,22,0,,,,,,,,,,,,,,,,,399.3419048001524,None,399.99265150004067,400.59242320014164,400.57559430017136,402.57674950012006,None,1,0.6110795198474079,2.612282119691372,increament,0.6,25,standard,None,100,,,,,,,,m,31,207,fr,r,0,raw,2022-05-19_10h17.10.489,oddball,2022.1.2,59.97019482359056,
10,,,,,0,0,0,2,2,0,2,0,23,0,23,0,,,,,,,,,,,,,,,,,402.5932999001816,None,403.24344720016234,403.8438383000903,403.82767350017093,405.82814070000313,None,1,0.6131023198831826,2.613515419885516,increament,0.6,25,standard,None,100,,,,,,,,m,31,207,fr,r,0,raw,2022-05-19_10h17.10.489,oddball,2022.1.2,59.97019482359056,
10,,,,,0,0,0,2,2,0,2,0,24,0,24,0,,,,,,,,,,,,,,,,,405.84554490004666,None,406.4280125000514,407.0286362001207,407.01208840007894,409.0124135001097,None,1,0.6095551201142371,2.6098002202343196,increament,0.6,25,standard,None,100,,,,,,,,m,31,207,fr,r,0,raw,2022-05-19_10h17.10.489,oddball,2022.1.2,59.97019482359056,
10,,,,,0,0,0,2,2,0,2,0,25,0,25,0,,,,,,,,,,,,,,,,,409.0290262000635,None,409.6626246001106,410.6295704001095,410.59675350016914,412.5967321000062,j,1,0.9630332197993994,2.962882319930941,increament,0.96,28,oddball,j,160,0.531514799920842,,,,,,,m,31,207,fr,r,0,raw,2022-05-19_10h17.10.489,oddball,2022.1.2,59.97019482359056,
10,,,,,0,0,0,2,2,0,2,0,26,0,26,0,,,,,,,,,,,,,,,,,412.6133932999801,None,413.24748770007864,413.84746650001034,413.83106500003487,415.8316161001567,None,1,0.6107227199245244,2.6113092198502272,increament,0.6,25,standard,None,100,,,,,,,,m,31,207,fr,r,0,raw,2022-05-19_10h17.10.489,oddball,2022.1.2,59.97019482359056,
10,,,,,0,0,0,2,2,0,2,0,27,0,27,0,,,,,,,,,,,,,,,,,415.84831230016425,None,416.56559940008447,417.165402200073,417.1488706001546,419.1497886001598,None,1,0.6085567199625075,2.6095424199011177,increament,0.6,25,standard,None,100,,,,,,,,m,31,207,fr,r,0,raw,2022-05-19_10h17.10.489,oddball,2022.1.2,59.97019482359056,
10,,,,,0,0,0,2,2,0,2,0,28,0,28,0,,,,,,,,,,,,,,,,,419.16770660015754,None,419.69992940011434,420.2999679001514,420.2833684000652,422.28389429999515,None,1,0.6125435195863247,2.613053319742903,increament,0.6,25,standard,None,100,,,,,,,,m,31,207,fr,r,0,raw,2022-05-19_10h17.10.489,oddball,2022.1.2,59.97019482359056,
10,,,,,0,0,0,2,2,0,2,0,29,0,29,0,,,,,,,,,,,,,,,,,422.30077440012246,None,422.9342675001826,423.5348223000765,423.5179357000161,425.51894200011156,None,1,0.6140816200058907,2.615125919925049,increament,0.6,25,standard,None,100,,,,,,,,m,31,207,fr,r,0,raw,2022-05-19_10h17.10.489,oddball,2022.1.2,59.97019482359056,
10,,,,,0,0,0,2,3,0,3,0,0,0,0,0,,,,,,,,,,,,,,,438.2001034000423,None,441.07427400001325,None,441.7247471001465,442.3252087000292,442.30831580003724,444.3092326000333,None,1,0.6123288199305534,2.6132543198764324,decreament,0.6,21,standard,None,100,,425.53984480001964,None,,,,,m,31,207,fr,r,0,raw,2022-05-19_10h17.10.489,oddball,2022.1.2,59.97019482359056,
10,,,,,0,0,0,2,3,0,3,0,1,0,1,0,,,,,,,,,,,,,,,,,444.32568020001054,None,444.9426376000047,445.54308510012925,445.52685470017605,447.52691990020685,None,1,0.613113519968465,2.6130414200015366,decreament,0.6,21,standard,None,100,,,,,,,,m,31,207,fr,r,0,raw,2022-05-19_10h17.10.489,oddball,2022.1.2,59.97019482359056,
10,,,,,0,0,0,2,3,0,3,0,2,0,2,0,,,,,,,,,,,,,,,,,447.54367160005495,None,448.17749400017783,448.7778519000858,448.7610389001202,450.7614479002077,None,1,0.6092433198355138,2.609527619788423,decreament,0.6,21,standard,None,100,,,,,,,,m,31,207,fr,r,0,raw,2022-05-19_10h17.10.489,oddball,2022.1.2,59.97019482359056,
10,,,,,0,0,0,2,3,0,3,0,3,0,3,0,,,,,,,,,,,,,,,,,450.7782035002019,None,451.2952324000653,451.8950941001531,451.87862540013157,453.87939980020747,None,1,0.6097229197621346,2.610491719795391,decreament,0.6,21,standard,None,100,,,,,,,,m,31,207,fr,r,0,raw,2022-05-19_10h17.10.489,oddball,2022.1.2,59.97019482359056,
10,,,,,0,0,0,2,3,0,3,0,4,0,4,0,,,,,,,,,,,,,,,,,453.8959171001334,None,454.729701400036,455.330384200206,455.31348120002076,457.31422300008126,None,1,0.612293419893831,2.61307931994088,decreament,0.6,21,standard,None,100,,,,,,,,m,31,207,fr,r,0,raw,2022-05-19_10h17.10.489,oddball,2022.1.2,59.97019482359056,
10,,,,,0,0,0,2,3,0,3,0,5,0,5,0,,,,,,,,,,,,,,,,,457.33070390019566,None,457.8642580001615,458.3479018001817,458.33118540002033,460.3317317001056,None,0,0.4950046199373901,2.495542220072821,decreament,0.48,24,oddball,j,80,,,,,,,,m,31,207,fr,r,0,raw,2022-05-19_10h17.10.489,oddball,2022.1.2,59.97019482359056,
10,,,,,0,0,0,2,3,0,3,0,6,0,6,0,,,,,,,,,,,,,,,,,460.34858110011555,None,461.0323212000076,461.63236679998226,461.61580889998004,463.6162970000878,None,1,0.6128295201342553,2.6133215201552957,decreament,0.6,21,standard,None,100,,,,,,,,m,31,207,fr,r,0,raw,2022-05-19_10h17.10.489,oddball,2022.1.2,59.97019482359056,
10,,,,,0,0,0,2,3,0,3,0,7,0,7,0,,,,,,,,,,,,,,,,,463.63307840004563,None,464.30000160005875,464.90010130009614,464.88383050006814,466.88457200000994,None,1,0.6142310202121735,2.614973320160061,decreament,0.6,21,standard,None,100,,,,,,,,m,31,207,fr,r,0,raw,2022-05-19_10h17.10.489,oddball,2022.1.2,59.97019482359056,
10,,,,,0,0,0,2,3,0,3,0,8,0,8,0,,,,,,,,,,,,,,,,,466.9018967000302,None,467.5178333001677,468.11846430017613,468.1015860000625,470.10211580013856,None,1,0.6122928198892623,2.612765919882804,decreament,0.6,21,standard,None,100,,,,,,,,m,31,207,fr,r,0,raw,2022-05-19_10h17.10.489,oddball,2022.1.2,59.97019482359056,
10,,,,,0,0,0,2,3,0,3,0,9,0,9,0,,,,,,,,,,,,,,,,,470.1188439000398,None,470.88584600016475,471.4864259001333,471.4699632001575,473.46996490005404,None,1,0.6102788201533258,2.6101509199943393,decreament,0.6,21,standard,None,100,,,,,,,,m,31,207,fr,r,0,raw,2022-05-19_10h17.10.489,oddball,2022.1.2,59.97019482359056,
10,,,,,0,0,0,2,3,0,3,0,10,0,10,0,,,,,,,,,,,,,,,,,473.4866713001393,None,474.1040250000078,474.7041339999996,474.6871846001595,476.6880481999833,j,0,0.6106376198586076,2.6114940198604017,decreament,0.6,21,standard,None,100,0.9609516998752952,,,,,,,m,31,207,fr,r,0,raw,2022-05-19_10h17.10.489,oddball,2022.1.2,59.97019482359056,
10,,,,,0,0,0,2,3,0,3,0,11,0,11,0,,,,,,,,,,,,,,,,,476.7047182000242,None,477.43897730018944,478.03831259999424,478.0218678000383,480.0225304001942,None,1,0.6094347196631134,2.610114519717172,decreament,0.6,21,standard,None,100,,,,,,,,m,31,207,fr,r,0,raw,2022-05-19_10h17.10.489,oddball,2022.1.2,59.97019482359056,
10,,,,,0,0,0,2,3,0,3,0,12,0,12,0,,,,,,,,,,,,,,,,,480.0393106001429,None,480.73981440020725,481.3401533002034,481.3231695999857,483.3237917001825,None,1,0.6116272199433297,2.612236520042643,decreament,0.6,21,standard,None,100,,,,,,,,m,31,207,fr,r,0,raw,2022-05-19_10h17.10.489,oddball,2022.1.2,59.97019482359056,
10,,,,,0,0,0,2,3,0,3,0,13,0,13,0,,,,,,,,,,,,,,,,,483.3407077000011,None,484.04089000006206,484.6408928001765,484.62437300011516,486.62513860012405,j,0,0.6105712200514972,2.611311020096764,decreament,0.6,21,standard,None,100,0.7999793000053614,,,,,,,m,31,207,fr,r,0,raw,2022-05-19_10h17.10.489,oddball,2022.1.2,59.97019482359056,
10,,,,,0,0,0,2,3,0,3,0,14,0,14,0,,,,,,,,,,,,,,,,,486.6416993001476,None,487.208853200078,487.8089149000589,487.7924798000604,489.7931588999927,None,1,0.6113658198155463,2.612125919898972,decreament,0.6,21,standard,None,100,,,,,,,,m,31,207,fr,r,0,raw,2022-05-19_10h17.10.489,oddball,2022.1.2,59.97019482359056,
10,,,,,0,0,0,2,3,0,3,0,15,0,15,0,,,,,,,,,,,,,,,,,489.809534,None,490.41037220018916,491.01005790010095,490.9936317000538,492.99424250004813,None,1,0.6096278198529035,2.6102080198470503,decreament,0.6,21,standard,None,100,,,,,,,,m,31,207,fr,r,0,raw,2022-05-19_10h17.10.489,oddball,2022.1.2,59.97019482359056,
10,,,,,0,0,0,2,3,0,3,0,16,0,16,0,,,,,,,,,,,,,,,,,493.01120040006936,None,493.6782430000603,493.9280578000471,493.8949703001417,495.8959027000237,j,1,0.24536111974157393,2.246286119800061,decreament,0.24,22,oddball,j,40,0.6570863998495042,,,,,,,m,31,207,fr,r,0,raw,2022-05-19_10h17.10.489,oddball,2022.1.2,59.97019482359056,
10,,,,,0,0,0,2,3,0,3,0,17,0,17,0,,,,,,,,,,,,,,,,,495.91185130015947,None,496.52910070004873,497.12910310016014,497.11232080007903,499.1135568001773,None,1,0.6086967198643833,2.6100281197577715,decreament,0.6,21,standard,None,100,,,,,,,,m,31,207,fr,r,0,raw,2022-05-19_10h17.10.489,oddball,2022.1.2,59.97019482359056,
10,,,,,0,0,0,2,3,0,3,0,18,0,18,0,,,,,,,,,,,,,,,,,499.1314054999966,None,499.7798858000897,500.380737000145,500.3639839000534,502.3646641999949,None,1,0.613146519754082,2.6139217196032405,decreament,0.6,21,standard,None,100,,,,,,,,m,31,207,fr,r,0,raw,2022-05-19_10h17.10.489,oddball,2022.1.2,59.97019482359056,
10,,,,,0,0,0,2,3,0,3,0,19,0,19,0,,,,,,,,,,,,,,,,,502.38165380014107,None,503.1149878001306,503.7151326001622,503.69817600003444,505.69908580021,j,0,0.6095084198750556,2.6104354199487716,decreament,0.6,21,standard,None,100,0.9813099997118115,,,,,,,m,31,207,fr,r,0,raw,2022-05-19_10h17.10.489,oddball,2022.1.2,59.97019482359056,
10,,,,,0,0,0,2,3,0,3,0,20,0,20,0,,,,,,,,,,,,,,,,,505.71568970009685,None,506.3991588000208,506.99938160018064,506.98297830019146,508.98352340003476,None,1,0.6135923198889941,2.6141103198751807,decreament,0.6,21,standard,None,100,,,,,,,,m,31,207,fr,r,0,raw,2022-05-19_10h17.10.489,oddball,2022.1.2,59.97019482359056,
10,,,,,0,0,0,2,3,0,3,0,21,0,21,0,,,,,,,,,,,,,,,,,509.00047110021114,None,509.6174614999909,510.2175780001562,510.2006542000454,512.2015993001405,None,1,0.6095914198085666,2.6105556196998805,decreament,0.6,21,standard,None,100,,,,,,,,m,31,207,fr,r,0,raw,2022-05-19_10h17.10.489,oddball,2022.1.2,59.97019482359056,
10,,,,,0,0,0,2,3,0,3,0,22,0,22,0,,,,,,,,,,,,,,,,,512.2184040001594,None,512.8016678001732,513.4018948001321,513.3855194000062,515.3860197002068,None,1,0.6099827201105654,2.610474520130083,decreament,0.6,21,standard,None,100,,,,,,,,m,31,207,fr,r,0,raw,2022-05-19_10h17.10.489,oddball,2022.1.2,59.97019482359056,
10,,,,,0,0,0,2,3,0,3,0,23,0,23,0,,,,,,,,,,,,,,,,,515.4029126001988,None,515.9696363999974,516.570098800119,516.5532923000865,518.5542938001454,None,1,0.6100765198934823,2.6110982198733836,decreament,0.6,21,standard,None,100,,,,,,,,m,31,207,fr,r,0,raw,2022-05-19_10h17.10.489,oddball,2022.1.2,59.97019482359056,
10,,,,,0,0,0,2,3,0,3,0,24,0,24,0,,,,,,,,,,,,,,,,,518.5712310001254,None,519.254326299997,519.8541717000771,519.8375183001626,521.8385874000378,j,0,0.6105879198294133,2.61173611972481,decreament,0.6,21,standard,None,100,0.7302829998079687,,,,,,,m,31,207,fr,r,0,raw,2022-05-19_10h17.10.489,oddball,2022.1.2,59.97019482359056,
10,,,,,0,0,0,2,3,0,3,0,25,0,25,0,,,,,,,,,,,,,,,,,521.8549894001335,None,522.5721890002023,522.9390295001213,522.9054807000794,524.9061682000756,j,1,0.36049041990190744,2.3611811199225485,decreament,0.36,23,oddball,j,60,0.5025449998211116,,,,,,,m,31,207,fr,r,0,raw,2022-05-19_10h17.10.489,oddball,2022.1.2,59.97019482359056,
10,,,,,0,0,0,2,3,0,3,0,26,0,26,0,,,,,,,,,,,,,,,,,524.9229809001554,None,525.6065124000888,526.2065885001794,526.1901040000375,528.1910502000246,None,1,0.6135502196848392,2.6145131196826696,decreament,0.6,21,standard,None,100,,,,,,,,m,31,207,fr,r,0,raw,2022-05-19_10h17.10.489,oddball,2022.1.2,59.97019482359056,
10,,,,,0,0,0,2,3,0,3,0,27,0,27,0,,,,,,,,,,,,,,,,,528.2075247000903,None,528.8078727000393,529.4081996001769,529.3914150001947,531.3918809001334,None,1,0.611161420121789,2.6115790200419724,decreament,0.6,21,standard,None,100,,,,,,,,m,31,207,fr,r,0,raw,2022-05-19_10h17.10.489,oddball,2022.1.2,59.97019482359056,
10,,,,,0,0,0,2,3,0,3,0,28,0,28,0,,,,,,,,,,,,,,,,,531.4089308001567,None,532.0589386001229,532.6590901000891,532.6428869001102,534.6433308999985,None,1,0.6099588198121637,2.6103730199392885,decreament,0.6,21,standard,None,100,,,,,,,,m,31,207,fr,r,0,raw,2022-05-19_10h17.10.489,oddball,2022.1.2,59.97019482359056,
10,,,,,0,0,0,2,3,0,3,0,29,0,29,0,,,,,,,,,,,,,,,,,534.6599394001532,None,535.2600550001953,535.8606102000922,535.8442251000088,537.8449101999868,None,1,0.6146058198064566,2.615295419935137,decreament,0.6,21,standard,None,100,,,,,,,,m,31,207,fr,r,0,raw,2022-05-19_10h17.10.489,oddball,2022.1.2,59.97019482359056,
10,,,,,0,0,0,2,4,0,4,0,0,0,0,0,,,,,,,,,,,,,,,556.0328391001094,None,557.7689609001391,None,558.4692134000361,559.0694330001716,559.0524144000374,561.0538159999996,None,1,0.611898620147258,2.613327420083806,increament,0.6,25,standard,None,100,,537.8653695001267,None,,,,,m,31,207,fr,r,0,raw,2022-05-19_10h17.10.489,oddball,2022.1.2,59.97019482359056,
10,,,,,0,0,0,2,4,0,4,0,1,0,1,0,,,,,,,,,,,,,,,,,561.0726958001032,None,561.8537440001965,562.4539952001069,562.4371007001027,564.4379448001273,None,1,0.6111377198249102,2.611968119861558,increament,0.6,25,standard,None,100,,,,,,,,m,31,207,fr,r,0,raw,2022-05-19_10h17.10.489,oddball,2022.1.2,59.97019482359056,
10,,,,,0,0,0,2,4,0,4,0,2,0,2,0,,,,,,,,,,,,,,,,,564.4545201000292,None,565.0550720000174,565.6551538000349,565.6385679000523,567.6390784999821,None,1,0.6083582197315991,2.608845119830221,increament,0.6,25,standard,None,100,,,,,,,,m,31,207,fr,r,0,raw,2022-05-19_10h17.10.489,oddball,2022.1.2,59.97019482359056,
10,,,,,0,0,0,2,4,0,4,0,3,0,3,0,,,,,,,,,,,,,,,,,567.6557618000079,None,568.2396913000848,568.8397195001598,568.8230727000628,570.824033100158,None,1,0.612927719950676,2.613945619901642,increament,0.6,25,standard,None,100,,,,,,,,m,31,207,fr,r,0,raw,2022-05-19_10h17.10.489,oddball,2022.1.2,59.97019482359056,
10,,,,,0,0,0,2,4,0,4,0,4,0,4,0,,,,,,,,,,,,,,,,,570.8413091001566,None,571.4739232000429,572.0740940000396,572.0575128002092,574.0586120001972,None,1,0.6122981200460345,2.6134560198988765,increament,0.6,25,standard,None,100,,,,,,,,m,31,207,fr,r,0,raw,2022-05-19_10h17.10.489,oddball,2022.1.2,59.97019482359056,
10,,,,,0,0,0,2,4,0,4,0,5,0,5,0,,,,,,,,,,,,,,,,,574.0746916001663,None,574.741780700162,575.3418626000639,575.3253049000632,577.3262319001369,None,1,0.6118929197546095,2.6128806199412793,increament,0.6,25,standard,None,100,,,,,,,,m,31,207,fr,r,0,raw,2022-05-19_10h17.10.489,oddball,2022.1.2,59.97019482359056,
10,,,,,0,0,0,2,4,0,4,0,6,0,6,0,,,,,,,,,,,,,,,,,577.3427727001254,None,577.9270245002117,578.5264275001828,578.5098021000158,580.5105624001008,None,1,0.6100915200076997,2.610861119814217,increament,0.6,25,standard,None,100,,,,,,,,m,31,207,fr,r,0,raw,2022-05-19_10h17.10.489,oddball,2022.1.2,59.97019482359056,
10,,,,,0,0,0,2,4,0,4,0,7,0,7,0,,,,,,,,,,,,,,,,,580.5273816001136,None,581.0943136001006,581.6943167999852,581.6779516001698,583.6783657001797,None,1,0.6130141199100763,2.6134041198529303,increament,0.6,25,standard,None,100,,,,,,,,m,31,207,fr,r,0,raw,2022-05-19_10h17.10.489,oddball,2022.1.2,59.97019482359056,
10,,,,,0,0,0,2,4,0,4,0,8,0,8,0,,,,,,,,,,,,,,,,,583.6950231001247,None,584.395461200038,584.9956538002007,584.9791002001148,586.9803520999849,None,1,0.6130823199637234,2.614373920019716,increament,0.6,25,standard,None,100,,,,,,,,m,31,207,fr,r,0,raw,2022-05-19_10h17.10.489,oddball,2022.1.2,59.97019482359056,
10,,,,,0,0,0,2,4,0,4,0,9,0,9,0,,,,,,,,,,,,,,,,,586.9971431000158,None,587.663380500162,588.263546800008,588.246993600158,590.2476402001921,None,1,0.6113192201592028,2.6118899199645966,increament,0.6,25,standard,None,100,,,,,,,,m,31,207,fr,r,0,raw,2022-05-19_10h17.10.489,oddball,2022.1.2,59.97019482359056,
10,,,,,0,0,0,2,4,0,4,0,10,0,10,0,,,,,,,,,,,,,,,,,590.2643190000672,None,591.0313063000795,591.6316230001394,591.6148757000919,593.615498600062,None,1,0.6123008199501783,2.6128738198895007,increament,0.6,25,standard,None,100,,,,,,,,m,31,207,fr,r,0,raw,2022-05-19_10h17.10.489,oddball,2022.1.2,59.97019482359056,
10,,,,,0,0,0,2,4,0,4,0,11,0,11,0,,,,,,,,,,,,,,,,,593.6320319999941,None,594.449300599983,595.0494595000055,595.0334717000369,597.0334193001036,None,1,0.6134205197449774,2.613219319842756,increament,0.6,25,standard,None,100,,,,,,,,m,31,207,fr,r,0,raw,2022-05-19_10h17.10.489,oddball,2022.1.2,59.97019482359056,
10,,,,,0,0,0,2,4,0,4,0,12,0,12,0,,,,,,,,,,,,,,,,,597.0503236001823,None,597.8678020001389,598.7177979000844,598.6845021999907,600.6852528001182,j,1,0.8428935199044645,2.8436635199468583,increament,0.84,27,oddball,j,140,0.5700500998646021,,,,,,,m,31,207,fr,r,0,raw,2022-05-19_10h17.10.489,oddball,2022.1.2,59.97019482359056,
10,,,,,0,0,0,2,4,0,4,0,13,0,13,0,,,,,,,,,,,,,,,,,600.7020596000366,None,601.4519423001911,602.0520742000081,602.0356191000901,604.0364111000672,None,1,0.6135865200776607,2.614451319910586,increament,0.6,25,standard,None,100,,,,,,,,m,31,207,fr,r,0,raw,2022-05-19_10h17.10.489,oddball,2022.1.2,59.97019482359056,
10,,,,,0,0,0,2,4,0,4,0,14,0,14,0,,,,,,,,,,,,,,,,,604.0535166000482,None,604.6195793000516,605.2199466000311,605.2038310000207,607.2042687002104,None,1,0.6149776196107268,2.6154101197607815,increament,0.6,25,standard,None,100,,,,,,,,m,31,207,fr,r,0,raw,2022-05-19_10h17.10.489,oddball,2022.1.2,59.97019482359056,
10,,,,,0,0,0,2,4,0,4,0,15,0,15,0,,,,,,,,,,,,,,,,,607.2207912001759,None,607.9542779000476,608.5545068001375,608.5379404001869,610.5387224000879,None,1,0.6133719200734049,2.6141268198844045,increament,0.6,25,standard,None,100,,,,,,,,m,31,207,fr,r,0,raw,2022-05-19_10h17.10.489,oddball,2022.1.2,59.97019482359056,
10,,,,,0,0,0,2,4,0,4,0,16,0,16,0,,,,,,,,,,,,,,,,,610.5556386001408,None,611.28895680001,611.8890539000276,611.8726951000281,613.8733040001243,None,1,0.6096385198179632,2.610237219836563,increament,0.6,25,standard,None,100,,,,,,,,m,31,207,fr,r,0,raw,2022-05-19_10h17.10.489,oddball,2022.1.2,59.97019482359056,
10,,,,,0,0,0,2,4,0,4,0,17,0,17,0,,,,,,,,,,,,,,,,,613.8900912001263,None,614.5066753001884,615.1071564999875,615.0903590000235,617.0913582001813,None,1,0.6140771198552102,2.615119819762185,increament,0.6,25,standard,None,100,,,,,,,,m,31,207,fr,r,0,raw,2022-05-19_10h17.10.489,oddball,2022.1.2,59.97019482359056,
10,,,,,0,0,0,2,4,0,4,0,18,0,18,0,,,,,,,,,,,,,,,,,617.1080708000809,None,617.8581354999915,618.4582333001308,618.4417090001516,620.4425620001275,j,0,0.6121919199358672,2.61309312004596,increament,0.6,25,standard,None,100,0.5417316998355091,,,,,,,m,31,207,fr,r,0,raw,2022-05-19_10h17.10.489,oddball,2022.1.2,59.97019482359056,
10,,,,,0,0,0,2,4,0,4,0,19,0,19,0,,,,,,,,,,,,,,,,,620.4592259000055,None,621.2761096002068,621.8764253000263,621.8596104001626,623.8602456001099,None,1,0.6112702197860926,2.6118966198991984,increament,0.6,25,standard,None,100,,,,,,,,m,31,207,fr,r,0,raw,2022-05-19_10h17.10.489,oddball,2022.1.2,59.97019482359056,
10,,,,,0,0,0,2,4,0,4,0,20,0,20,0,,,,,,,,,,,,,,,,,623.8770950001199,None,624.4275276002008,625.0273265000433,625.010839600116,627.0114978000056,None,1,0.6124397201929241,2.6131183200050145,increament,0.6,25,standard,None,100,,,,,,,,m,31,207,fr,r,0,raw,2022-05-19_10h17.10.489,oddball,2022.1.2,59.97019482359056,
10,,,,,0,0,0,2,4,0,4,0,21,0,21,0,,,,,,,,,,,,,,,,,627.0286315002013,None,627.8289899001829,628.4289493001997,628.4127831000369,630.4127625999972,None,1,0.6130673200823367,2.612987820059061,increament,0.6,25,standard,None,100,,,,,,,,m,31,207,fr,r,0,raw,2022-05-19_10h17.10.489,oddball,2022.1.2,59.97019482359056,
10,,,,,0,0,0,2,4,0,4,0,22,0,22,0,,,,,,,,,,,,,,,,,630.4294384000823,None,631.1132071001921,631.7132964001503,631.6968952000607,633.6975523000583,None,1,0.6131197197828442,2.6138254199177027,increament,0.6,25,standard,None,100,,,,,,,,m,31,207,fr,r,0,raw,2022-05-19_10h17.10.489,oddball,2022.1.2,59.97019482359056,
10,,,,,0,0,0,2,4,0,4,0,23,0,23,0,,,,,,,,,,,,,,,,,633.7142769000493,None,634.381040400127,635.114784500096,635.0814081002027,637.0818306000438,None,0,0.7311662200372666,2.731529120123014,increament,0.72,26,oddball,j,120,,,,,,,,m,31,207,fr,r,0,raw,2022-05-19_10h17.10.489,oddball,2022.1.2,59.97019482359056,
10,,,,,0,0,0,2,4,0,4,0,24,0,24,0,,,,,,,,,,,,,,,,,637.0984555000905,None,637.715668000048,638.3160006001126,638.2994015000295,640.3004323001951,None,1,0.613374319858849,2.614403019892052,increament,0.6,25,standard,None,100,,,,,,,,m,31,207,fr,r,0,raw,2022-05-19_10h17.10.489,oddball,2022.1.2,59.97019482359056,
10,,,,,0,0,0,2,4,0,4,0,25,0,25,0,,,,,,,,,,,,,,,,,640.3171212000307,None,641.016968900105,641.6172255000565,641.6003916000482,643.601588500198,None,1,0.6114188199862838,2.6126945200376213,increament,0.6,25,standard,None,100,,,,,,,,m,31,207,fr,r,0,raw,2022-05-19_10h17.10.489,oddball,2022.1.2,59.97019482359056,
10,,,,,0,0,0,2,4,0,4,0,26,0,26,0,,,,,,,,,,,,,,,,,643.6177058999892,None,644.4849113000091,645.0853685000911,645.0688810001593,647.0695913999807,None,1,0.6128373199608177,2.6134725199081004,increament,0.6,25,standard,None,100,,,,,,,,m,31,207,fr,r,0,raw,2022-05-19_10h17.10.489,oddball,2022.1.2,59.97019482359056,
10,,,,,0,0,0,2,4,0,4,0,27,0,27,0,,,,,,,,,,,,,,,,,647.0860262000933,None,647.8695010000374,648.8367435000837,648.8032888001762,650.8043930002023,None,0,0.9620528200175613,2.963239419972524,increament,0.96,28,oddball,j,160,,,,,,,,m,31,207,fr,r,0,raw,2022-05-19_10h17.10.489,oddball,2022.1.2,59.97019482359056,
10,,,,,0,0,0,2,4,0,4,0,28,0,28,0,,,,,,,,,,,,,,,,,650.8210440000985,None,651.4543956001289,652.0548054000828,652.0378819000907,654.0387349000666,None,1,0.6125819198787212,2.6134579197969288,increament,0.6,25,standard,None,100,,,,,,,,m,31,207,fr,r,0,raw,2022-05-19_10h17.10.489,oddball,2022.1.2,59.97019482359056,
10,,,,,0,0,0,2,4,0,4,0,29,0,29,0,,,,,,,,,,,,,,,,,654.055910800118,None,654.8053729000967,655.4055149001069,655.3891076000873,657.3901111001614,None,1,0.6126615200191736,2.613697319990024,increament,0.6,25,standard,None,100,,,,,,,,m,31,207,fr,r,0,raw,2022-05-19_10h17.10.489,oddball,2022.1.2,59.97019482359056,
10,,,,,0,0,0,2,5,0,5,0,0,0,0,0,,,,,,,,,,,,,,,692.1271785001736,None,693.5534285001922,None,694.3376652000006,694.9372167000547,694.9207076001912,696.921483800048,None,1,0.6095309199299663,2.610341120045632,decreament,0.6,21,standard,None,100,,657.4068091001827,None,,,,,m,31,207,fr,r,0,raw,2022-05-19_10h17.10.489,oddball,2022.1.2,59.97019482359056,
10,,,,,0,0,0,2,5,0,5,0,1,0,1,0,,,,,,,,,,,,,,,,,696.9383333001751,None,697.5388867000584,698.1383501000237,698.1218720001634,700.1226039000321,None,1,0.6096772199962288,2.6104309200309217,decreament,0.6,21,standard,None,100,,,,,,,,m,31,207,fr,r,0,raw,2022-05-19_10h17.10.489,oddball,2022.1.2,59.97019482359056,
10,,,,,0,0,0,2,5,0,5,0,2,0,2,0,,,,,,,,,,,,,,,,,700.1394856001716,None,700.8562919001561,701.4565048001241,701.4403161001392,703.4409233999904,None,1,0.6132156199309975,2.6137749198824167,decreament,0.6,21,standard,None,100,,,,,,,,m,31,207,fr,r,0,raw,2022-05-19_10h17.10.489,oddball,2022.1.2,59.97019482359056,
10,,,,,0,0,0,2,5,0,5,0,3,0,3,0,,,,,,,,,,,,,,,,,703.4571079001762,None,704.1242869000416,704.7245771000162,704.7084991000593,706.7085363001097,None,1,0.612929719965905,2.6129021199885756,decreament,0.6,21,standard,None,100,,,,,,,,m,31,207,fr,r,0,raw,2022-05-19_10h17.10.489,oddball,2022.1.2,59.97019482359056,
10,,,,,0,0,0,2,5,0,5,0,4,0,4,0,,,,,,,,,,,,,,,,,706.7252268001903,None,707.3923303000629,707.9926245000679,707.9757295001764,709.976446100045,None,1,0.6121810199692845,2.612960319966078,decreament,0.6,21,standard,None,100,,,,,,,,m,31,207,fr,r,0,raw,2022-05-19_10h17.10.489,oddball,2022.1.2,59.97019482359056,
10,,,,,0,0,0,2,5,0,5,0,5,0,5,0,,,,,,,,,,,,,,,,,709.9931304000784,None,710.593429800123,711.1938421002124,711.1772333001718,713.1776167000644,None,1,0.6121586197987199,2.612441319739446,decreament,0.6,21,standard,None,100,,,,,,,,m,31,207,fr,r,0,raw,2022-05-19_10h17.10.489,oddball,2022.1.2,59.97019482359056,
10,,,,,0,0,0,2,5,0,5,0,6,0,6,0,,,,,,,,,,,,,,,,,713.1941585000604,None,713.8611878000665,714.4611023000907,714.4448295000475,716.4453678000718,None,1,0.6132331197150052,2.6137656196951866,decreament,0.6,21,standard,None,100,,,,,,,,m,31,207,fr,r,0,raw,2022-05-19_10h17.10.489,oddball,2022.1.2,59.97019482359056,
10,,,,,0,0,0,2,5,0,5,0,7,0,7,0,,,,,,,,,,,,,,,,,716.4624217001256,None,717.1124925999902,717.7124255001545,717.6959906001575,719.6967780000996,None,1,0.6117345199454576,2.6125688201282173,decreament,0.6,21,standard,None,100,,,,,,,,m,31,207,fr,r,0,raw,2022-05-19_10h17.10.489,oddball,2022.1.2,59.97019482359056,
10,,,,,0,0,0,2,5,0,5,0,8,0,8,0,,,,,,,,,,,,,,,,,719.7133542001247,None,720.3970271002036,720.9973904001527,720.9805538000073,722.9811652000062,None,1,0.6094495200086385,2.6100516200531274,decreament,0.6,21,standard,None,100,,,,,,,,m,31,207,fr,r,0,raw,2022-05-19_10h17.10.489,oddball,2022.1.2,59.97019482359056,
10,,,,,0,0,0,2,5,0,5,0,9,0,9,0,,,,,,,,,,,,,,,,,722.9981399001554,None,723.8482294999994,724.3317354000174,724.298623100156,726.2992234001867,None,0,0.48050221987068653,2.481115319998935,decreament,0.48,24,oddball,j,80,,,,,,,,m,31,207,fr,r,0,raw,2022-05-19_10h17.10.489,oddball,2022.1.2,59.97019482359056,
10,,,,,0,0,0,2,5,0,5,0,10,0,10,0,,,,,,,,,,,,,,,,,726.3158607000951,None,726.8663347000256,727.4665924999863,727.4502126001753,729.4503371000756,None,1,0.6091738201212138,2.6092434199526906,decreament,0.6,21,standard,None,100,,,,,,,,m,31,207,fr,r,0,raw,2022-05-19_10h17.10.489,oddball,2022.1.2,59.97019482359056,
10,,,,,0,0,0,2,5,0,5,0,11,0,11,0,,,,,,,,,,,,,,,,,729.4672725000419,None,730.1512613000814,730.7508286000229,730.7342062001117,732.7353109000251,None,1,0.6117517200764269,2.6129160202108324,decreament,0.6,21,standard,None,100,,,,,,,,m,31,207,fr,r,0,raw,2022-05-19_10h17.10.489,oddball,2022.1.2,59.97019482359056,
10,,,,,0,0,0,2,5,0,5,0,12,0,12,0,,,,,,,,,,,,,,,,,732.7517675000709,None,733.4184901001863,734.0187603000086,734.0022192001343,736.0029283000622,None,1,0.6111807199195027,2.611934119835496,decreament,0.6,21,standard,None,100,,,,,,,,m,31,207,fr,r,0,raw,2022-05-19_10h17.10.489,oddball,2022.1.2,59.97019482359056,
10,,,,,0,0,0,2,5,0,5,0,13,0,13,0,,,,,,,,,,,,,,,,,736.0196820001584,None,736.5535707001109,737.153456200147,737.1369080001023,739.1379071001429,None,1,0.6106620198115706,2.611684019677341,decreament,0.6,21,standard,None,100,,,,,,,,m,31,207,fr,r,0,raw,2022-05-19_10h17.10.489,oddball,2022.1.2,59.97019482359056,
10,,,,,0,0,0,2,5,0,5,0,14,0,14,0,,,,,,,,,,,,,,,,,739.1546942000277,None,739.8542685001157,740.4544037000742,740.4379673001822,742.4387936000712,None,1,0.6136693200096488,2.614509320119396,decreament,0.6,21,standard,None,100,,,,,,,,m,31,207,fr,r,0,raw,2022-05-19_10h17.10.489,oddball,2022.1.2,59.97019482359056,
10,,,,,0,0,0,2,5,0,5,0,15,0,15,0,,,,,,,,,,,,,,,,,742.4553795000538,None,742.9721299000084,743.5723535001744,743.5557760000229,745.5564617000055,None,1,0.6126419201027602,2.6136572200339288,decreament,0.6,21,standard,None,100,,,,,,,,m,31,207,fr,r,0,raw,2022-05-19_10h17.10.489,oddball,2022.1.2,59.97019482359056,
10,,,,,0,0,0,2,5,0,5,0,16,0,16,0,,,,,,,,,,,,,,,,,745.5732743002009,None,746.2732390000019,746.8739197000396,746.8572621000931,748.8576288002077,None,1,0.612423820188269,2.6127012202050537,decreament,0.6,21,standard,None,100,,,,,,,,m,31,207,fr,r,0,raw,2022-05-19_10h17.10.489,oddball,2022.1.2,59.97019482359056,
10,,,,,0,0,0,2,5,0,5,0,17,0,17,0,,,,,,,,,,,,,,,,,748.874401899986,None,749.4914919000585,750.091447400162,750.074647200061,752.075537700206,None,1,0.6126119198743254,2.6135085199493915,decreament,0.6,21,standard,None,100,,,,,,,,m,31,207,fr,r,0,raw,2022-05-19_10h17.10.489,oddball,2022.1.2,59.97019482359056,
10,,,,,0,0,0,2,5,0,5,0,18,0,18,0,,,,,,,,,,,,,,,,,752.0921146001201,None,752.7596529000439,753.3592797000892,753.3430308999959,755.3435258001555,None,1,0.6078691200818866,2.608344820095226,decreament,0.6,21,standard,None,100,,,,,,,,m,31,207,fr,r,0,raw,2022-05-19_10h17.10.489,oddball,2022.1.2,59.97019482359056,
10,,,,,0,0,0,2,5,0,5,0,19,0,19,0,,,,,,,,,,,,,,,,,755.3601927000564,None,755.9437656002119,756.5441310000606,756.5275101000443,758.5279541001655,None,1,0.6126863202080131,2.6131099201738834,decreament,0.6,21,standard,None,100,,,,,,,,m,31,207,fr,r,0,raw,2022-05-19_10h17.10.489,oddball,2022.1.2,59.97019482359056,
10,,,,,0,0,0,2,5,0,5,0,20,0,20,0,,,,,,,,,,,,,,,,,758.5449215001427,None,759.1623888001777,759.5285030000377,759.5120105000678,761.5126773000229,j,1,0.37479981989599764,2.375498619861901,decreament,0.36,23,oddball,j,60,1.0623128998558968,,,,,,,m,31,207,fr,r,0,raw,2022-05-19_10h17.10.489,oddball,2022.1.2,59.97019482359056,
10,,,,,0,0,0,2,5,0,5,0,21,0,21,0,,,,,,,,,,,,,,,,,761.5292232001666,None,762.2630090001039,762.8629840000067,762.8464487001766,764.8471092002001,None,1,0.6118678199127316,2.6125271199271083,decreament,0.6,21,standard,None,100,,,,,,,,m,31,207,fr,r,0,raw,2022-05-19_10h17.10.489,oddball,2022.1.2,59.97019482359056,
10,,,,,0,0,0,2,5,0,5,0,22,0,22,0,,,,,,,,,,,,,,,,,764.8639079001732,None,765.5475014001131,766.1480186001863,766.1312439001631,768.1318088001572,None,1,0.6122797199059278,2.61277251993306,decreament,0.6,21,standard,None,100,,,,,,,,m,31,207,fr,r,0,raw,2022-05-19_10h17.10.489,oddball,2022.1.2,59.97019482359056,
10,,,,,0,0,0,2,5,0,5,0,23,0,23,0,,,,,,,,,,,,,,,,,768.1483779000118,None,768.7655225000344,769.3656457001343,769.348769400036,771.349817099981,None,1,0.610735819907859,2.6118705198168755,decreament,0.6,21,standard,None,100,,,,,,,,m,31,207,fr,r,0,raw,2022-05-19_10h17.10.489,oddball,2022.1.2,59.97019482359056,
10,,,,,0,0,0,2,5,0,5,0,24,0,24,0,,,,,,,,,,,,,,,,,771.3663338001352,None,771.966651200084,772.5668213001918,772.5499640000053,774.5512280000839,None,1,0.6121985199861228,2.6135159200057387,decreament,0.6,21,standard,None,100,,,,,,,,m,31,207,fr,r,0,raw,2022-05-19_10h17.10.489,oddball,2022.1.2,59.97019482359056,
10,,,,,0,0,0,2,5,0,5,0,25,0,25,0,,,,,,,,,,,,,,,,,774.5686120002065,None,775.3179169001523,775.9178847000003,775.9015264001209,777.902671399992,None,1,0.6128450196702033,2.614045419730246,decreament,0.6,21,standard,None,100,,,,,,,,m,31,207,fr,r,0,raw,2022-05-19_10h17.10.489,oddball,2022.1.2,59.97019482359056,
10,,,,,0,0,0,2,5,0,5,0,26,0,26,0,,,,,,,,,,,,,,,,,777.918878500117,None,778.4857729000505,779.0859747000504,779.0692485000473,781.0701095000841,None,1,0.6131159199867398,2.6139974200632423,decreament,0.6,21,standard,None,100,,,,,,,,m,31,207,fr,r,0,raw,2022-05-19_10h17.10.489,oddball,2022.1.2,59.97019482359056,
10,,,,,0,0,0,2,5,0,5,0,27,0,27,0,,,,,,,,,,,,,,,,,781.0869371001609,None,781.7372726001777,782.3370271001477,782.3204987000208,784.3213855000213,None,1,0.6096349197905511,2.6105957198888063,decreament,0.6,21,standard,None,100,,,,,,,,m,31,207,fr,r,0,raw,2022-05-19_10h17.10.489,oddball,2022.1.2,59.97019482359056,
10,,,,,0,0,0,2,5,0,5,0,28,0,28,0,,,,,,,,,,,,,,,,,784.3379938001744,None,785.0385605001356,785.6384033001959,785.6215652001556,787.6222401000559,j,0,0.6121194201987237,2.6127707201521844,decreament,0.6,21,standard,None,100,0.6503724998328835,,,,,,,m,31,207,fr,r,0,raw,2022-05-19_10h17.10.489,oddball,2022.1.2,59.97019482359056,
10,,,,,0,0,0,2,5,0,5,0,29,0,29,0,,,,,,,,,,,,,,,,,787.6390504001174,None,788.3228013000917,788.5727086002007,788.5396792001557,790.5400801000651,j,1,0.24439011979848146,2.2447819197550416,decreament,0.24,22,oddball,j,40,0.7391363000497222,,,,,,,m,31,207,fr,r,0,raw,2022-05-19_10h17.10.489,oddball,2022.1.2,59.97019482359056,
10,,,,,0,0,0,2,6,0,6,0,0,0,0,0,,,,,,,,,,,,,,,815.8876550002024,None,817.4841342000291,None,818.0674922000617,818.6678073001094,818.6510790002067,820.6517502001952,None,1,0.6121292198076844,2.6127676197793335,increament,0.6,25,standard,None,100,,790.5572731001303,None,,,,,m,31,207,fr,r,0,raw,2022-05-19_10h17.10.489,oddball,2022.1.2,59.97019482359056,
10,,,,,0,0,0,2,6,0,6,0,1,0,1,0,,,,,,,,,,,,,,,,,820.6685784000438,None,821.3855126001872,821.9855319000781,821.9686376000755,823.96998360008,None,1,0.6093758197966963,2.610806519864127,increament,0.6,25,standard,None,100,,,,,,,,m,31,207,fr,r,0,raw,2022-05-19_10h17.10.489,oddball,2022.1.2,59.97019482359056,
10,,,,,0,0,0,2,6,0,6,0,2,0,2,0,,,,,,,,,,,,,,,,,823.9865679000504,None,824.5532704000361,825.1533232000656,825.1366038001142,827.1376237000804,None,1,0.612747420091182,2.613846220076084,increament,0.6,25,standard,None,100,,,,,,,,m,31,207,fr,r,0,raw,2022-05-19_10h17.10.489,oddball,2022.1.2,59.97019482359056,
10,,,,,0,0,0,2,6,0,6,0,3,0,3,0,,,,,,,,,,,,,,,,,827.1541856999975,None,827.7215774001088,828.3209085001145,828.3043272001669,830.3055315001402,None,1,0.6080338198225945,2.6093380199745297,increament,0.6,25,standard,None,100,,,,,,,,m,31,207,fr,r,0,raw,2022-05-19_10h17.10.489,oddball,2022.1.2,59.97019482359056,
10,,,,,0,0,0,2,6,0,6,0,4,0,4,0,,,,,,,,,,,,,,,,,830.3218304000329,None,830.9390734001063,831.53945260006,831.5226716001052,833.5230821000878,None,1,0.6115055198315531,2.6115148197859526,increament,0.6,25,standard,None,100,,,,,,,,m,31,207,fr,r,0,raw,2022-05-19_10h17.10.489,oddball,2022.1.2,59.97019482359056,
10,,,,,0,0,0,2,6,0,6,0,5,0,5,0,,,,,,,,,,,,,,,,,833.5397781000938,None,834.1402611001395,834.7404339001514,834.72378700017,836.7244569000322,None,1,0.6126474200282246,2.6132413200102746,increament,0.6,25,standard,None,100,,,,,,,,m,31,207,fr,r,0,raw,2022-05-19_10h17.10.489,oddball,2022.1.2,59.97019482359056,
10,,,,,0,0,0,2,6,0,6,0,6,0,6,0,,,,,,,,,,,,,,,,,836.7411671001464,None,837.6245966001879,838.2247682001907,838.2082748999819,840.209273400018,None,1,0.6133756197523326,2.6144605197478086,increament,0.6,25,standard,None,100,,,,,,,,m,31,207,fr,r,0,raw,2022-05-19_10h17.10.489,oddball,2022.1.2,59.97019482359056,
10,,,,,0,0,0,2,6,0,6,0,7,0,7,0,,,,,,,,,,,,,,,,,840.2255574001465,None,840.8425473000389,841.4428369000088,841.4260317001026,843.4273435000796,None,1,0.6138137199450284,2.6152076199650764,increament,0.6,25,standard,None,100,,,,,,,,m,31,207,fr,r,0,raw,2022-05-19_10h17.10.489,oddball,2022.1.2,59.97019482359056,
10,,,,,0,0,0,2,6,0,6,0,8,0,8,0,,,,,,,,,,,,,,,,,843.444714399986,None,844.0437388999853,844.644203200005,844.6272885000799,846.6281034999993,None,1,0.6121464199386537,2.6129593199584633,increament,0.6,25,standard,None,100,,,,,,,,m,31,207,fr,r,0,raw,2022-05-19_10h17.10.489,oddball,2022.1.2,59.97019482359056,
10,,,,,0,0,0,2,6,0,6,0,9,0,9,0,,,,,,,,,,,,,,,,,846.64474290004,None,847.3446718000341,848.1954417000525,848.1620960000437,850.163155300077,j,1,0.8493712197523564,2.8504759198985994,increament,0.84,27,oddball,j,140,0.7326914998702705,,,,,,,m,31,207,fr,r,0,raw,2022-05-19_10h17.10.489,oddball,2022.1.2,59.97019482359056,
10,,,,,0,0,0,2,6,0,6,0,10,0,10,0,,,,,,,,,,,,,,,,,850.1796267000027,None,850.7635044001509,851.3632011001464,851.3468349000905,853.3479119001422,None,1,0.609737719874829,2.6109004197642207,increament,0.6,25,standard,None,100,,,,,,,,m,31,207,fr,r,0,raw,2022-05-19_10h17.10.489,oddball,2022.1.2,59.97019482359056,
10,,,,,0,0,0,2,6,0,6,0,11,0,11,0,,,,,,,,,,,,,,,,,853.3640189000871,None,853.9643945000134,854.5648297001608,854.547854400007,856.5487596001476,None,1,0.6110451200511307,2.611951919971034,increament,0.6,25,standard,None,100,,,,,,,,m,31,207,fr,r,0,raw,2022-05-19_10h17.10.489,oddball,2022.1.2,59.97019482359056,
10,,,,,0,0,0,2,6,0,6,0,12,0,12,0,,,,,,,,,,,,,,,,,856.5653425999917,None,857.1489817001857,857.7491963000502,857.7324875001796,859.7335495001171,None,1,0.6096775198820978,2.610760519746691,increament,0.6,25,standard,None,100,,,,,,,,m,31,207,fr,r,0,raw,2022-05-19_10h17.10.489,oddball,2022.1.2,59.97019482359056,
10,,,,,0,0,0,2,6,0,6,0,13,0,13,0,,,,,,,,,,,,,,,,,859.7510217002127,None,860.4001045001205,861.0001709000207,860.983631500043,862.9843165001366,None,1,0.6116172198671848,2.612318019848317,increament,0.6,25,standard,None,100,,,,,,,,m,31,207,fr,r,0,raw,2022-05-19_10h17.10.489,oddball,2022.1.2,59.97019482359056,
10,,,,,0,0,0,2,6,0,6,0,14,0,14,0,,,,,,,,,,,,,,,,,863.0013823001646,None,863.6847188000102,864.2847504001111,864.2681430000812,866.2689253001008,None,1,0.6104377198498696,2.611208919901401,increament,0.6,25,standard,None,100,,,,,,,,m,31,207,fr,r,0,raw,2022-05-19_10h17.10.489,oddball,2022.1.2,59.97019482359056,
10,,,,,0,0,0,2,6,0,6,0,15,0,15,0,,,,,,,,,,,,,,,,,866.2857131001074,None,866.919178500073,867.519120400073,867.5028533001896,869.5038447000552,None,1,0.613680420210585,2.6147509200964123,increament,0.6,25,standard,None,100,,,,,,,,m,31,207,fr,r,0,raw,2022-05-19_10h17.10.489,oddball,2022.1.2,59.97019482359056,
10,,,,,0,0,0,2,6,0,6,0,16,0,16,0,,,,,,,,,,,,,,,,,869.5203888001852,None,870.1202687001787,870.7204935001209,870.7041494001169,872.7046043002047,None,1,0.6150170201435685,2.615482220193371,increament,0.6,25,standard,None,100,,,,,,,,m,31,207,fr,r,0,raw,2022-05-19_10h17.10.489,oddball,2022.1.2,59.97019482359056,
10,,,,,0,0,0,2,6,0,6,0,17,0,17,0,,,,,,,,,,,,,,,,,872.7213154002093,None,873.4051201001275,874.0050043000374,873.9884799001738,875.9894595001824,None,1,0.6116458198521286,2.6126540198456496,increament,0.6,25,standard,None,100,,,,,,,,m,31,207,fr,r,0,raw,2022-05-19_10h17.10.489,oddball,2022.1.2,59.97019482359056,
10,,,,,0,0,0,2,6,0,6,0,18,0,18,0,,,,,,,,,,,,,,,,,876.0062245000154,None,876.6395573001355,877.2394912000746,877.2231083000079,879.2238822001964,None,1,0.6118605197407305,2.6127006197348237,increament,0.6,25,standard,None,100,,,,,,,,m,31,207,fr,r,0,raw,2022-05-19_10h17.10.489,oddball,2022.1.2,59.97019482359056,
10,,,,,0,0,0,2,6,0,6,0,19,0,19,0,,,,,,,,,,,,,,,,,879.240347900195,None,880.0743428000715,880.6743367000017,880.6576386999805,882.6584750001784,None,1,0.6127043201122433,2.61357162008062,increament,0.6,25,standard,None,100,,,,,,,,m,31,207,fr,r,0,raw,2022-05-19_10h17.10.489,oddball,2022.1.2,59.97019482359056,
10,,,,,0,0,0,2,6,0,6,0,20,0,20,0,,,,,,,,,,,,,,,,,882.675419599982,None,883.258712900104,883.8591434999835,883.8424623000901,885.8431560001336,None,1,0.6132934198249131,2.6140001197345555,increament,0.6,25,standard,None,100,,,,,,,,m,31,207,fr,r,0,raw,2022-05-19_10h17.10.489,oddball,2022.1.2,59.97019482359056,
10,,,,,0,0,0,2,6,0,6,0,21,0,21,0,,,,,,,,,,,,,,,,,885.8596626000945,None,886.6264784000814,887.2268762001768,887.2106962001417,889.2111447001807,None,1,0.6134914201684296,2.6139038200490177,increament,0.6,25,standard,None,100,,,,,,,,m,31,207,fr,r,0,raw,2022-05-19_10h17.10.489,oddball,2022.1.2,59.97019482359056,
10,,,,,0,0,0,2,6,0,6,0,22,0,22,0,,,,,,,,,,,,,,,,,889.2274549000431,None,889.7777869000565,890.3781701000407,890.3614287001546,892.3619921000209,None,1,0.613492019707337,2.614039219683036,increament,0.6,25,standard,None,100,,,,,,,,m,31,207,fr,r,0,raw,2022-05-19_10h17.10.489,oddball,2022.1.2,59.97019482359056,
10,,,,,0,0,0,2,6,0,6,0,23,0,23,0,,,,,,,,,,,,,,,,,892.3787708000746,None,893.195803700015,893.7956187999807,893.778969499981,895.7796473000199,None,1,0.6091564199887216,2.609830419998616,increament,0.6,25,standard,None,100,,,,,,,,m,31,207,fr,r,0,raw,2022-05-19_10h17.10.489,oddball,2022.1.2,59.97019482359056,
10,,,,,0,0,0,2,6,0,6,0,24,0,24,0,,,,,,,,,,,,,,,,,895.7963210002054,None,896.6302020000294,897.2306588001084,897.2143061000388,899.2147464000154,None,1,0.6139756198972464,2.614392119925469,increament,0.6,25,standard,None,100,,,,,,,,m,31,207,fr,r,0,raw,2022-05-19_10h17.10.489,oddball,2022.1.2,59.97019482359056,
10,,,,,0,0,0,2,6,0,6,0,25,0,25,0,,,,,,,,,,,,,,,,,899.2313387000468,None,899.8315829001367,900.5653292001225,900.5320938001387,902.5327067000326,None,0,0.7295171201694757,2.730185420019552,increament,0.72,26,oddball,j,120,,,,,,,,m,31,207,fr,r,0,raw,2022-05-19_10h17.10.489,oddball,2022.1.2,59.97019482359056,
10,,,,,0,0,0,2,6,0,6,0,26,0,26,0,,,,,,,,,,,,,,,,,902.5500976000912,None,903.2329167001881,903.8329861001112,903.8164608001243,905.8171720001847,None,1,0.6134649198502302,2.614158019889146,increament,0.6,25,standard,None,100,,,,,,,,m,31,207,fr,r,0,raw,2022-05-19_10h17.10.489,oddball,2022.1.2,59.97019482359056,
10,,,,,0,0,0,2,6,0,6,0,27,0,27,0,,,,,,,,,,,,,,,,,905.8336501000449,None,906.4006960000843,907.0008177000564,906.984446400078,908.985338400118,None,1,0.6096558202989399,2.6106307201553136,increament,0.6,25,standard,None,100,,,,,,,,m,31,207,fr,r,0,raw,2022-05-19_10h17.10.489,oddball,2022.1.2,59.97019482359056,
10,,,,,0,0,0,2,6,0,6,0,28,0,28,0,,,,,,,,,,,,,,,,,909.0029192001093,None,909.6852826001123,910.2857741999906,910.2691879000049,912.2701747000683,None,1,0.6135933198966086,2.6145531199872494,increament,0.6,25,standard,None,100,,,,,,,,m,31,207,fr,r,0,raw,2022-05-19_10h17.10.489,oddball,2022.1.2,59.97019482359056,
10,,,,,0,0,0,2,6,0,6,0,29,0,29,0,,,,,,,,,,,,,,,,,912.2864980001468,None,912.8865599001292,913.8534815001767,913.8206907000858,915.8214273001067,j,1,0.963119620224461,2.9638280202634633,increament,0.96,28,oddball,j,160,0.8572882998269051,,,,,,,m,31,207,fr,r,0,raw,2022-05-19_10h17.10.489,oddball,2022.1.2,59.97019482359056,
10,,,,,0,0,0,2,7,0,7,0,0,0,0,0,,,,,,,,,,,,,,,936.4025297001936,None,938.0294523001648,None,938.5464563001879,939.1464951999951,939.1296367000323,941.1309957001358,None,1,0.6114404201507568,2.6128631201572716,decreament,0.6,21,standard,None,100,,915.8413214001339,None,,,,,m,31,207,fr,r,0,raw,2022-05-19_10h17.10.489,oddball,2022.1.2,59.97019482359056,
10,,,,,0,0,0,2,7,0,7,0,1,0,1,0,,,,,,,,,,,,,,,,,941.1471590001602,None,941.7807864001952,942.381027400028,942.3642799002118,944.3649170000572,None,1,0.6134289198089391,2.6140575199387968,decreament,0.6,21,standard,None,100,,,,,,,,m,31,207,fr,r,0,raw,2022-05-19_10h17.10.489,oddball,2022.1.2,59.97019482359056,
10,,,,,0,0,0,2,7,0,7,0,2,0,2,0,,,,,,,,,,,,,,,,,944.3818597001955,None,944.9485996000003,945.5487921000458,945.5324172000401,947.533196200151,None,1,0.614315619925037,2.6151506199967116,decreament,0.6,21,standard,None,100,,,,,,,,m,31,207,fr,r,0,raw,2022-05-19_10h17.10.489,oddball,2022.1.2,59.97019482359056,
10,,,,,0,0,0,2,7,0,7,0,3,0,3,0,,,,,,,,,,,,,,,,,947.5499949001241,None,948.2336057000794,948.8336667001713,948.8168942001648,950.8176523000002,None,1,0.6113712200894952,2.6121202199719846,decreament,0.6,21,standard,None,100,,,,,,,,m,31,207,fr,r,0,raw,2022-05-19_10h17.10.489,oddball,2022.1.2,59.97019482359056,
10,,,,,0,0,0,2,7,0,7,0,4,0,4,0,,,,,,,,,,,,,,,,,950.8345812000334,None,951.4678323001135,952.0680327001028,952.0512048001401,954.0521813000087,None,1,0.6121936200652272,2.613210520008579,decreament,0.6,21,standard,None,100,,,,,,,,m,31,207,fr,r,0,raw,2022-05-19_10h17.10.489,oddball,2022.1.2,59.97019482359056,
10,,,,,0,0,0,2,7,0,7,0,5,0,5,0,,,,,,,,,,,,,,,,,954.069062900031,None,954.7192654001992,955.3195425001904,955.3026794001926,957.3033708999865,None,1,0.6124259198550135,2.613057419890538,decreament,0.6,21,standard,None,100,,,,,,,,m,31,207,fr,r,0,raw,2022-05-19_10h17.10.489,oddball,2022.1.2,59.97019482359056,
10,,,,,0,0,0,2,7,0,7,0,6,0,6,0,,,,,,,,,,,,,,,,,957.3198199002072,None,958.0372472000308,958.6369783000555,958.6204994001891,960.6212014001794,None,1,0.6119974199682474,2.612676019780338,decreament,0.6,21,standard,None,100,,,,,,,,m,31,207,fr,r,0,raw,2022-05-19_10h17.10.489,oddball,2022.1.2,59.97019482359056,
10,,,,,0,0,0,2,7,0,7,0,7,0,7,0,,,,,,,,,,,,,,,,,960.6378003000282,None,961.4551077000797,962.0552586000413,962.0389570000116,964.0392088000663,None,1,0.6112647200934589,2.611406120005995,decreament,0.6,21,standard,None,100,,,,,,,,m,31,207,fr,r,0,raw,2022-05-19_10h17.10.489,oddball,2022.1.2,59.97019482359056,
10,,,,,0,0,0,2,7,0,7,0,8,0,8,0,,,,,,,,,,,,,,,,,964.055959300138,None,964.6561016000342,965.256510599982,965.2397314000409,967.2406167001463,None,1,0.6121894200332463,2.6130959200672805,decreament,0.6,21,standard,None,100,,,,,,,,m,31,207,fr,r,0,raw,2022-05-19_10h17.10.489,oddball,2022.1.2,59.97019482359056,
10,,,,,0,0,0,2,7,0,7,0,9,0,9,0,,,,,,,,,,,,,,,,,967.2571353001986,None,967.9242671001703,968.5242752002086,968.5077147001866,970.508775500115,j,0,0.6094490198884159,2.610585920047015,decreament,0.6,21,standard,None,100,1.05811439990066,,,,,,,m,31,207,fr,r,0,raw,2022-05-19_10h17.10.489,oddball,2022.1.2,59.97019482359056,
10,,,,,0,0,0,2,7,0,7,0,10,0,10,0,,,,,,,,,,,,,,,,,970.5264458002057,None,971.1252072001807,971.7252691001631,971.708538700128,973.7094659002032,None,1,0.6121150199323893,2.6130903197918087,decreament,0.6,21,standard,None,100,,,,,,,,m,31,207,fr,r,0,raw,2022-05-19_10h17.10.489,oddball,2022.1.2,59.97019482359056,
10,,,,,0,0,0,2,7,0,7,0,11,0,11,0,,,,,,,,,,,,,,,,,973.7265063000377,None,974.3597291000187,974.9602022999898,974.943493800005,976.9445727001876,None,1,0.6134798198472708,2.614632919896394,decreament,0.6,21,standard,None,100,,,,,,,,m,31,207,fr,r,0,raw,2022-05-19_10h17.10.489,oddball,2022.1.2,59.97019482359056,
10,,,,,0,0,0,2,7,0,7,0,12,0,12,0,,,,,,,,,,,,,,,,,976.9612096000928,None,977.627848500153,978.2280205001589,978.2113555001561,980.211867300095,None,1,0.6119755196850747,2.6124912195373327,decreament,0.6,21,standard,None,100,,,,,,,,m,31,207,fr,r,0,raw,2022-05-19_10h17.10.489,oddball,2022.1.2,59.97019482359056,
10,,,,,0,0,0,2,7,0,7,0,13,0,13,0,,,,,,,,,,,,,,,,,980.2286144001409,None,980.8122362000868,981.1790701001883,981.1460365999956,983.1465671001934,j,1,0.3596721200738102,2.3601853200234473,decreament,0.36,23,oddball,j,60,0.8439000998623669,,,,,,,m,31,207,fr,r,0,raw,2022-05-19_10h17.10.489,oddball,2022.1.2,59.97019482359056,
10,,,,,0,0,0,2,7,0,7,0,14,0,14,0,,,,,,,,,,,,,,,,,983.1633031000383,None,983.7470335999969,984.3468377999961,984.3309752000496,986.3307862000074,None,1,0.6133004201110452,2.6130312199238688,decreament,0.6,21,standard,None,100,,,,,,,,m,31,207,fr,r,0,raw,2022-05-19_10h17.10.489,oddball,2022.1.2,59.97019482359056,
10,,,,,0,0,0,2,7,0,7,0,15,0,15,0,,,,,,,,,,,,,,,,,986.3473768001422,None,986.9479716999922,987.5482923001982,987.531432799995,989.5322992000729,None,1,0.6106324200518429,2.6115364199504256,decreament,0.6,21,standard,None,100,,,,,,,,m,31,207,fr,r,0,raw,2022-05-19_10h17.10.489,oddball,2022.1.2,59.97019482359056,
10,,,,,0,0,0,2,7,0,7,0,16,0,16,0,,,,,,,,,,,,,,,,,989.5489290000405,None,990.24919280014,990.8494089001324,990.8327384002041,992.8339400000405,None,1,0.6140313199721277,2.6153038199990988,decreament,0.6,21,standard,None,100,,,,,,,,m,31,207,fr,r,0,raw,2022-05-19_10h17.10.489,oddball,2022.1.2,59.97019482359056,
10,,,,,0,0,0,2,7,0,7,0,17,0,17,0,,,,,,,,,,,,,,,,,992.8506091001909,None,993.550824600039,994.1505299001001,994.1339267001022,996.1347412001342,None,1,0.6107457198668271,2.6115591197740287,decreament,0.6,21,standard,None,100,,,,,,,,m,31,207,fr,r,0,raw,2022-05-19_10h17.10.489,oddball,2022.1.2,59.97019482359056,
10,,,,,0,0,0,2,7,0,7,0,18,0,18,0,,,,,,,,,,,,,,,,,996.1514966001268,None,996.7515837000683,997.2352377001662,997.2016531000845,999.2025758000091,j,1,0.4799886201508343,2.480916420230642,decreament,0.48,24,oddball,j,80,1.1883555999957025,,,,,,,m,31,207,fr,r,0,raw,2022-05-19_10h17.10.489,oddball,2022.1.2,59.97019482359056,
10,,,,,0,0,0,2,7,0,7,0,19,0,19,0,,,,,,,,,,,,,,,,,999.2192114000209,None,999.8692602000665,1000.4696531000081,1000.45323990006,1002.4540602001362,None,1,0.6139645199291408,2.6148698199540377,decreament,0.6,21,standard,None,100,,,,,,,,m,31,207,fr,r,0,raw,2022-05-19_10h17.10.489,oddball,2022.1.2,59.97019482359056,
10,,,,,0,0,0,2,7,0,7,0,20,0,20,0,,,,,,,,,,,,,,,,,1002.470691600116,None,1003.0541923001874,1003.6540767000988,1003.6378884001169,1005.6386791002005,None,1,0.6100505199283361,2.610871419776231,decreament,0.6,21,standard,None,100,,,,,,,,m,31,207,fr,r,0,raw,2022-05-19_10h17.10.489,oddball,2022.1.2,59.97019482359056,
10,,,,,0,0,0,2,7,0,7,0,21,0,21,0,,,,,,,,,,,,,,,,,1005.6549639001023,None,1006.3218161000405,1006.9220850002021,1006.9057784001343,1008.9062233001459,None,1,0.613671219907701,2.6141330199316144,decreament,0.6,21,standard,None,100,,,,,,,,m,31,207,fr,r,0,raw,2022-05-19_10h17.10.489,oddball,2022.1.2,59.97019482359056,
10,,,,,0,0,0,2,7,0,7,0,22,0,22,0,,,,,,,,,,,,,,,,,1008.9229556000791,None,1009.5066540001426,1010.1068707001396,1010.0901990002021,1012.0907303001732,None,1,0.6113418198656291,2.6118124197237194,decreament,0.6,21,standard,None,100,,,,,,,,m,31,207,fr,r,0,raw,2022-05-19_10h17.10.489,oddball,2022.1.2,59.97019482359056,
10,,,,,0,0,0,2,7,0,7,0,23,0,23,0,,,,,,,,,,,,,,,,,1012.107692199992,None,1012.7910204001237,1013.3913631001487,1013.3749158000574,1015.3753992000129,None,1,0.6136978201102465,2.61415342008695,decreament,0.6,21,standard,None,100,,,,,,,,m,31,207,fr,r,0,raw,2022-05-19_10h17.10.489,oddball,2022.1.2,59.97019482359056,
10,,,,,0,0,0,2,7,0,7,0,24,0,24,0,,,,,,,,,,,,,,,,,1015.392047900008,None,1016.0256862000097,1016.6254757000133,1016.6088490001857,1018.610130400164,None,1,0.6101187199819833,2.6115308199077845,decreament,0.6,21,standard,None,100,,,,,,,,m,31,207,fr,r,0,raw,2022-05-19_10h17.10.489,oddball,2022.1.2,59.97019482359056,
10,,,,,0,0,0,2,7,0,7,0,25,0,25,0,,,,,,,,,,,,,,,,,1018.6265541000757,None,1019.3601976002101,1019.9608520001639,1019.9438391001895,1021.9446649001911,None,1,0.6118391200434417,2.6126049200538546,decreament,0.6,21,standard,None,100,,,,,,,,m,31,207,fr,r,0,raw,2022-05-19_10h17.10.489,oddball,2022.1.2,59.97019482359056,
10,,,,,0,0,0,2,7,0,7,0,26,0,26,0,,,,,,,,,,,,,,,,,1021.9611368000042,None,1022.7947160000913,1023.3950684000738,1023.3782833002042,1025.3788292000536,None,1,0.6126375198364258,2.6131330200005323,decreament,0.6,21,standard,None,100,,,,,,,,m,31,207,fr,r,0,raw,2022-05-19_10h17.10.489,oddball,2022.1.2,59.97019482359056,
10,,,,,0,0,0,2,7,0,7,0,27,0,27,0,,,,,,,,,,,,,,,,,1025.3957156001125,None,1026.0127044999972,1026.612896000035,1026.5962196001783,1028.596936200047,None,1,0.6133568200748414,2.6140476199798286,decreament,0.6,21,standard,None,100,,,,,,,,m,31,207,fr,r,0,raw,2022-05-19_10h17.10.489,oddball,2022.1.2,59.97019482359056,
10,,,,,0,0,0,2,7,0,7,0,28,0,28,0,,,,,,,,,,,,,,,,,1028.613503200002,None,1029.1975426999852,1029.7974509000778,1029.781021800125,1031.781748500187,None,1,0.6129537199158221,2.6137433198746294,decreament,0.6,21,standard,None,100,,,,,,,,m,31,207,fr,r,0,raw,2022-05-19_10h17.10.489,oddball,2022.1.2,59.97019482359056,
10,,,,,0,0,0,2,7,0,7,0,29,0,29,0,,,,,,,,,,,,,,,,,1031.7986981000286,None,1032.3319947000127,1032.5819407000672,1032.548604000127,1034.5498019000515,j,1,0.24624311993829906,2.2474783200304955,decreament,0.24,22,oddball,j,40,0.6411129999905825,,,,,,,m,31,207,fr,r,0,raw,2022-05-19_10h17.10.489,oddball,2022.1.2,59.97019482359056,
10,,,,,0,0,0,2,8,0,8,0,0,0,0,0,,,,,,,,,,,,,,,1061.1989295000676,None,1064.343833600171,None,1064.8942966000177,1065.494163500145,1065.4776134002022,1067.4786922000349,None,1,0.6120813197921962,2.613239019876346,increament,0.6,25,standard,None,100,,1034.5684353001416,None,,,,,m,31,207,fr,r,0,raw,2022-05-19_10h17.10.489,oddball,2022.1.2,59.97019482359056,
10,,,,,0,0,0,2,8,0,8,0,1,0,1,0,,,,,,,,,,,,,,,,,1067.4969304001424,None,1068.2957041000482,1068.8958355002105,1068.8788488002028,1070.8796415000688,None,1,0.6118507198989391,2.612667419947684,increament,0.6,25,standard,None,100,,,,,,,,m,31,207,fr,r,0,raw,2022-05-19_10h17.10.489,oddball,2022.1.2,59.97019482359056,
10,,,,,0,0,0,2,8,0,8,0,2,0,2,0,,,,,,,,,,,,,,,,,1070.8965964000672,None,1071.5466564001981,1072.1468888001982,1072.130095400149,1074.1308364002034,None,1,0.6126775199081749,2.6134318199474365,increament,0.6,25,standard,None,100,,,,,,,,m,31,207,fr,r,0,raw,2022-05-19_10h17.10.489,oddball,2022.1.2,59.97019482359056,
10,,,,,0,0,0,2,8,0,8,0,3,0,3,0,,,,,,,,,,,,,,,,,1074.1475054000039,None,1074.7647379001137,1075.3646957001183,1075.3483659001067,1077.3489829001483,None,1,0.608413620153442,2.6089698201976717,increament,0.6,25,standard,None,100,,,,,,,,m,31,207,fr,r,0,raw,2022-05-19_10h17.10.489,oddball,2022.1.2,59.97019482359056,
10,,,,,0,0,0,2,8,0,8,0,4,0,4,0,,,,,,,,,,,,,,,,,1077.365714600077,None,1077.9658725000918,1078.5663467000704,1078.5495603000745,1080.5502820000984,None,1,0.6127311200834811,2.613343120086938,increament,0.6,25,standard,None,100,,,,,,,,m,31,207,fr,r,0,raw,2022-05-19_10h17.10.489,oddball,2022.1.2,59.97019482359056,
10,,,,,0,0,0,2,8,0,8,0,5,0,5,0,,,,,,,,,,,,,,,,,1080.5672177001834,None,1081.184080200037,1081.7840331001207,1081.7673373001162,1083.768024600111,None,1,0.6106877196580172,2.6113158196676522,increament,0.6,25,standard,None,100,,,,,,,,m,31,207,fr,r,0,raw,2022-05-19_10h17.10.489,oddball,2022.1.2,59.97019482359056,
10,,,,,0,0,0,2,8,0,8,0,6,0,6,0,,,,,,,,,,,,,,,,,1083.784755300032,None,1084.6184563001152,1085.2184616001323,1085.2018751001451,1087.202678100206,None,1,0.6125402199104428,2.6133813199121505,increament,0.6,25,standard,None,100,,,,,,,,m,31,207,fr,r,0,raw,2022-05-19_10h17.10.489,oddball,2022.1.2,59.97019482359056,
10,,,,,0,0,0,2,8,0,8,0,7,0,7,0,,,,,,,,,,,,,,,,,1087.2201685002074,None,1087.786514500156,1088.3869985002093,1088.3701011000667,1090.3702918000054,None,1,0.6132203198503703,2.613275819690898,increament,0.6,25,standard,None,100,,,,,,,,m,31,207,fr,r,0,raw,2022-05-19_10h17.10.489,oddball,2022.1.2,59.97019482359056,
10,,,,,0,0,0,2,8,0,8,0,8,0,8,0,,,,,,,,,,,,,,,,,1090.3868464000989,None,1091.087581000058,1091.6876793000847,1091.6711759001482,1093.6719700000249,None,1,0.6126516198273748,2.613430919824168,increament,0.6,25,standard,None,100,,,,,,,,m,31,207,fr,r,0,raw,2022-05-19_10h17.10.489,oddball,2022.1.2,59.97019482359056,
10,,,,,0,0,0,2,8,0,8,0,9,0,9,0,,,,,,,,,,,,,,,,,1093.6885667000897,None,1094.238614300033,1094.8387655999977,1094.8221114000771,1096.8229693002068,None,1,0.6123628199566156,2.613242320017889,increament,0.6,25,standard,None,100,,,,,,,,m,31,207,fr,r,0,raw,2022-05-19_10h17.10.489,oddball,2022.1.2,59.97019482359056,
10,,,,,0,0,0,2,8,0,8,0,10,0,10,0,,,,,,,,,,,,,,,,,1096.8397670001723,None,1097.5400605001487,1098.5066716000438,1098.4736390002072,1100.4743257001974,j,1,0.9614616199396551,2.962172120111063,increament,0.96,28,oddball,j,160,0.28416869998909533,,,,,,,m,31,207,fr,r,0,raw,2022-05-19_10h17.10.489,oddball,2022.1.2,59.97019482359056,
10,,,,,0,0,0,2,8,0,8,0,11,0,11,0,,,,,,,,,,,,,,,,,1100.4908852002118,None,1101.0912231002003,1101.6920906000305,1101.674968100153,1103.6752053999808,None,1,0.6084973199758679,2.608638620004058,increament,0.6,25,standard,None,100,,,,,,,,m,31,207,fr,r,0,raw,2022-05-19_10h17.10.489,oddball,2022.1.2,59.97019482359056,
10,,,,,0,0,0,2,8,0,8,0,12,0,12,0,,,,,,,,,,,,,,,,,1103.6920521000866,None,1104.492682200158,1105.0925994000863,1105.0761862001382,1107.077028900152,None,1,0.6130826200824231,2.6139269198756665,increament,0.6,25,standard,None,100,,,,,,,,m,31,207,fr,r,0,raw,2022-05-19_10h17.10.489,oddball,2022.1.2,59.97019482359056,
10,,,,,0,0,0,2,8,0,8,0,13,0,13,0,,,,,,,,,,,,,,,,,1107.0936636000406,None,1107.6602609001566,1108.2606049000751,1108.2440959999803,1110.244567300193,None,1,0.6126025200355798,2.6130514200776815,increament,0.6,25,standard,None,100,,,,,,,,m,31,207,fr,r,0,raw,2022-05-19_10h17.10.489,oddball,2022.1.2,59.97019482359056,
10,,,,,0,0,0,2,8,0,8,0,14,0,14,0,,,,,,,,,,,,,,,,,1110.2612038000952,None,1110.8617360000499,1111.4615918002091,1111.4449736999813,1113.4458584000822,None,1,0.6132762196939439,2.614237219793722,increament,0.6,25,standard,None,100,,,,,,,,m,31,207,fr,r,0,raw,2022-05-19_10h17.10.489,oddball,2022.1.2,59.97019482359056,
10,,,,,0,0,0,2,8,0,8,0,15,0,15,0,,,,,,,,,,,,,,,,,1113.4628838000353,None,1114.112911600154,1114.7128274000715,1114.6966230000835,1116.697279700078,None,1,0.612860320135951,2.613571420079097,increament,0.6,25,standard,None,100,,,,,,,,m,31,207,fr,r,0,raw,2022-05-19_10h17.10.489,oddball,2022.1.2,59.97019482359056,
10,,,,,0,0,0,2,8,0,8,0,16,0,16,0,,,,,,,,,,,,,,,,,1116.7141896001995,None,1117.3808177001774,1117.9809090001509,1117.9642529999837,1119.965300400043,None,1,0.6099587199278176,2.6111086199525744,increament,0.6,25,standard,None,100,,,,,,,,m,31,207,fr,r,0,raw,2022-05-19_10h17.10.489,oddball,2022.1.2,59.97019482359056,
10,,,,,0,0,0,2,8,0,8,0,17,0,17,0,,,,,,,,,,,,,,,,,1119.9817867001984,None,1120.548340700101,1121.1490186001174,1121.1324075001758,1123.1328948000446,None,1,0.6143067197408527,2.614730619592592,increament,0.6,25,standard,None,100,,,,,,,,m,31,207,fr,r,0,raw,2022-05-19_10h17.10.489,oddball,2022.1.2,59.97019482359056,
10,,,,,0,0,0,2,8,0,8,0,18,0,18,0,,,,,,,,,,,,,,,,,1123.1494899999816,None,1123.833140600007,1124.433397800196,1124.4169495999813,1126.4181642001495,None,1,0.6113080198410898,2.6125730199273676,increament,0.6,25,standard,None,100,,,,,,,,m,31,207,fr,r,0,raw,2022-05-19_10h17.10.489,oddball,2022.1.2,59.97019482359056,
10,,,,,0,0,0,2,8,0,8,0,19,0,19,0,,,,,,,,,,,,,,,,,1126.43421950005,None,1127.068066000007,1127.8014446001034,1127.768102100119,1129.7685159000102,None,0,0.7289400196168572,2.729320019716397,increament,0.72,26,oddball,j,120,,,,,,,,m,31,207,fr,r,0,raw,2022-05-19_10h17.10.489,oddball,2022.1.2,59.97019482359056,
10,,,,,0,0,0,2,8,0,8,0,20,0,20,0,,,,,,,,,,,,,,,,,1129.7853505001403,None,1130.3521958000492,1130.9522944001947,1130.9357437000144,1132.9366087000817,None,1,0.6134972197469324,2.6143692198675126,increament,0.6,25,standard,None,100,,,,,,,,m,31,207,fr,r,0,raw,2022-05-19_10h17.10.489,oddball,2022.1.2,59.97019482359056,
10,,,,,0,0,0,2,8,0,8,0,21,0,21,0,,,,,,,,,,,,,,,,,1132.9531830002088,None,1133.5703734001145,1134.1705260002054,1134.1539201000705,1136.1548918001354,None,1,0.6100666199345142,2.611116820015013,increament,0.6,25,standard,None,100,,,,,,,,m,31,207,fr,r,0,raw,2022-05-19_10h17.10.489,oddball,2022.1.2,59.97019482359056,
10,,,,,0,0,0,2,8,0,8,0,22,0,22,0,,,,,,,,,,,,,,,,,1136.171330000041,None,1136.6879011001438,1137.2878042000812,1137.2711717002094,1139.272347500082,None,1,0.6128428198862821,2.61407711985521,increament,0.6,25,standard,None,100,,,,,,,,m,31,207,fr,r,0,raw,2022-05-19_10h17.10.489,oddball,2022.1.2,59.97019482359056,
10,,,,,0,0,0,2,8,0,8,0,23,0,23,0,,,,,,,,,,,,,,,,,1139.2890276000835,None,1139.9058228000067,1140.5060215000995,1140.4894210000057,1142.490257800091,None,1,0.6120947196613997,2.6129541196860373,increament,0.6,25,standard,None,100,,,,,,,,m,31,207,fr,r,0,raw,2022-05-19_10h17.10.489,oddball,2022.1.2,59.97019482359056,
10,,,,,0,0,0,2,8,0,8,0,24,0,24,0,,,,,,,,,,,,,,,,,1142.5071168001741,None,1143.2072236000095,1143.8074523999821,1143.79061370017,1145.791085800156,None,1,0.6103036201093346,2.6107218200340867,increament,0.6,25,standard,None,100,,,,,,,,m,31,207,fr,r,0,raw,2022-05-19_10h17.10.489,oddball,2022.1.2,59.97019482359056,
10,,,,,0,0,0,2,8,0,8,0,25,0,25,0,,,,,,,,,,,,,,,,,1145.8077359001618,None,1146.4251568000764,1147.0249366001226,1147.0087065000553,1149.009756000014,None,1,0.6097068197559565,2.6107938198838383,increament,0.6,25,standard,None,100,,,,,,,,m,31,207,fr,r,0,raw,2022-05-19_10h17.10.489,oddball,2022.1.2,59.97019482359056,
10,,,,,0,0,0,2,8,0,8,0,26,0,26,0,,,,,,,,,,,,,,,,,1149.0270729002077,None,1149.8095290001947,1150.6599761000834,1150.6266247001477,1152.6272301001009,j,1,0.8468991199042648,2.847484819823876,increament,0.84,27,oddball,j,140,0.34734109975397587,,,,,,,m,31,207,fr,r,0,raw,2022-05-19_10h17.10.489,oddball,2022.1.2,59.97019482359056,
10,,,,,0,0,0,2,8,0,8,0,27,0,27,0,,,,,,,,,,,,,,,,,1152.644152900204,None,1153.3109799001832,1153.9112273000646,1153.8947217999958,1155.895253600087,None,1,0.6131781197618693,2.613668219652027,increament,0.6,25,standard,None,100,,,,,,,,m,31,207,fr,r,0,raw,2022-05-19_10h17.10.489,oddball,2022.1.2,59.97019482359056,
10,,,,,0,0,0,2,8,0,8,0,28,0,28,0,,,,,,,,,,,,,,,,,1155.9120804001577,None,1156.6286493001971,1157.22924110014,1157.2124499999918,1159.213504299987,None,1,0.6134056199807674,2.6144559199456125,increament,0.6,25,standard,None,100,,,,,,,,m,31,207,fr,r,0,raw,2022-05-19_10h17.10.489,oddball,2022.1.2,59.97019482359056,
10,,,,,0,0,0,2,8,0,8,0,29,0,29,0,,,,,,,,,,,,,,,,,1159.2298555001616,None,1159.846767200157,1160.4473039000295,1160.4304896001704,1162.4311907000374,None,1,0.6129577197134495,2.6136599199380726,increament,0.6,25,standard,None,100,,,,,,,,m,31,207,fr,r,0,raw,2022-05-19_10h17.10.489,oddball,2022.1.2,59.97019482359056,
10,,,,,0,0,0,2,9,0,9,0,0,0,0,0,,,,,,,,,,,,,,,1186.9509505000897,None,1188.5408489999827,None,1189.3913875001017,1189.9915132999886,1189.975300700171,1191.9756136999931,None,1,0.6102375201880932,2.6103724201675504,decreament,0.6,21,standard,None,100,,1162.4480654001236,None,,,,,m,31,207,fr,r,0,raw,2022-05-19_10h17.10.489,oddball,2022.1.2,59.97019482359056,
10,,,,,0,0,0,2,9,0,9,0,1,0,1,0,,,,,,,,,,,,,,,,,1191.9922905000858,None,1192.5258508000989,1193.1258495000657,1193.1092404001392,1195.1100980001502,None,1,0.6109308199957013,2.6118440199643373,decreament,0.6,21,standard,None,100,,,,,,,,m,31,207,fr,r,0,raw,2022-05-19_10h17.10.489,oddball,2022.1.2,59.97019482359056,
10,,,,,0,0,0,2,9,0,9,0,2,0,2,0,,,,,,,,,,,,,,,,,1195.126976700034,None,1195.760262100026,1196.3605709001422,1196.3439053001348,1198.34490190004,None,1,0.6079528199043125,2.6090175197459757,decreament,0.6,21,standard,None,100,,,,,,,,m,31,207,fr,r,0,raw,2022-05-19_10h17.10.489,oddball,2022.1.2,59.97019482359056,
10,,,,,0,0,0,2,9,0,9,0,3,0,3,0,,,,,,,,,,,,,,,,,1198.3620299000759,None,1199.0782549001742,1199.6789840001147,1199.6620769000147,1201.6627867000643,None,1,0.6114933199714869,2.6121606200467795,decreament,0.6,21,standard,None,100,,,,,,,,m,31,207,fr,r,0,raw,2022-05-19_10h17.10.489,oddball,2022.1.2,59.97019482359056,
10,,,,,0,0,0,2,9,0,9,0,4,0,4,0,,,,,,,,,,,,,,,,,1201.6791040000971,None,1202.263048400171,1202.8632469000295,1202.8468414000235,1204.847071700031,None,1,0.6100207199342549,2.610220520058647,decreament,0.6,21,standard,None,100,,,,,,,,m,31,207,fr,r,0,raw,2022-05-19_10h17.10.489,oddball,2022.1.2,59.97019482359056,
10,,,,,0,0,0,2,9,0,9,0,5,0,5,0,,,,,,,,,,,,,,,,,1204.863987600198,None,1205.4312411001883,1206.030650800094,1206.0142895001918,1208.0151234001387,None,1,0.6110247201286256,2.6118693200405687,decreament,0.6,21,standard,None,100,,,,,,,,m,31,207,fr,r,0,raw,2022-05-19_10h17.10.489,oddball,2022.1.2,59.97019482359056,
10,,,,,0,0,0,2,9,0,9,0,6,0,6,0,,,,,,,,,,,,,,,,,1208.0317814000882,None,1208.615050500026,1208.8656039000489,1208.8323651000392,1210.832646000199,j,1,0.2451615200843662,2.245369720039889,decreament,0.24,22,oddball,j,40,0.9648868998046964,,,,,,,m,31,207,fr,r,0,raw,2022-05-19_10h17.10.489,oddball,2022.1.2,59.97019482359056,
10,,,,,0,0,0,2,9,0,9,0,7,0,7,0,,,,,,,,,,,,,,,,,1210.8492508002091,None,1211.449719700031,1212.049888400128,1212.0331837001722,1214.0339579000138,None,1,0.6113479197956622,2.612099819816649,decreament,0.6,21,standard,None,100,,,,,,,,m,31,207,fr,r,0,raw,2022-05-19_10h17.10.489,oddball,2022.1.2,59.97019482359056,
10,,,,,0,0,0,2,9,0,9,0,8,0,8,0,,,,,,,,,,,,,,,,,1214.0505608001258,None,1214.634077800205,1215.2343499001581,1215.21766760014,1217.218586300034,None,1,0.613683519884944,2.6146415199618787,decreament,0.6,21,standard,None,100,,,,,,,,m,31,207,fr,r,0,raw,2022-05-19_10h17.10.489,oddball,2022.1.2,59.97019482359056,
10,,,,,0,0,0,2,9,0,9,0,9,0,9,0,,,,,,,,,,,,,,,,,1217.2351446000393,None,1217.852054500021,1218.452427300159,1218.4360564001836,1220.4363133001607,None,1,0.6128606195561588,2.613073719665408,decreament,0.6,21,standard,None,100,,,,,,,,m,31,207,fr,r,0,raw,2022-05-19_10h17.10.489,oddball,2022.1.2,59.97019482359056,
10,,,,,0,0,0,2,9,0,9,0,10,0,10,0,,,,,,,,,,,,,,,,,1220.4530623001046,None,1221.0201562000439,1221.386916300049,1221.35390560003,1223.354359100107,j,1,0.3631855195853859,2.363631419604644,decreament,0.36,23,oddball,j,60,0.7232870999723673,,,,,,,m,31,207,fr,r,0,raw,2022-05-19_10h17.10.489,oddball,2022.1.2,59.97019482359056,
10,,,,,0,0,0,2,9,0,9,0,11,0,11,0,,,,,,,,,,,,,,,,,1223.3709912002087,None,1223.987958200043,1224.5880549000576,1224.571487300098,1226.572223199997,None,1,0.6128254199866205,2.6136700198985636,decreament,0.6,21,standard,None,100,,,,,,,,m,31,207,fr,r,0,raw,2022-05-19_10h17.10.489,oddball,2022.1.2,59.97019482359056,
10,,,,,0,0,0,2,9,0,9,0,12,0,12,0,,,,,,,,,,,,,,,,,1226.588921800023,None,1227.1224322000053,1227.7223770001438,1227.705771600129,1229.7067413001787,None,1,0.6095919196959585,2.6106578197795898,decreament,0.6,21,standard,None,100,,,,,,,,m,31,207,fr,r,0,raw,2022-05-19_10h17.10.489,oddball,2022.1.2,59.97019482359056,
10,,,,,0,0,0,2,9,0,9,0,13,0,13,0,,,,,,,,,,,,,,,,,1229.723181599984,None,1230.3901655999944,1230.9903806000948,1230.9737478001043,1232.9742994001135,None,1,0.6137407200876623,2.6142033201176673,decreament,0.6,21,standard,None,100,,,,,,,,m,31,207,fr,r,0,raw,2022-05-19_10h17.10.489,oddball,2022.1.2,59.97019482359056,
10,,,,,0,0,0,2,9,0,9,0,14,0,14,0,,,,,,,,,,,,,,,,,1232.9908231000882,None,1233.6081299001817,1234.2082125002053,1234.191745000193,1236.1920831000898,None,1,0.6099773200694472,2.610288920113817,decreament,0.6,21,standard,None,100,,,,,,,,m,31,207,fr,r,0,raw,2022-05-19_10h17.10.489,oddball,2022.1.2,59.97019482359056,
10,,,,,0,0,0,2,9,0,9,0,15,0,15,0,,,,,,,,,,,,,,,,,1236.2087409000378,None,1236.7425919000525,1237.3428969001397,1237.3260238000657,1239.3270824002102,None,1,0.6115125198848546,2.6126058199442923,decreament,0.6,21,standard,None,100,,,,,,,,m,31,207,fr,r,0,raw,2022-05-19_10h17.10.489,oddball,2022.1.2,59.97019482359056,
10,,,,,0,0,0,2,9,0,9,0,16,0,16,0,,,,,,,,,,,,,,,,,1239.3436364000663,None,1239.993928699987,1240.5942918001674,1240.577737600077,1242.5779039000627,None,1,0.6120885200798512,2.612153120106086,decreament,0.6,21,standard,None,100,,,,,,,,m,31,207,fr,r,0,raw,2022-05-19_10h17.10.489,oddball,2022.1.2,59.97019482359056,
10,,,,,0,0,0,2,9,0,9,0,17,0,17,0,,,,,,,,,,,,,,,,,1242.5946692000143,None,1243.228324700147,1243.8286588999908,1243.8121959001292,1245.8127319000196,None,1,0.6129187198821455,2.6134054199792445,decreament,0.6,21,standard,None,100,,,,,,,,m,31,207,fr,r,0,raw,2022-05-19_10h17.10.489,oddball,2022.1.2,59.97019482359056,
10,,,,,0,0,0,2,9,0,9,0,18,0,18,0,,,,,,,,,,,,,,,,,1245.8294228999875,None,1246.6133650999982,1247.2130848001689,1247.1965954999905,1249.197148400126,None,1,0.6086429201532155,2.609187320107594,decreament,0.6,21,standard,None,100,,,,,,,,m,31,207,fr,r,0,raw,2022-05-19_10h17.10.489,oddball,2022.1.2,59.97019482359056,
10,,,,,0,0,0,2,9,0,9,0,19,0,19,0,,,,,,,,,,,,,,,,,1249.2138267001137,None,1249.8475212000776,1250.4475229000673,1250.4313477000687,1252.432005100185,None,1,0.6131832201499492,2.61386492010206,decreament,0.6,21,standard,None,100,,,,,,,,m,31,207,fr,r,0,raw,2022-05-19_10h17.10.489,oddball,2022.1.2,59.97019482359056,
10,,,,,0,0,0,2,9,0,9,0,20,0,20,0,,,,,,,,,,,,,,,,,1252.4488493001554,None,1253.0826789999846,1253.6822830000892,1253.66605180013,1255.666281200014,None,1,0.6101269198115915,2.6103352198842913,decreament,0.6,21,standard,None,100,,,,,,,,m,31,207,fr,r,0,raw,2022-05-19_10h17.10.489,oddball,2022.1.2,59.97019482359056,
10,,,,,0,0,0,2,9,0,9,0,21,0,21,0,,,,,,,,,,,,,,,,,1255.6829354001675,None,1256.4335800001863,1257.0336551000364,1257.0168715000618,1259.0178645001724,None,1,0.6097692199982703,2.6108200198505074,decreament,0.6,21,standard,None,100,,,,,,,,m,31,207,fr,r,0,raw,2022-05-19_10h17.10.489,oddball,2022.1.2,59.97019482359056,
10,,,,,0,0,0,2,9,0,9,0,22,0,22,0,,,,,,,,,,,,,,,,,1259.0344132001046,None,1259.7344122000504,1260.3347270002123,1260.318197700195,1262.3191670000087,None,1,0.6127066200133413,2.6136939199641347,decreament,0.6,21,standard,None,100,,,,,,,,m,31,207,fr,r,0,raw,2022-05-19_10h17.10.489,oddball,2022.1.2,59.97019482359056,
10,,,,,0,0,0,2,9,0,9,0,23,0,23,0,,,,,,,,,,,,,,,,,1262.3354464001022,None,1262.9022358001675,1263.5028781001456,1263.4862924001645,1265.486751000164,None,1,0.6141474200412631,2.6145712200086564,decreament,0.6,21,standard,None,100,,,,,,,,m,31,207,fr,r,0,raw,2022-05-19_10h17.10.489,oddball,2022.1.2,59.97019482359056,
10,,,,,0,0,0,2,9,0,9,0,24,0,24,0,,,,,,,,,,,,,,,,,1265.5037005001213,None,1266.2037631000858,1266.687054600101,1266.6703476000112,1268.671438400168,j,1,0.4934396198950708,2.494596719974652,decreament,0.48,24,oddball,j,80,0.7993817999958992,,,,,,,m,31,207,fr,r,0,raw,2022-05-19_10h17.10.489,oddball,2022.1.2,59.97019482359056,
10,,,,,0,0,0,2,9,0,9,0,25,0,25,0,,,,,,,,,,,,,,,,,1268.6879376000725,None,1269.4549891999923,1270.0552584000397,1270.0387903000228,1272.039350999985,None,1,0.6129467198625207,2.613449019845575,decreament,0.6,21,standard,None,100,,,,,,,,m,31,207,fr,r,0,raw,2022-05-19_10h17.10.489,oddball,2022.1.2,59.97019482359056,
10,,,,,0,0,0,2,9,0,9,0,26,0,26,0,,,,,,,,,,,,,,,,,1272.0560027000029,None,1272.706423100084,1273.3065441001672,1273.290276300162,1275.2904626000673,None,1,0.6082816200796515,2.6083985201548785,decreament,0.6,21,standard,None,100,,,,,,,,m,31,207,fr,r,0,raw,2022-05-19_10h17.10.489,oddball,2022.1.2,59.97019482359056,
10,,,,,0,0,0,2,9,0,9,0,27,0,27,0,,,,,,,,,,,,,,,,,1275.3070740001276,None,1276.023995200172,1276.6243498001713,1276.607927700039,1278.608346400084,None,1,0.6130991203244776,2.6134817202109843,decreament,0.6,21,standard,None,100,,,,,,,,m,31,207,fr,r,0,raw,2022-05-19_10h17.10.489,oddball,2022.1.2,59.97019482359056,
10,,,,,0,0,0,2,9,0,9,0,28,0,28,0,,,,,,,,,,,,,,,,,1278.6249707001261,None,1279.5420832000673,1280.1421249001287,1280.1259204000235,1282.126292000059,None,1,0.6135719199664891,2.613868720130995,decreament,0.6,21,standard,None,100,,,,,,,,m,31,207,fr,r,0,raw,2022-05-19_10h17.10.489,oddball,2022.1.2,59.97019482359056,
10,,,,,0,0,0,2,9,0,9,0,29,0,29,0,,,,,,,,,,,,,,,,,1282.1432630000636,None,1282.7598814000376,1283.3601245000027,1283.3438487001695,1285.3445457001217,None,1,0.6132750201504678,2.6140090201515704,decreament,0.6,21,standard,None,100,,,,,,,,m,31,207,fr,r,0,raw,2022-05-19_10h17.10.489,oddball,2022.1.2,59.97019482359056,
5,,,,,0,1,1,1,0,0,0,0,0,0,0,0,,,,,,,,,,,,,,,1473.2293063001707,None,1478.5342037000228,None,1479.2343016001396,1479.8351230002008,1479.8184462001082,1481.8186743000988,None,1,0.6118236198090017,2.611962619703263,increament,0.6,15,standard,None,100,,1465.3960520001128,None,1285.3813863000832,None,,,m,31,207,fr,r,0,raw,2022-05-19_10h17.10.489,oddball,2022.1.2,59.97019482359056,
5,,,,,0,1,1,1,0,0,0,0,1,0,1,0,,,,,,,,,,,,,,,,,1481.8351931001525,None,1482.4356427001767,1483.035709100077,1483.0192984000314,1485.0200155000202,None,1,0.6129707200452685,2.6136940200813115,increament,0.6,15,standard,None,100,,,,,,,,m,31,207,fr,r,0,raw,2022-05-19_10h17.10.489,oddball,2022.1.2,59.97019482359056,
5,,,,,0,1,1,1,0,0,0,0,2,0,2,0,,,,,,,,,,,,,,,,,1485.0366777000017,None,1485.6033714001533,1486.2038162001409,1486.1877415000927,1488.1877727999818,None,1,0.6133877197280526,2.613329019630328,increament,0.6,15,standard,None,100,,,,,,,,m,31,207,fr,r,0,raw,2022-05-19_10h17.10.489,oddball,2022.1.2,59.97019482359056,
5,,,,,0,1,1,1,0,0,0,0,3,0,3,0,,,,,,,,,,,,,,,,,1488.2044550001156,None,1488.9212731001899,1489.521854400169,1489.5051383001264,1491.5059208001476,None,1,0.6130413201171905,2.6138862199150026,increament,0.6,15,standard,None,100,,,,,,,,m,31,207,fr,r,0,raw,2022-05-19_10h17.10.489,oddball,2022.1.2,59.97019482359056,
5,,,,,0,1,1,1,0,0,0,0,4,0,4,0,,,,,,,,,,,,,,,,,1491.5229977001436,None,1492.2396775002126,1492.8397201001644,1492.8230324001051,1494.8236689001787,None,1,0.6105021198745817,2.611180020030588,increament,0.6,15,standard,None,100,,,,,,,,m,31,207,fr,r,0,raw,2022-05-19_10h17.10.489,oddball,2022.1.2,59.97019482359056,
5,,,,,0,1,1,1,0,0,0,0,5,0,5,0,,,,,,,,,,,,,,,,,1494.8403059002012,None,1495.5570816001855,1496.1575484999921,1496.1410062001087,1498.141472700052,None,1,0.6146302199922502,2.6150199200492352,increament,0.6,15,standard,None,100,,,,,,,,m,31,207,fr,r,0,raw,2022-05-19_10h17.10.489,oddball,2022.1.2,59.97019482359056,
5,,,,,0,1,1,1,0,0,0,0,6,0,6,0,,,,,,,,,,,,,,,,,1498.1584296000656,None,1498.7591134000104,1499.3584936000407,1499.3418476001825,1501.3426781999879,None,1,0.6126349200494587,2.6134882199112326,increament,0.6,15,standard,None,100,,,,,,,,m,31,207,fr,r,0,raw,2022-05-19_10h17.10.489,oddball,2022.1.2,59.97019482359056,
5,,,,,0,1,1,1,0,0,0,0,7,0,7,0,,,,,,,,,,,,,,,,,1501.3593622001354,None,1501.976262100041,1502.9432536000386,1502.9099212000147,1504.9109893999994,j,1,0.9631829201243818,2.9642758201807737,increament,0.96,18,oddball,j,160,0.669182799756527,,,,,,,m,31,207,fr,r,0,raw,2022-05-19_10h17.10.489,oddball,2022.1.2,59.97019482359056,
5,,,,,0,1,1,1,0,0,0,0,8,0,8,0,,,,,,,,,,,,,,,,,1504.92760130018,None,1505.5442592999898,1506.144579200074,1506.127968300134,1508.128959900001,None,1,0.6135254197288305,2.6146117197349668,increament,0.6,15,standard,None,100,,,,,,,,m,31,207,fr,r,0,raw,2022-05-19_10h17.10.489,oddball,2022.1.2,59.97019482359056,
5,,,,,0,1,1,1,0,0,0,0,9,0,9,0,,,,,,,,,,,,,,,,,1508.145339900162,None,1508.8622110001743,1509.4627027001698,1509.4462296001147,1511.4463550001383,None,1,0.6137551199644804,2.613816020078957,increament,0.6,15,standard,None,100,,,,,,,,m,31,207,fr,r,0,raw,2022-05-19_10h17.10.489,oddball,2022.1.2,59.97019482359056,
5,,,,,0,1,1,1,0,0,0,0,10,0,10,0,,,,,,,,,,,,,,,,,1511.4633380000014,None,1512.0135325000156,1512.6137844000477,1512.5973451000173,1514.5974056001287,None,1,0.6116118200588971,2.611604919889942,increament,0.6,15,standard,None,100,,,,,,,,m,31,207,fr,r,0,raw,2022-05-19_10h17.10.489,oddball,2022.1.2,59.97019482359056,
5,,,,,0,1,1,1,0,0,0,0,11,0,11,0,,,,,,,,,,,,,,,,,1514.614075300051,None,1515.397688700119,1515.9982591001317,1515.9813955000136,1517.9827660000883,None,1,0.613992519909516,2.615463219815865,increament,0.6,15,standard,None,100,,,,,,,,m,31,207,fr,r,0,raw,2022-05-19_10h17.10.489,oddball,2022.1.2,59.97019482359056,
5,,,,,0,1,1,1,0,0,0,0,12,0,12,0,,,,,,,,,,,,,,,,,1517.9991089000832,None,1518.6158427000046,1519.2159843000118,1519.199825100135,1521.200734600192,None,1,0.6144667197950184,2.6154456199146807,increament,0.6,15,standard,None,100,,,,,,,,m,31,207,fr,r,0,raw,2022-05-19_10h17.10.489,oddball,2022.1.2,59.97019482359056,
