grating_freq,blocks_prac.thisRepN,blocks_prac.thisTrialN,blocks_prac.thisN,blocks_prac.thisIndex,blocks.thisRepN,blocks.thisTrialN,blocks.thisN,blocks.thisIndex,repeat_freq.thisRepN,repeat_freq.thisTrialN,repeat_freq.thisN,repeat_freq.thisIndex,trials.thisRepN,trials.thisTrialN,trials.thisN,trials.thisIndex,break_loop.thisRepN,break_loop.thisTrialN,break_loop.thisN,break_loop.thisIndex,rest_loop.thisRepN,rest_loop.thisTrialN,rest_loop.thisN,rest_loop.thisIndex,instruct_prac_text.started,instruct_prac_text.stopped,b_instruct_text_2_.started,b_instruct_text_2_.stopped,prac_done_text.started,prac_done_text.stopped,instruct_text.started,instruct_text.stopped,fixation.started,fixation.stopped,grating.started,grating.stopped,blank.started,blank.stopped,resp.keys,resp.corr,resp.started,resp.stopped,direction,duration,trigger,stim_type,corr_ans,scaling,resp.rt,rest_text.started,rest_text.stopped,text_2.started,text_2.stopped,thx_txt.started,thx_txt.stopped,gender,age,participant,language,main_hand,nBlock_prac,file_suffix,date,expName,psychopyVersion,frameRate,
10,,,,,0,0,0,2,0,0,0,0,0,0,0,0,,,,,,,,,19.194348599994555,None,23.586815299931914,None,44.97963030007668,None,50.41804619994946,None,53.547502000117674,None,54.334200999932364,54.94834990007803,54.89840660011396,56.899110900005326,None,1,0.6132148997858167,2.61398209980689,decreament,0.6,21,standard,None,100,,,,,,,,f,23,208,fr,r,0,raw,2022-05-20_11h09.40.043,oddball,2022.1.2,59.92265186588498,
10,,,,,0,0,0,2,0,0,0,0,1,0,1,0,,,,,,,,,,,,,,,,,56.91560130007565,None,57.682655200129375,58.28312180005014,58.266281800111756,60.26684890012257,None,1,0.6123684998601675,2.6128912998829037,decreament,0.6,21,standard,None,100,,,,,,,,f,23,208,fr,r,0,raw,2022-05-20_11h09.40.043,oddball,2022.1.2,59.92265186588498,
10,,,,,0,0,0,2,0,0,0,0,2,0,2,0,,,,,,,,,,,,,,,,,60.283876300090924,None,60.93413949990645,61.533967500086874,61.51776079996489,63.51811770000495,None,1,0.6097512000706047,2.610113700153306,decreament,0.6,21,standard,None,100,,,,,,,,f,23,208,fr,r,0,raw,2022-05-20_11h09.40.043,oddball,2022.1.2,59.92265186588498,
10,,,,,0,0,0,2,0,0,0,0,3,0,3,0,,,,,,,,,,,,,,,,,63.53507300000638,None,64.1849398999475,64.78522550011985,64.7687838000711,66.7694618999958,None,1,0.6139767998829484,2.6146609999705106,decreament,0.6,21,standard,None,100,,,,,,,,f,23,208,fr,r,0,raw,2022-05-20_11h09.40.043,oddball,2022.1.2,59.92265186588498,
10,,,,,0,0,0,2,0,0,0,0,4,0,4,0,,,,,,,,,,,,,,,,,66.78628610004671,None,67.38641989999451,67.98633920005523,67.96976249990985,69.97036399994977,None,1,0.6113107001874596,2.6118764001876116,decreament,0.6,21,standard,None,100,,,,,,,,f,23,208,fr,r,0,raw,2022-05-20_11h09.40.043,oddball,2022.1.2,59.92265186588498,
10,,,,,0,0,0,2,0,0,0,0,5,0,5,0,,,,,,,,,,,,,,,,,69.98721019993536,None,70.77120950003155,71.37091480009258,71.35467229993083,73.35537440003827,None,1,0.611385100055486,2.6121161999180913,decreament,0.6,21,standard,None,100,,,,,,,,f,23,208,fr,r,0,raw,2022-05-20_11h09.40.043,oddball,2022.1.2,59.92265186588498,
10,,,,,0,0,0,2,0,0,0,0,6,0,6,0,,,,,,,,,,,,,,,,,73.37190570007078,None,74.02258160011843,74.622391999932,74.60640439996496,76.6068667001091,None,1,0.6130195998121053,2.613487900001928,decreament,0.6,21,standard,None,100,,,,,,,,f,23,208,fr,r,0,raw,2022-05-20_11h09.40.043,oddball,2022.1.2,59.92265186588498,
10,,,,,0,0,0,2,0,0,0,0,7,0,7,0,,,,,,,,,,,,,,,,,76.62338360003196,None,77.22362209996209,77.82368719996884,77.8069140999578,79.80769610009156,None,1,0.609195200027898,2.609974999912083,decreament,0.6,21,standard,None,100,,,,,,,,f,23,208,fr,r,0,raw,2022-05-20_11h09.40.043,oddball,2022.1.2,59.92265186588498,
10,,,,,0,0,0,2,0,0,0,0,8,0,8,0,,,,,,,,,,,,,,,,,79.82416810002178,None,80.57474200008437,81.17501899995841,81.15837229997851,83.1593087001238,None,1,0.6126719003077596,2.613640900235623,decreament,0.6,21,standard,None,100,,,,,,,,f,23,208,fr,r,0,raw,2022-05-20_11h09.40.043,oddball,2022.1.2,59.92265186588498,
10,,,,,0,0,0,2,0,0,0,0,9,0,9,0,,,,,,,,,,,,,,,,,83.17710019997321,None,83.74243049998768,84.34263839991763,84.3260041999165,86.32696680002846,j,0,0.6129134001675993,2.6138967000879347,decreament,0.6,21,standard,None,100,0.6189747997559607,,,,,,,f,23,208,fr,r,0,raw,2022-05-20_11h09.40.043,oddball,2022.1.2,59.92265186588498,
10,,,,,0,0,0,2,0,0,0,0,10,0,10,0,,,,,,,,,,,,,,,,,86.34347780002281,None,86.943726999918,87.19388659996912,87.16046770010144,89.16118880012073,j,1,0.24395750020630658,2.2446860000491142,decreament,0.24,22,oddball,j,40,0.5125326998531818,,,,,,,f,23,208,fr,r,0,raw,2022-05-20_11h09.40.043,oddball,2022.1.2,59.92265186588498,
10,,,,,0,0,0,2,0,0,0,0,11,0,11,0,,,,,,,,,,,,,,,,,89.17804930009879,None,89.89501490001567,90.49523509992287,90.47866889997385,92.47971390001476,None,1,0.6130035000387579,2.614070100011304,decreament,0.6,21,standard,None,100,,,,,,,,f,23,208,fr,r,0,raw,2022-05-20_11h09.40.043,oddball,2022.1.2,59.92265186588498,
10,,,,,0,0,0,2,0,0,0,0,12,0,12,0,,,,,,,,,,,,,,,,,92.4960014000535,None,93.09636620013043,93.69622200005688,93.67946030013263,95.68038700008765,None,1,0.6113879999611527,2.612332599936053,decreament,0.6,21,standard,None,100,,,,,,,,f,23,208,fr,r,0,raw,2022-05-20_11h09.40.043,oddball,2022.1.2,59.92265186588498,
10,,,,,0,0,0,2,0,0,0,0,13,0,13,0,,,,,,,,,,,,,,,,,95.69715710007586,None,96.49726730003022,97.09776120004244,97.08112440002151,99.08176600001752,None,1,0.6144485000986606,2.6150895000901073,decreament,0.6,21,standard,None,100,,,,,,,,f,23,208,fr,r,0,raw,2022-05-20_11h09.40.043,oddball,2022.1.2,59.92265186588498,
10,,,,,0,0,0,2,0,0,0,0,14,0,14,0,,,,,,,,,,,,,,,,,99.09845219994895,None,99.8152266999241,100.29872510000132,100.26569680008106,102.26661249995232,j,1,0.4794778998475522,2.4804366999305785,decreament,0.48,24,oddball,j,80,1.1185096998233348,,,,,,,f,23,208,fr,r,0,raw,2022-05-20_11h09.40.043,oddball,2022.1.2,59.92265186588498,
10,,,,,0,0,0,2,0,0,0,0,15,0,15,0,,,,,,,,,,,,,,,,,102.28276229999028,None,102.91641780012287,103.51677360013127,103.50015840004198,105.50088659999892,None,1,0.6113156999927014,2.61203179997392,decreament,0.6,21,standard,None,100,,,,,,,,f,23,208,fr,r,0,raw,2022-05-20_11h09.40.043,oddball,2022.1.2,59.92265186588498,
10,,,,,0,0,0,2,0,0,0,0,16,0,16,0,,,,,,,,,,,,,,,,,105.51746589993127,None,106.05126570002176,106.65116659994237,106.63450099993497,108.63536550011486,None,1,0.6093452000059187,2.6101981999818236,decreament,0.6,21,standard,None,100,,,,,,,,f,23,208,fr,r,0,raw,2022-05-20_11h09.40.043,oddball,2022.1.2,59.92265186588498,
10,,,,,0,0,0,2,0,0,0,0,17,0,17,0,,,,,,,,,,,,,,,,,108.65204069996253,None,109.36923860013485,109.96897120005451,109.95252280007116,111.95333199994639,None,1,0.6120566998142749,2.6128837999422103,decreament,0.6,21,standard,None,100,,,,,,,,f,23,208,fr,r,0,raw,2022-05-20_11h09.40.043,oddball,2022.1.2,59.92265186588498,
10,,,,,0,0,0,2,0,0,0,0,18,0,18,0,,,,,,,,,,,,,,,,,111.96975090005435,None,112.53674130002037,113.1368603000883,113.12047760002315,115.12164840009063,None,1,0.6125465000513941,2.613841800019145,decreament,0.6,21,standard,None,100,,,,,,,,f,23,208,fr,r,0,raw,2022-05-20_11h09.40.043,oddball,2022.1.2,59.92265186588498,
10,,,,,0,0,0,2,0,0,0,0,19,0,19,0,,,,,,,,,,,,,,,,,115.13773959991522,None,115.72122700000182,116.32150169997476,116.30516760004684,118.30559520004317,None,1,0.613035700051114,2.61347039998509,decreament,0.6,21,standard,None,100,,,,,,,,f,23,208,fr,r,0,raw,2022-05-20_11h09.40.043,oddball,2022.1.2,59.92265186588498,
10,,,,,0,0,0,2,0,0,0,0,20,0,20,0,,,,,,,,,,,,,,,,,118.3223959999159,None,118.90599100012332,119.50605319999158,119.48958349996246,121.49003400001675,None,1,0.6089655999094248,2.6093981999438256,decreament,0.6,21,standard,None,100,,,,,,,,f,23,208,fr,r,0,raw,2022-05-20_11h09.40.043,oddball,2022.1.2,59.92265186588498,
10,,,,,0,0,0,2,0,0,0,0,21,0,21,0,,,,,,,,,,,,,,,,,121.50711359991692,None,122.19052159995772,122.790908300085,122.77462689997628,124.77513849991374,None,1,0.6126998998224735,2.6132252998650074,decreament,0.6,21,standard,None,100,,,,,,,,f,23,208,fr,r,0,raw,2022-05-20_11h09.40.043,oddball,2022.1.2,59.92265186588498,
10,,,,,0,0,0,2,0,0,0,0,22,0,22,0,,,,,,,,,,,,,,,,,124.79253740003332,None,125.47543790005147,126.07540490012616,126.0588165000081,128.0593725000508,None,1,0.6104735000990331,2.610988500295207,decreament,0.6,21,standard,None,100,,,,,,,,f,23,208,fr,r,0,raw,2022-05-20_11h09.40.043,oddball,2022.1.2,59.92265186588498,
10,,,,,0,0,0,2,0,0,0,0,23,0,23,0,,,,,,,,,,,,,,,,,128.07627990003675,None,128.6929083999712,129.05957929999568,129.0264151999727,131.0274205999449,j,1,0.35942220012657344,2.360564400209114,decreament,0.36,23,oddball,j,60,0.478411499876529,,,,,,,f,23,208,fr,r,0,raw,2022-05-20_11h09.40.043,oddball,2022.1.2,59.92265186588498,
10,,,,,0,0,0,2,0,0,0,0,24,0,24,0,,,,,,,,,,,,,,,,,131.04465709999204,None,131.71079299994744,132.31079429993406,132.29434529994614,134.2948082999792,None,1,0.6102053001523018,2.610677800141275,decreament,0.6,21,standard,None,100,,,,,,,,f,23,208,fr,r,0,raw,2022-05-20_11h09.40.043,oddball,2022.1.2,59.92265186588498,
10,,,,,0,0,0,2,0,0,0,0,25,0,25,0,,,,,,,,,,,,,,,,,134.31193329999223,None,135.01232889993116,135.61204860010184,135.59555090009235,137.59619840001687,None,1,0.6120596001856029,2.6126831001602113,decreament,0.6,21,standard,None,100,,,,,,,,f,23,208,fr,r,0,raw,2022-05-20_11h09.40.043,oddball,2022.1.2,59.92265186588498,
10,,,,,0,0,0,2,0,0,0,0,26,0,26,0,,,,,,,,,,,,,,,,,137.61293029994704,None,138.3134296000935,138.91356540005654,138.89673759997822,140.89738740003668,None,1,0.612625400070101,2.6132005001418293,decreament,0.6,21,standard,None,100,,,,,,,,f,23,208,fr,r,0,raw,2022-05-20_11h09.40.043,oddball,2022.1.2,59.92265186588498,
10,,,,,0,0,0,2,0,0,0,0,27,0,27,0,,,,,,,,,,,,,,,,,140.91424690000713,None,141.66427589999512,142.26501660002396,142.24854089994915,144.24879530002363,None,1,0.6142552001401782,2.614415100077167,decreament,0.6,21,standard,None,100,,,,,,,,f,23,208,fr,r,0,raw,2022-05-20_11h09.40.043,oddball,2022.1.2,59.92265186588498,
10,,,,,0,0,0,2,0,0,0,0,28,0,28,0,,,,,,,,,,,,,,,,,144.2654889000114,None,144.93231489998288,145.53263660008088,145.51587640005164,147.51672399998643,None,1,0.6076117001939565,2.6084585001226515,decreament,0.6,21,standard,None,100,,,,,,,,f,23,208,fr,r,0,raw,2022-05-20_11h09.40.043,oddball,2022.1.2,59.92265186588498,
10,,,,,0,0,0,2,0,0,0,0,29,0,29,0,,,,,,,,,,,,,,,,,147.53334510000423,None,148.3176756000612,148.91726880008355,148.90060380008072,150.9013187000528,None,1,0.6088167000561953,2.6095372000709176,decreament,0.6,21,standard,None,100,,,,,,,,f,23,208,fr,r,0,raw,2022-05-20_11h09.40.043,oddball,2022.1.2,59.92265186588498,
10,,,,,0,0,0,2,1,0,1,0,0,0,0,0,,,,,,,,,,,,,,,169.05415240000002,None,170.64199419994839,None,171.30902029993013,171.90934480004944,171.8926190000493,173.8932590999175,None,1,0.6087767998687923,2.6093921998981386,increament,0.6,25,standard,None,100,,150.91818200005218,None,,,,,f,23,208,fr,r,0,raw,2022-05-20_11h09.40.043,oddball,2022.1.2,59.92265186588498,
10,,,,,0,0,0,2,1,0,1,0,1,0,1,0,,,,,,,,,,,,,,,,,173.91014380007982,None,174.61025530006737,175.2106224000454,175.1938211999368,177.19493829994462,None,1,0.6120742000639439,2.6132362000644207,increament,0.6,25,standard,None,100,,,,,,,,f,23,208,fr,r,0,raw,2022-05-20_11h09.40.043,oddball,2022.1.2,59.92265186588498,
10,,,,,0,0,0,2,1,0,1,0,2,0,2,0,,,,,,,,,,,,,,,,,177.2110599000007,None,177.8114787999075,178.411746900063,178.39496439998038,180.39569470006973,None,1,0.6114293001592159,2.6121406003367156,increament,0.6,25,standard,None,100,,,,,,,,f,23,208,fr,r,0,raw,2022-05-20_11h09.40.043,oddball,2022.1.2,59.92265186588498,
10,,,,,0,0,0,2,1,0,1,0,3,0,3,0,,,,,,,,,,,,,,,,,180.41218529990874,None,181.06293820007704,181.662962900009,181.64653360005468,183.64699340006337,None,1,0.6102364000398666,2.6107137999497354,increament,0.6,25,standard,None,100,,,,,,,,f,23,208,fr,r,0,raw,2022-05-20_11h09.40.043,oddball,2022.1.2,59.92265186588498,
10,,,,,0,0,0,2,1,0,1,0,4,0,4,0,,,,,,,,,,,,,,,,,183.66426909994334,None,184.26389509998262,184.86394840013236,184.84767349995673,186.84803200000897,None,1,0.6120287000667304,2.6123778000473976,increament,0.6,25,standard,None,100,,,,,,,,f,23,208,fr,r,0,raw,2022-05-20_11h09.40.043,oddball,2022.1.2,59.92265186588498,
10,,,,,0,0,0,2,1,0,1,0,5,0,5,0,,,,,,,,,,,,,,,,,186.86491500004195,None,187.5486109999474,188.1491634999402,188.13241300010122,190.132748400094,None,1,0.6110896999016404,2.6113296998664737,increament,0.6,25,standard,None,100,,,,,,,,f,23,208,fr,r,0,raw,2022-05-20_11h09.40.043,oddball,2022.1.2,59.92265186588498,
10,,,,,0,0,0,2,1,0,1,0,6,0,6,0,,,,,,,,,,,,,,,,,190.14976279996336,None,190.76671310001984,191.36649739998393,191.34995699999854,193.35081270011142,None,1,0.6105379003565758,2.6114180001895875,increament,0.6,25,standard,None,100,,,,,,,,f,23,208,fr,r,0,raw,2022-05-20_11h09.40.043,oddball,2022.1.2,59.92265186588498,
10,,,,,0,0,0,2,1,0,1,0,7,0,7,0,,,,,,,,,,,,,,,,,193.3677894999273,None,193.98450320004486,194.58450599992648,194.56777249998413,196.56909930007532,None,1,0.6122856000438333,2.6136813000775874,increament,0.6,25,standard,None,100,,,,,,,,f,23,208,fr,r,0,raw,2022-05-20_11h09.40.043,oddball,2022.1.2,59.92265186588498,
10,,,,,0,0,0,2,1,0,1,0,8,0,8,0,,,,,,,,,,,,,,,,,196.58529189997353,None,197.11897130007856,197.8526508999057,197.81923840008676,199.81986899999902,j,1,0.7301678999792784,2.730768300127238,increament,0.72,26,oddball,j,120,0.42882939986884594,,,,,,,f,23,208,fr,r,0,raw,2022-05-20_11h09.40.043,oddball,2022.1.2,59.92265186588498,
10,,,,,0,0,0,2,1,0,1,0,9,0,9,0,,,,,,,,,,,,,,,,,199.8365494001191,None,200.60337070003152,201.20395520003513,201.18703490006737,203.18780980003066,None,1,0.6125938002951443,2.613358300179243,increament,0.6,25,standard,None,100,,,,,,,,f,23,208,fr,r,0,raw,2022-05-20_11h09.40.043,oddball,2022.1.2,59.92265186588498,
10,,,,,0,0,0,2,1,0,1,0,10,0,10,0,,,,,,,,,,,,,,,,,203.20467070001177,None,203.87170529994182,204.47226339997724,204.45510910009034,206.45569769991562,None,1,0.6121463002637029,2.6126871001906693,increament,0.6,25,standard,None,100,,,,,,,,f,23,208,fr,r,0,raw,2022-05-20_11h09.40.043,oddball,2022.1.2,59.92265186588498,
10,,,,,0,0,0,2,1,0,1,0,11,0,11,0,,,,,,,,,,,,,,,,,206.47215580008924,None,207.1060796000529,207.70613950002007,207.68953650002368,209.6902795000933,None,1,0.6102543000597507,2.6110209999606013,increament,0.6,25,standard,None,100,,,,,,,,f,23,208,fr,r,0,raw,2022-05-20_11h09.40.043,oddball,2022.1.2,59.92265186588498,
10,,,,,0,0,0,2,1,0,1,0,12,0,12,0,,,,,,,,,,,,,,,,,209.70686340006068,None,210.54075610009022,211.14097140007652,211.12404079991393,213.12499719997868,None,1,0.6093715999741107,2.610338300000876,increament,0.6,25,standard,None,100,,,,,,,,f,23,208,fr,r,0,raw,2022-05-20_11h09.40.043,oddball,2022.1.2,59.92265186588498,
10,,,,,0,0,0,2,1,0,1,0,13,0,13,0,,,,,,,,,,,,,,,,,213.14146400010213,None,214.0751003001351,214.67544639995322,214.6586792001035,216.65988210006617,None,1,0.6137048001401126,2.6149796000681818,increament,0.6,25,standard,None,100,,,,,,,,f,23,208,fr,r,0,raw,2022-05-20_11h09.40.043,oddball,2022.1.2,59.92265186588498,
10,,,,,0,0,0,2,1,0,1,0,14,0,14,0,,,,,,,,,,,,,,,,,216.67654539993964,None,217.39335909998044,217.99352300004102,217.97692020004615,219.97762080002576,None,1,0.6119619000237435,2.612595000071451,increament,0.6,25,standard,None,100,,,,,,,,f,23,208,fr,r,0,raw,2022-05-20_11h09.40.043,oddball,2022.1.2,59.92265186588498,
10,,,,,0,0,0,2,1,0,1,0,15,0,15,0,,,,,,,,,,,,,,,,,219.9943772999104,None,220.56087970011868,221.16104999999516,221.1445679999888,223.1450618999079,None,1,0.6122626001015306,2.612722400110215,increament,0.6,25,standard,None,100,,,,,,,,f,23,208,fr,r,0,raw,2022-05-20_11h09.40.043,oddball,2022.1.2,59.92265186588498,
10,,,,,0,0,0,2,1,0,1,0,16,0,16,0,,,,,,,,,,,,,,,,,223.16176909999922,None,223.94577120011672,224.5460133999586,224.5293723999057,226.52985229995102,None,1,0.6124273999594152,2.6128631001338363,increament,0.6,25,standard,None,100,,,,,,,,f,23,208,fr,r,0,raw,2022-05-20_11h09.40.043,oddball,2022.1.2,59.92265186588498,
10,,,,,0,0,0,2,1,0,1,0,17,0,17,0,,,,,,,,,,,,,,,,,226.54658790002577,None,227.23047340009362,227.83031340013258,227.81374870007858,229.81449069990776,None,1,0.6125558000057936,2.6132777999155223,increament,0.6,25,standard,None,100,,,,,,,,f,23,208,fr,r,0,raw,2022-05-20_11h09.40.043,oddball,2022.1.2,59.92265186588498,
10,,,,,0,0,0,2,1,0,1,0,18,0,18,0,,,,,,,,,,,,,,,,,229.83113380009308,None,230.56468460010365,231.41484190011397,231.38183060009032,233.38327060011216,j,1,0.8464639999438077,2.848095800029114,increament,0.84,27,oddball,j,140,0.41745790001004934,,,,,,,f,23,208,fr,r,0,raw,2022-05-20_11h09.40.043,oddball,2022.1.2,59.92265186588498,
10,,,,,0,0,0,2,1,0,1,0,19,0,19,0,,,,,,,,,,,,,,,,,233.39905899995938,None,234.15022570011206,234.74969279998913,234.73316200007685,236.73375210002996,None,1,0.6090100000146776,2.609591200016439,increament,0.6,25,standard,None,100,,,,,,,,f,23,208,fr,r,0,raw,2022-05-20_11h09.40.043,oddball,2022.1.2,59.92265186588498,
10,,,,,0,0,0,2,1,0,1,0,20,0,20,0,,,,,,,,,,,,,,,,,236.75069040013477,None,237.33381490013562,237.93452630005777,237.9178605999332,239.9181605000049,None,1,0.613316599978134,2.613534700125456,increament,0.6,25,standard,None,100,,,,,,,,f,23,208,fr,r,0,raw,2022-05-20_11h09.40.043,oddball,2022.1.2,59.92265186588498,
10,,,,,0,0,0,2,1,0,1,0,21,0,21,0,,,,,,,,,,,,,,,,,239.93498159991577,None,240.71892599994317,241.3190687999595,241.30258619994856,243.3031292001251,None,1,0.6112359003163874,2.6116889002732933,increament,0.6,25,standard,None,100,,,,,,,,f,23,208,fr,r,0,raw,2022-05-20_11h09.40.043,oddball,2022.1.2,59.92265186588498,
10,,,,,0,0,0,2,1,0,1,0,22,0,22,0,,,,,,,,,,,,,,,,,243.3205842000898,None,243.90338009991683,244.50342820002697,244.4870355001185,246.4874112000689,None,1,0.6110921001527458,2.6114019001834095,increament,0.6,25,standard,None,100,,,,,,,,f,23,208,fr,r,0,raw,2022-05-20_11h09.40.043,oddball,2022.1.2,59.92265186588498,
10,,,,,0,0,0,2,1,0,1,0,23,0,23,0,,,,,,,,,,,,,,,,,246.50443099997938,None,247.07078299997374,247.671238000039,247.6547238000203,249.65526730008423,None,1,0.6124542001634836,2.61299329996109,increament,0.6,25,standard,None,100,,,,,,,,f,23,208,fr,r,0,raw,2022-05-20_11h09.40.043,oddball,2022.1.2,59.92265186588498,
10,,,,,0,0,0,2,1,0,1,0,24,0,24,0,,,,,,,,,,,,,,,,,249.6720150001347,None,250.28908340004273,250.88876340002753,250.87226670002565,252.8733558000531,None,1,0.6091449002269655,2.610291700111702,increament,0.6,25,standard,None,100,,,,,,,,f,23,208,fr,r,0,raw,2022-05-20_11h09.40.043,oddball,2022.1.2,59.92265186588498,
10,,,,,0,0,0,2,1,0,1,0,25,0,25,0,,,,,,,,,,,,,,,,,252.8901283000596,None,253.44042220013216,254.4070274999831,254.3743461999111,256.3746502001304,j,1,0.9633361001033336,2.963547799969092,increament,0.96,28,oddball,j,160,0.3618043998721987,,,,,,,f,23,208,fr,r,0,raw,2022-05-20_11h09.40.043,oddball,2022.1.2,59.92265186588498,
10,,,,,0,0,0,2,1,0,1,0,26,0,26,0,,,,,,,,,,,,,,,,,256.3913396000862,None,257.1586005000863,257.75838600005955,257.7422176999971,259.7427197000943,None,1,0.6119391000829637,2.612413300201297,increament,0.6,25,standard,None,100,,,,,,,,f,23,208,fr,r,0,raw,2022-05-20_11h09.40.043,oddball,2022.1.2,59.92265186588498,
10,,,,,0,0,0,2,1,0,1,0,27,0,27,0,,,,,,,,,,,,,,,,,259.7592752999626,None,260.36003539990634,260.95947100012563,260.9430442000739,262.94356829999015,None,1,0.6082817998249084,2.6087278998456895,increament,0.6,25,standard,None,100,,,,,,,,f,23,208,fr,r,0,raw,2022-05-20_11h09.40.043,oddball,2022.1.2,59.92265186588498,
10,,,,,0,0,0,2,1,0,1,0,28,0,28,0,,,,,,,,,,,,,,,,,262.96028180001304,None,263.64397500013,264.2440542001277,264.22825630009174,266.22884380002506,None,1,0.614896000130102,2.615502400090918,increament,0.6,25,standard,None,100,,,,,,,,f,23,208,fr,r,0,raw,2022-05-20_11h09.40.043,oddball,2022.1.2,59.92265186588498,
10,,,,,0,0,0,2,1,0,1,0,29,0,29,0,,,,,,,,,,,,,,,,,266.2464153999463,None,266.9617399000563,267.5622284000274,267.5456117999274,269.5463825999759,None,1,0.6125902002677321,2.6133820002432913,increament,0.6,25,standard,None,100,,,,,,,,f,23,208,fr,r,0,raw,2022-05-20_11h09.40.043,oddball,2022.1.2,59.92265186588498,
10,,,,,0,0,0,2,2,0,2,0,0,0,0,0,,,,,,,,,,,,,,,282.0910156001337,None,286.90266619995236,None,287.55310370004736,288.1535716999788,288.136965099955,290.1375593999401,None,1,0.6121858998667449,2.6127743998076767,decreament,0.6,21,standard,None,100,,269.5631027999334,None,,,,,f,23,208,fr,r,0,raw,2022-05-20_11h09.40.043,oddball,2022.1.2,59.92265186588498,
10,,,,,0,0,0,2,2,0,2,0,1,0,1,0,,,,,,,,,,,,,,,,,290.154161100043,None,290.8881240999326,291.48767830012366,291.4713365000207,293.4719599999953,None,1,0.609340300085023,2.60994780017063,decreament,0.6,21,standard,None,100,,,,,,,,f,23,208,fr,r,0,raw,2022-05-20_11h09.40.043,oddball,2022.1.2,59.92265186588498,
10,,,,,0,0,0,2,2,0,2,0,2,0,2,0,,,,,,,,,,,,,,,,,293.48867230000906,None,294.05591810005717,294.6559226999525,294.6389492000453,296.6400176999159,None,1,0.610160700045526,2.611274000024423,decreament,0.6,21,standard,None,100,,,,,,,,f,23,208,fr,r,0,raw,2022-05-20_11h09.40.043,oddball,2022.1.2,59.92265186588498,
10,,,,,0,0,0,2,2,0,2,0,3,0,3,0,,,,,,,,,,,,,,,,,296.65662549994886,None,297.3070606999099,297.9070922001265,297.8904713001102,299.8911739999894,None,1,0.6108786000404507,2.611593200126663,decreament,0.6,21,standard,None,100,,,,,,,,f,23,208,fr,r,0,raw,2022-05-20_11h09.40.043,oddball,2022.1.2,59.92265186588498,
10,,,,,0,0,0,2,2,0,2,0,4,0,4,0,,,,,,,,,,,,,,,,,299.90779550001025,None,300.44154400005937,301.0416204999201,301.0251448000781,303.02587100001983,None,1,0.6096098001580685,2.6102810001466423,decreament,0.6,21,standard,None,100,,,,,,,,f,23,208,fr,r,0,raw,2022-05-20_11h09.40.043,oddball,2022.1.2,59.92265186588498,
10,,,,,0,0,0,2,2,0,2,0,5,0,5,0,,,,,,,,,,,,,,,,,303.04254509997554,None,303.7760523001198,304.25941370008513,304.24330510012805,306.2434364000801,None,0,0.493303099879995,2.4933845999184996,decreament,0.48,24,oddball,j,80,,,,,,,,f,23,208,fr,r,0,raw,2022-05-20_11h09.40.043,oddball,2022.1.2,59.92265186588498,
10,,,,,0,0,0,2,2,0,2,0,6,0,6,0,,,,,,,,,,,,,,,,,306.2600738001056,None,306.82727209990844,307.42712050001137,307.41058899997734,309.411627399968,None,1,0.608430800260976,2.6095105002168566,decreament,0.6,21,standard,None,100,,,,,,,,f,23,208,fr,r,0,raw,2022-05-20_11h09.40.043,oddball,2022.1.2,59.92265186588498,
10,,,,,0,0,0,2,2,0,2,0,7,0,7,0,,,,,,,,,,,,,,,,,309.42811889993027,None,310.1619305999484,310.7617961000651,310.7457898000721,312.7463637001347,None,1,0.6101154000498354,2.610716799972579,decreament,0.6,21,standard,None,100,,,,,,,,f,23,208,fr,r,0,raw,2022-05-20_11h09.40.043,oddball,2022.1.2,59.92265186588498,
10,,,,,0,0,0,2,2,0,2,0,8,0,8,0,,,,,,,,,,,,,,,,,312.76440170011483,None,313.4627970000729,314.06345269992016,314.04659830010496,316.0473289999645,None,1,0.6121759000234306,2.612923000007868,decreament,0.6,21,standard,None,100,,,,,,,,f,23,208,fr,r,0,raw,2022-05-20_11h09.40.043,oddball,2022.1.2,59.92265186588498,
10,,,,,0,0,0,2,2,0,2,0,9,0,9,0,,,,,,,,,,,,,,,,,316.0637958999723,None,316.7475479999557,317.34768839995377,317.33103500003926,319.3319222999271,None,1,0.6126033999025822,2.6134370998479426,decreament,0.6,21,standard,None,100,,,,,,,,f,23,208,fr,r,0,raw,2022-05-20_11h09.40.043,oddball,2022.1.2,59.92265186588498,
10,,,,,0,0,0,2,2,0,2,0,10,0,10,0,,,,,,,,,,,,,,,,,319.3486788999289,None,320.0153769000899,320.6154827999417,320.5990784999449,322.5995489999186,None,1,0.6089745999779552,2.6094446999486536,decreament,0.6,21,standard,None,100,,,,,,,,f,23,208,fr,r,0,raw,2022-05-20_11h09.40.043,oddball,2022.1.2,59.92265186588498,
10,,,,,0,0,0,2,2,0,2,0,11,0,11,0,,,,,,,,,,,,,,,,,322.6164526999928,None,323.19989990000613,323.79990230011754,323.78368120011874,325.7841042999644,None,1,0.6104811001569033,2.6109150000847876,decreament,0.6,21,standard,None,100,,,,,,,,f,23,208,fr,r,0,raw,2022-05-20_11h09.40.043,oddball,2022.1.2,59.92265186588498,
10,,,,,0,0,0,2,2,0,2,0,12,0,12,0,,,,,,,,,,,,,,,,,325.8007896000054,None,326.4012511000037,326.7681827999186,326.73479610006325,328.7353644000832,j,1,0.36245200014673173,2.362959000049159,decreament,0.36,23,oddball,j,60,0.5198619998991489,,,,,,,f,23,208,fr,r,0,raw,2022-05-20_11h09.40.043,oddball,2022.1.2,59.92265186588498,
10,,,,,0,0,0,2,2,0,2,0,13,0,13,0,,,,,,,,,,,,,,,,,328.75212740013376,None,329.402074099984,330.00293210009113,329.9860048000701,331.98655180004425,None,1,0.6127870001364499,2.6132804001681507,decreament,0.6,21,standard,None,100,,,,,,,,f,23,208,fr,r,0,raw,2022-05-20_11h09.40.043,oddball,2022.1.2,59.92265186588498,
10,,,,,0,0,0,2,2,0,2,0,14,0,14,0,,,,,,,,,,,,,,,,,332.003505300032,None,332.7699404999148,333.3702887999825,333.3536247999873,335.3547344999388,None,1,0.6138878003694117,2.6151251003611833,decreament,0.6,21,standard,None,100,,,,,,,,f,23,208,fr,r,0,raw,2022-05-20_11h09.40.043,oddball,2022.1.2,59.92265186588498,
10,,,,,0,0,0,2,2,0,2,0,15,0,15,0,,,,,,,,,,,,,,,,,335.3710324000567,None,336.1046718999278,336.70516050001606,336.68828000011854,338.6894553999882,None,1,0.6129450001753867,2.6142283000517637,decreament,0.6,21,standard,None,100,,,,,,,,f,23,208,fr,r,0,raw,2022-05-20_11h09.40.043,oddball,2022.1.2,59.92265186588498,
10,,,,,0,0,0,2,2,0,2,0,16,0,16,0,,,,,,,,,,,,,,,,,338.706031100126,None,339.35640270006843,339.60612599994056,339.5727699000854,341.5731758000329,j,1,0.2448467998765409,2.245181699981913,decreament,0.24,22,oddball,j,40,0.626919399946928,,,,,,,f,23,208,fr,r,0,raw,2022-05-20_11h09.40.043,oddball,2022.1.2,59.92265186588498,
10,,,,,0,0,0,2,2,0,2,0,17,0,17,0,,,,,,,,,,,,,,,,,341.5898994000163,None,342.4070262000896,343.007417100016,342.9911660000216,344.99125159997493,None,1,0.6148419000674039,2.614805100020021,decreament,0.6,21,standard,None,100,,,,,,,,f,23,208,fr,r,0,raw,2022-05-20_11h09.40.043,oddball,2022.1.2,59.92265186588498,
10,,,,,0,0,0,2,2,0,2,0,18,0,18,0,,,,,,,,,,,,,,,,,345.0079687999096,None,345.7254737999756,346.3254422999453,346.3087651000824,348.3100962000899,None,1,0.6106523000635207,2.6120623000897467,decreament,0.6,21,standard,None,100,,,,,,,,f,23,208,fr,r,0,raw,2022-05-20_11h09.40.043,oddball,2022.1.2,59.92265186588498,
10,,,,,0,0,0,2,2,0,2,0,19,0,19,0,,,,,,,,,,,,,,,,,348.32605189993046,None,348.99311750009656,349.5932237999514,349.57664220011793,351.57751629990526,None,1,0.6119994001928717,2.6129005001857877,decreament,0.6,21,standard,None,100,,,,,,,,f,23,208,fr,r,0,raw,2022-05-20_11h09.40.043,oddball,2022.1.2,59.92265186588498,
10,,,,,0,0,0,2,2,0,2,0,20,0,20,0,,,,,,,,,,,,,,,,,351.5939474001061,None,352.1777562000789,352.77796510001644,352.76167150004767,354.761905600084,None,1,0.612529800273478,2.6127354002092034,decreament,0.6,21,standard,None,100,,,,,,,,f,23,208,fr,r,0,raw,2022-05-20_11h09.40.043,oddball,2022.1.2,59.92265186588498,
10,,,,,0,0,0,2,2,0,2,0,21,0,21,0,,,,,,,,,,,,,,,,,354.7788412999362,None,355.41232970007695,356.0122791000176,355.99553270009346,357.99645920004696,None,1,0.6074716001749039,2.6084277003537863,decreament,0.6,21,standard,None,100,,,,,,,,f,23,208,fr,r,0,raw,2022-05-20_11h09.40.043,oddball,2022.1.2,59.92265186588498,
10,,,,,0,0,0,2,2,0,2,0,22,0,22,0,,,,,,,,,,,,,,,,,358.01320839999244,None,358.76365930004977,359.36343119991943,359.34698530007154,361.34794640005566,None,1,0.6125330002978444,2.613593000220135,decreament,0.6,21,standard,None,100,,,,,,,,f,23,208,fr,r,0,raw,2022-05-20_11h09.40.043,oddball,2022.1.2,59.92265186588498,
10,,,,,0,0,0,2,2,0,2,0,23,0,23,0,,,,,,,,,,,,,,,,,361.3645498000551,None,362.06487390003167,362.6645691001322,362.64829479996115,364.6490036000032,None,1,0.6079277999233454,2.60868229996413,decreament,0.6,21,standard,None,100,,,,,,,,f,23,208,fr,r,0,raw,2022-05-20_11h09.40.043,oddball,2022.1.2,59.92265186588498,
10,,,,,0,0,0,2,2,0,2,0,24,0,24,0,,,,,,,,,,,,,,,,,364.66564400005154,None,365.2324532000348,365.83279719995335,365.8161790999584,367.81657020002604,None,1,0.6093345999252051,2.609722499968484,decreament,0.6,21,standard,None,100,,,,,,,,f,23,208,fr,r,0,raw,2022-05-20_11h09.40.043,oddball,2022.1.2,59.92265186588498,
10,,,,,0,0,0,2,2,0,2,0,25,0,25,0,,,,,,,,,,,,,,,,,367.83327349997126,None,368.51701469998807,369.1175067999866,369.1005901999306,371.10171380010433,j,0,0.6122570000588894,2.613464100053534,decreament,0.6,21,standard,None,100,0.7869155998341739,,,,,,,f,23,208,fr,r,0,raw,2022-05-20_11h09.40.043,oddball,2022.1.2,59.92265186588498,
10,,,,,0,0,0,2,2,0,2,0,26,0,26,0,,,,,,,,,,,,,,,,,371.11805230006576,None,371.75153889996,372.35183269996196,372.33565120003186,374.33598700002767,j,0,0.6149319000542164,2.6152470000088215,decreament,0.6,21,standard,None,100,0.44832259975373745,,,,,,,f,23,208,fr,r,0,raw,2022-05-20_11h09.40.043,oddball,2022.1.2,59.92265186588498,
10,,,,,0,0,0,2,2,0,2,0,27,0,27,0,,,,,,,,,,,,,,,,,374.35279179993086,None,374.91967099998146,375.5196726999711,375.5030692999717,377.50398269994184,j,0,0.613322600023821,2.6142726000398397,decreament,0.6,21,standard,None,100,0.6084692999720573,,,,,,,f,23,208,fr,r,0,raw,2022-05-20_11h09.40.043,oddball,2022.1.2,59.92265186588498,
10,,,,,0,0,0,2,2,0,2,0,28,0,28,0,,,,,,,,,,,,,,,,,377.52051430009305,None,378.1874927999452,378.78785470011644,378.77112539997324,380.7717011999339,None,1,0.6126780000049621,2.6132002000231296,decreament,0.6,21,standard,None,100,,,,,,,,f,23,208,fr,r,0,raw,2022-05-20_11h09.40.043,oddball,2022.1.2,59.92265186588498,
10,,,,,0,0,0,2,2,0,2,0,29,0,29,0,,,,,,,,,,,,,,,,,380.7885827999562,None,381.338590499945,381.9384767001029,381.92178949993104,383.92278770008124,j,0,0.6122578999493271,2.613276599906385,decreament,0.6,21,standard,None,100,0.5983169998507947,,,,,,,f,23,208,fr,r,0,raw,2022-05-20_11h09.40.043,oddball,2022.1.2,59.92265186588498,
10,,,,,0,0,0,2,3,0,3,0,0,0,0,0,,,,,,,,,,,,,,,391.5422924000304,None,394.29341319995,None,394.92727290000767,395.52744009997696,395.5106838999782,397.51165760005824,None,1,0.6110825999639928,2.61211059987545,increament,0.6,25,standard,None,100,,383.9395826999098,None,,,,,f,23,208,fr,r,0,raw,2022-05-20_11h09.40.043,oddball,2022.1.2,59.92265186588498,
10,,,,,0,0,0,2,3,0,3,0,1,0,1,0,,,,,,,,,,,,,,,,,397.5282368999906,None,398.07812820002437,398.678817700129,398.6621574999299,400.6625822999049,None,1,0.6150966000277549,2.6155260999221355,increament,0.6,25,standard,None,100,,,,,,,,f,23,208,fr,r,0,raw,2022-05-20_11h09.40.043,oddball,2022.1.2,59.92265186588498,
10,,,,,0,0,0,2,3,0,3,0,2,0,2,0,,,,,,,,,,,,,,,,,400.6794811000582,None,401.27933380007744,401.88000799994916,401.86340499995276,403.86372269992717,None,1,0.6110064999666065,2.6113619001116604,increament,0.6,25,standard,None,100,,,,,,,,f,23,208,fr,r,0,raw,2022-05-20_11h09.40.043,oddball,2022.1.2,59.92265186588498,
10,,,,,0,0,0,2,3,0,3,0,3,0,3,0,,,,,,,,,,,,,,,,,403.88032170012593,None,404.464022600092,405.06415780005045,405.04758640006185,407.0488682000432,None,1,0.6130925000179559,2.6144775000866503,increament,0.6,25,standard,None,100,,,,,,,,f,23,208,fr,r,0,raw,2022-05-20_11h09.40.043,oddball,2022.1.2,59.92265186588498,
10,,,,,0,0,0,2,3,0,3,0,4,0,4,0,,,,,,,,,,,,,,,,,407.06686250003986,None,407.76553510013036,408.3656359000597,408.348721700022,410.3499096999876,None,1,0.6122596000786871,2.6135376999154687,increament,0.6,25,standard,None,100,,,,,,,,f,23,208,fr,r,0,raw,2022-05-20_11h09.40.043,oddball,2022.1.2,59.92265186588498,
10,,,,,0,0,0,2,3,0,3,0,5,0,5,0,,,,,,,,,,,,,,,,,410.36739849997684,None,411.0664474000223,411.66695700003766,411.65019570011646,413.65067670005374,j,0,0.6132847000844777,2.613726600073278,increament,0.6,25,standard,None,100,0.9257811999414116,,,,,,,f,23,208,fr,r,0,raw,2022-05-20_11h09.40.043,oddball,2022.1.2,59.92265186588498,
10,,,,,0,0,0,2,3,0,3,0,6,0,6,0,,,,,,,,,,,,,,,,,413.6675804001279,None,414.30107289995067,415.2686066001188,415.2348923000973,417.23581860004924,j,1,0.9622525000013411,2.963220200035721,increament,0.96,28,oddball,j,160,0.39648839994333684,,,,,,,f,23,208,fr,r,0,raw,2022-05-20_11h09.40.043,oddball,2022.1.2,59.92265186588498,
10,,,,,0,0,0,2,3,0,3,0,7,0,7,0,,,,,,,,,,,,,,,,,417.25218349997886,None,417.9192441999912,418.5192529000342,418.5028886999935,420.5036192999687,None,1,0.6106861003208905,2.6114766001701355,increament,0.6,25,standard,None,100,,,,,,,,f,23,208,fr,r,0,raw,2022-05-20_11h09.40.043,oddball,2022.1.2,59.92265186588498,
10,,,,,0,0,0,2,3,0,3,0,8,0,8,0,,,,,,,,,,,,,,,,,420.52000149991363,None,421.3376752000768,421.93765230011195,421.9205392000731,423.9212712999433,None,1,0.6090288001578301,2.609724400099367,increament,0.6,25,standard,None,100,,,,,,,,f,23,208,fr,r,0,raw,2022-05-20_11h09.40.043,oddball,2022.1.2,59.92265186588498,
10,,,,,0,0,0,2,3,0,3,0,9,0,9,0,,,,,,,,,,,,,,,,,423.93792619998567,None,424.5882890999783,425.18842980009504,425.17192939994857,427.172785700066,None,1,0.612732799956575,2.613648199941963,increament,0.6,25,standard,None,100,,,,,,,,f,23,208,fr,r,0,raw,2022-05-20_11h09.40.043,oddball,2022.1.2,59.92265186588498,
10,,,,,0,0,0,2,3,0,3,0,10,0,10,0,,,,,,,,,,,,,,,,,427.18942379998043,None,427.8063779999502,428.40673239994794,428.3902229999658,430.39072040002793,None,1,0.6127747998107225,2.6132478998042643,increament,0.6,25,standard,None,100,,,,,,,,f,23,208,fr,r,0,raw,2022-05-20_11h09.40.043,oddball,2022.1.2,59.92265186588498,
10,,,,,0,0,0,2,3,0,3,0,11,0,11,0,,,,,,,,,,,,,,,,,430.4071017000824,None,431.04089649999514,431.6409621001221,431.624511100119,433.62529350002296,None,1,0.612453900044784,2.613263300154358,increament,0.6,25,standard,None,100,,,,,,,,f,23,208,fr,r,0,raw,2022-05-20_11h09.40.043,oddball,2022.1.2,59.92265186588498,
10,,,,,0,0,0,2,3,0,3,0,12,0,12,0,,,,,,,,,,,,,,,,,433.64178399997763,None,434.2418470000848,434.8422831001226,434.82576190005057,436.8264522999525,None,1,0.6130106002092361,2.61380930012092,increament,0.6,25,standard,None,100,,,,,,,,f,23,208,fr,r,0,raw,2022-05-20_11h09.40.043,oddball,2022.1.2,59.92265186588498,
10,,,,,0,0,0,2,3,0,3,0,13,0,13,0,,,,,,,,,,,,,,,,,436.8434810000472,None,437.4930839999579,438.22696910006925,438.1939767000731,440.1941100000404,None,0,0.7298319002147764,2.729877100326121,increament,0.72,26,oddball,j,120,,,,,,,,f,23,208,fr,r,0,raw,2022-05-20_11h09.40.043,oddball,2022.1.2,59.92265186588498,
10,,,,,0,0,0,2,3,0,3,0,14,0,14,0,,,,,,,,,,,,,,,,,440.2110592999961,None,440.77792909997515,441.3779060000088,441.36156439990737,443.36193130002357,None,1,0.6124895000830293,2.6127985999919474,increament,0.6,25,standard,None,100,,,,,,,,f,23,208,fr,r,0,raw,2022-05-20_11h09.40.043,oddball,2022.1.2,59.92265186588498,
10,,,,,0,0,0,2,3,0,3,0,15,0,15,0,,,,,,,,,,,,,,,,,443.37887499993667,None,443.9455673000775,444.5458790999837,444.52902040001936,446.5300316999201,None,1,0.6129265001509339,2.613976300228387,increament,0.6,25,standard,None,100,,,,,,,,f,23,208,fr,r,0,raw,2022-05-20_11h09.40.043,oddball,2022.1.2,59.92265186588498,
10,,,,,0,0,0,2,3,0,3,0,16,0,16,0,,,,,,,,,,,,,,,,,446.5468383000698,None,447.04701919993386,447.6469996999949,447.63026010012254,449.63140930002555,None,1,0.6115826000459492,2.6127693001180887,increament,0.6,25,standard,None,100,,,,,,,,f,23,208,fr,r,0,raw,2022-05-20_11h09.40.043,oddball,2022.1.2,59.92265186588498,
10,,,,,0,0,0,2,3,0,3,0,17,0,17,0,,,,,,,,,,,,,,,,,449.64784960006364,None,450.1812332000118,450.7813822000753,450.76520480006,452.76592519995756,None,1,0.6127949999645352,2.613566199783236,increament,0.6,25,standard,None,100,,,,,,,,f,23,208,fr,r,0,raw,2022-05-20_11h09.40.043,oddball,2022.1.2,59.92265186588498,
10,,,,,0,0,0,2,3,0,3,0,18,0,18,0,,,,,,,,,,,,,,,,,452.78351629991084,None,453.58324770000763,454.1830990000162,454.16660819994286,456.167042999994,None,1,0.6096648999955505,2.6100794000085443,increament,0.6,25,standard,None,100,,,,,,,,f,23,208,fr,r,0,raw,2022-05-20_11h09.40.043,oddball,2022.1.2,59.92265186588498,
10,,,,,0,0,0,2,3,0,3,0,19,0,19,0,,,,,,,,,,,,,,,,,456.18393460009247,None,456.88393140002154,457.7344059001189,457.7009602000471,459.7017709000502,j,1,0.8459053002297878,2.8467125000897795,increament,0.84,27,oddball,j,140,0.4658043999224901,,,,,,,f,23,208,fr,r,0,raw,2022-05-20_11h09.40.043,oddball,2022.1.2,59.92265186588498,
10,,,,,0,0,0,2,3,0,3,0,20,0,20,0,,,,,,,,,,,,,,,,,459.71848489996046,None,460.56882910011336,461.169347200077,461.15231260005385,463.15287530003116,None,1,0.609698899788782,2.6102022998966277,increament,0.6,25,standard,None,100,,,,,,,,f,23,208,fr,r,0,raw,2022-05-20_11h09.40.043,oddball,2022.1.2,59.92265186588498,
10,,,,,0,0,0,2,3,0,3,0,21,0,21,0,,,,,,,,,,,,,,,,,463.16973620001227,None,463.9697135000024,464.570054900134,464.55365419993177,466.5543949001003,None,1,0.6134208999574184,2.614221299998462,increament,0.6,25,standard,None,100,,,,,,,,f,23,208,fr,r,0,raw,2022-05-20_11h09.40.043,oddball,2022.1.2,59.92265186588498,
10,,,,,0,0,0,2,3,0,3,0,22,0,22,0,,,,,,,,,,,,,,,,,466.5712228999473,None,467.1210791999474,467.7214043000713,467.70504830009304,469.7056130999699,None,1,0.6128953001461923,2.6134774000383914,increament,0.6,25,standard,None,100,,,,,,,,f,23,208,fr,r,0,raw,2022-05-20_11h09.40.043,oddball,2022.1.2,59.92265186588498,
10,,,,,0,0,0,2,3,0,3,0,23,0,23,0,,,,,,,,,,,,,,,,,469.72225200012326,None,470.3721861001104,470.97233060002327,470.95578379998915,472.95695169991814,None,1,0.6132343001663685,2.614447000203654,increament,0.6,25,standard,None,100,,,,,,,,f,23,208,fr,r,0,raw,2022-05-20_11h09.40.043,oddball,2022.1.2,59.92265186588498,
10,,,,,0,0,0,2,3,0,3,0,24,0,24,0,,,,,,,,,,,,,,,,,472.9733903000597,None,473.6070300999563,474.2073001000099,474.1909644000698,476.19135689991526,None,1,0.6104850999545306,2.610803599935025,increament,0.6,25,standard,None,100,,,,,,,,f,23,208,fr,r,0,raw,2022-05-20_11h09.40.043,oddball,2022.1.2,59.92265186588498,
10,,,,,0,0,0,2,3,0,3,0,25,0,25,0,,,,,,,,,,,,,,,,,476.2080419000704,None,476.80830619996414,477.4081409999635,477.39176429994404,479.39267480000854,None,1,0.6116573999170214,2.6126293998677284,increament,0.6,25,standard,None,100,,,,,,,,f,23,208,fr,r,0,raw,2022-05-20_11h09.40.043,oddball,2022.1.2,59.92265186588498,
10,,,,,0,0,0,2,3,0,3,0,26,0,26,0,,,,,,,,,,,,,,,,,479.40908970008604,None,479.97631400008686,480.5764234000817,480.5596137000248,482.56032950012013,None,1,0.6126332997810096,2.613464399939403,increament,0.6,25,standard,None,100,,,,,,,,f,23,208,fr,r,0,raw,2022-05-20_11h09.40.043,oddball,2022.1.2,59.92265186588498,
10,,,,,0,0,0,2,3,0,3,0,27,0,27,0,,,,,,,,,,,,,,,,,482.577607100131,None,483.21068249992095,483.8106675001327,483.7943341000937,485.79474400007166,None,1,0.610887800110504,2.6112892001401633,increament,0.6,25,standard,None,100,,,,,,,,f,23,208,fr,r,0,raw,2022-05-20_11h09.40.043,oddball,2022.1.2,59.92265186588498,
10,,,,,0,0,0,2,3,0,3,0,28,0,28,0,,,,,,,,,,,,,,,,,485.81143500003964,None,486.36166219995357,486.96196240000427,486.9456098000519,488.94620290002786,None,1,0.6121911001391709,2.612791300052777,increament,0.6,25,standard,None,100,,,,,,,,f,23,208,fr,r,0,raw,2022-05-20_11h09.40.043,oddball,2022.1.2,59.92265186588498,
10,,,,,0,0,0,2,3,0,3,0,29,0,29,0,,,,,,,,,,,,,,,,,488.96257769991644,None,489.646500099916,490.2460767000448,490.2295250000898,492.2301964999642,None,1,0.6109134000726044,2.6115761999972165,increament,0.6,25,standard,None,100,,,,,,,,f,23,208,fr,r,0,raw,2022-05-20_11h09.40.043,oddball,2022.1.2,59.92265186588498,
10,,,,,0,0,0,2,4,0,4,0,0,0,0,0,,,,,,,,,,,,,,,504.87868570000865,None,507.38650520006195,None,508.03662410005927,508.6369312000461,508.6200649999082,510.6210308999289,None,1,0.6118312000762671,2.6128485000226647,decreament,0.6,21,standard,None,100,,492.2471616999246,None,,,,,f,23,208,fr,r,0,raw,2022-05-20_11h09.40.043,oddball,2022.1.2,59.92265186588498,
10,,,,,0,0,0,2,4,0,4,0,1,0,1,0,,,,,,,,,,,,,,,,,510.6398765000049,None,511.57121460000053,512.1717249001376,512.155111100059,514.1554572000168,None,1,0.6098618002142757,2.610093100229278,decreament,0.6,21,standard,None,100,,,,,,,,f,23,208,fr,r,0,raw,2022-05-20_11h09.40.043,oddball,2022.1.2,59.92265186588498,
10,,,,,0,0,0,2,4,0,4,0,2,0,2,0,,,,,,,,,,,,,,,,,514.1721326000988,None,514.9223410000559,515.5226320999209,515.506289199926,517.5067477000412,None,1,0.6109077001456171,2.6113511002622545,decreament,0.6,21,standard,None,100,,,,,,,,f,23,208,fr,r,0,raw,2022-05-20_11h09.40.043,oddball,2022.1.2,59.92265186588498,
10,,,,,0,0,0,2,4,0,4,0,3,0,3,0,,,,,,,,,,,,,,,,,517.5237682000734,None,518.0402361999732,518.6404057999607,518.62379959994,520.6249138999265,None,1,0.6118018000852317,2.6129848998971283,decreament,0.6,21,standard,None,100,,,,,,,,f,23,208,fr,r,0,raw,2022-05-20_11h09.40.043,oddball,2022.1.2,59.92265186588498,
10,,,,,0,0,0,2,4,0,4,0,4,0,4,0,,,,,,,,,,,,,,,,,520.6422864999622,None,521.1583350000437,521.7586119999178,521.7419833999593,523.7424808000214,None,1,0.6112494999542832,2.611722500063479,decreament,0.6,21,standard,None,100,,,,,,,,f,23,208,fr,r,0,raw,2022-05-20_11h09.40.043,oddball,2022.1.2,59.92265186588498,
10,,,,,0,0,0,2,4,0,4,0,5,0,5,0,,,,,,,,,,,,,,,,,523.7591236999724,None,524.3262004000135,524.9262685999274,524.9098924999125,526.9102539999876,None,1,0.612617100123316,2.612888000207022,decreament,0.6,21,standard,None,100,,,,,,,,f,23,208,fr,r,0,raw,2022-05-20_11h09.40.043,oddball,2022.1.2,59.92265186588498,
10,,,,,0,0,0,2,4,0,4,0,6,0,6,0,,,,,,,,,,,,,,,,,526.927240600111,None,527.51089029992,527.7610170999542,527.7271764001343,529.7283767999616,j,1,0.24267280008643866,2.2439681999385357,decreament,0.24,22,oddball,j,40,0.47097979998216033,,,,,,,f,23,208,fr,r,0,raw,2022-05-20_11h09.40.043,oddball,2022.1.2,59.92265186588498,
10,,,,,0,0,0,2,4,0,4,0,7,0,7,0,,,,,,,,,,,,,,,,,529.7453960999846,None,530.2952539999969,530.8953281000722,530.8788191000931,532.8795950999483,None,1,0.6084185999352485,2.6092890000436455,decreament,0.6,21,standard,None,100,,,,,,,,f,23,208,fr,r,0,raw,2022-05-20_11h09.40.043,oddball,2022.1.2,59.92265186588498,
10,,,,,0,0,0,2,4,0,4,0,8,0,8,0,,,,,,,,,,,,,,,,,532.896017299965,None,533.6134584001265,534.21294509992,534.1967291999608,536.1975040999241,None,1,0.6087730003055185,2.609557800227776,decreament,0.6,21,standard,None,100,,,,,,,,f,23,208,fr,r,0,raw,2022-05-20_11h09.40.043,oddball,2022.1.2,59.92265186588498,
10,,,,,0,0,0,2,4,0,4,0,9,0,9,0,,,,,,,,,,,,,,,,,536.2139385000337,None,536.7976862001233,537.3976163000334,537.3812188000884,539.3818864000496,None,1,0.6095724999904633,2.610284599941224,decreament,0.6,21,standard,None,100,,,,,,,,f,23,208,fr,r,0,raw,2022-05-20_11h09.40.043,oddball,2022.1.2,59.92265186588498,
10,,,,,0,0,0,2,4,0,4,0,10,0,10,0,,,,,,,,,,,,,,,,,539.3983501999173,None,540.1655115999747,540.7656590999104,540.7489126999862,542.7498789001256,None,1,0.6126503003761172,2.6136685002129525,decreament,0.6,21,standard,None,100,,,,,,,,f,23,208,fr,r,0,raw,2022-05-20_11h09.40.043,oddball,2022.1.2,59.92265186588498,
10,,,,,0,0,0,2,4,0,4,0,11,0,11,0,,,,,,,,,,,,,,,,,542.7670070999302,None,543.3332637001295,543.9335898000281,543.9171146000735,545.9176467000507,None,1,0.6130292001180351,2.613520100247115,decreament,0.6,21,standard,None,100,,,,,,,,f,23,208,fr,r,0,raw,2022-05-20_11h09.40.043,oddball,2022.1.2,59.92265186588498,
10,,,,,0,0,0,2,4,0,4,0,12,0,12,0,,,,,,,,,,,,,,,,,545.9342219000682,None,546.7181275999174,547.3181735000107,547.3015511999838,549.3020959999412,None,1,0.6120776000898331,2.612603000132367,decreament,0.6,21,standard,None,100,,,,,,,,f,23,208,fr,r,0,raw,2022-05-20_11h09.40.043,oddball,2022.1.2,59.92265186588498,
10,,,,,0,0,0,2,4,0,4,0,13,0,13,0,,,,,,,,,,,,,,,,,549.319233499933,None,549.9522448999342,550.5526052999776,550.5365665000863,552.5363489999436,j,0,0.6140252999030054,2.6137279998511076,decreament,0.6,21,standard,None,100,1.837411099812016,,,,,,,f,23,208,fr,r,0,raw,2022-05-20_11h09.40.043,oddball,2022.1.2,59.92265186588498,
10,,,,,0,0,0,2,4,0,4,0,14,0,14,0,,,,,,,,,,,,,,,,,552.5530151999556,None,553.1204178000335,553.7210528000724,553.7043141000904,555.7050081000198,j,0,0.6093485001474619,2.610072100069374,decreament,0.6,21,standard,None,100,0.3498204997740686,,,,,,,f,23,208,fr,r,0,raw,2022-05-20_11h09.40.043,oddball,2022.1.2,59.92265186588498,
10,,,,,0,0,0,2,4,0,4,0,15,0,15,0,,,,,,,,,,,,,,,,,555.7223519999534,None,556.3220506000798,556.9217888999265,556.9050159999169,558.9059170999099,None,1,0.6092964999843389,2.6101452000439167,decreament,0.6,21,standard,None,100,,,,,,,,f,23,208,fr,r,0,raw,2022-05-20_11h09.40.043,oddball,2022.1.2,59.92265186588498,
10,,,,,0,0,0,2,4,0,4,0,16,0,16,0,,,,,,,,,,,,,,,,,558.9228324999567,None,559.5558607000858,560.1562228000257,560.139776499942,562.1405414000619,None,1,0.6144876000471413,2.6152067999355495,decreament,0.6,21,standard,None,100,,,,,,,,f,23,208,fr,r,0,raw,2022-05-20_11h09.40.043,oddball,2022.1.2,59.92265186588498,
10,,,,,0,0,0,2,4,0,4,0,17,0,17,0,,,,,,,,,,,,,,,,,562.1571643999778,None,562.7738218000159,563.3738532001153,563.3571975999512,565.358230400132,None,1,0.6129915004130453,2.6140474004205316,decreament,0.6,21,standard,None,100,,,,,,,,f,23,208,fr,r,0,raw,2022-05-20_11h09.40.043,oddball,2022.1.2,59.92265186588498,
10,,,,,0,0,0,2,4,0,4,0,18,0,18,0,,,,,,,,,,,,,,,,,565.3748236999381,None,566.1087450999767,566.5924201000016,566.5755946000572,568.576529599959,None,0,0.49421590007841587,2.4951406000182033,decreament,0.48,24,oddball,j,80,,,,,,,,f,23,208,fr,r,0,raw,2022-05-20_11h09.40.043,oddball,2022.1.2,59.92265186588498,
10,,,,,0,0,0,2,4,0,4,0,19,0,19,0,,,,,,,,,,,,,,,,,568.592944300035,None,569.2767710001208,569.876797700068,569.8604306001216,571.8609667001292,None,1,0.6096951002255082,2.6101560001261532,decreament,0.6,21,standard,None,100,,,,,,,,f,23,208,fr,r,0,raw,2022-05-20_11h09.40.043,oddball,2022.1.2,59.92265186588498,
10,,,,,0,0,0,2,4,0,4,0,20,0,20,0,,,,,,,,,,,,,,,,,571.8772356999107,None,572.6615238999948,573.2614202001132,573.244747800054,575.2455742000602,j,0,0.6093374001793563,2.610186100238934,decreament,0.6,21,standard,None,100,1.5870022997260094,,,,,,,f,23,208,fr,r,0,raw,2022-05-20_11h09.40.043,oddball,2022.1.2,59.92265186588498,
10,,,,,0,0,0,2,4,0,4,0,21,0,21,0,,,,,,,,,,,,,,,,,575.261946399929,None,575.945369400084,576.5459549000952,576.5291096000001,578.5299076000229,j,0,0.6143111998680979,2.6151339998468757,decreament,0.6,21,standard,None,100,0.8778866997454315,,,,,,,f,23,208,fr,r,0,raw,2022-05-20_11h09.40.043,oddball,2022.1.2,59.92265186588498,
10,,,,,0,0,0,2,4,0,4,0,22,0,22,0,,,,,,,,,,,,,,,,,578.5467177999672,None,579.1637103999965,579.7641155999154,579.7472999000456,581.74803779996,j,0,0.6124631999991834,2.613164500100538,decreament,0.6,21,standard,None,100,0.7867866999004036,,,,,,,f,23,208,fr,r,0,raw,2022-05-20_11h09.40.043,oddball,2022.1.2,59.92265186588498,
10,,,,,0,0,0,2,4,0,4,0,23,0,23,0,,,,,,,,,,,,,,,,,581.7645859001204,None,582.2980277000461,582.8982402000111,582.8819301000331,584.8825264000334,j,0,0.6124442000873387,2.613090400118381,decreament,0.6,21,standard,None,100,0.7567423998843879,,,,,,,f,23,208,fr,r,0,raw,2022-05-20_11h09.40.043,oddball,2022.1.2,59.92265186588498,
10,,,,,0,0,0,2,4,0,4,0,24,0,24,0,,,,,,,,,,,,,,,,,584.8989309000317,None,585.4495326001197,585.815943100024,585.7828695999924,587.7836808001157,None,0,0.36147210001945496,2.36220970004797,decreament,0.36,23,oddball,j,60,,,,,,,,f,23,208,fr,r,0,raw,2022-05-20_11h09.40.043,oddball,2022.1.2,59.92265186588498,
10,,,,,0,0,0,2,4,0,4,0,25,0,25,0,,,,,,,,,,,,,,,,,587.8000114001334,None,588.4503319999203,589.0506885000505,589.0339063999709,591.0347863000352,None,1,0.6090205998625606,2.609898499911651,decreament,0.6,21,standard,None,100,,,,,,,,f,23,208,fr,r,0,raw,2022-05-20_11h09.40.043,oddball,2022.1.2,59.92265186588498,
10,,,,,0,0,0,2,4,0,4,0,26,0,26,0,,,,,,,,,,,,,,,,,591.0514972999226,None,591.9351592999883,592.5351231000386,592.5186278000474,594.519361600047,None,1,0.6091885000932962,2.609920100076124,decreament,0.6,21,standard,None,100,,,,,,,,f,23,208,fr,r,0,raw,2022-05-20_11h09.40.043,oddball,2022.1.2,59.92265186588498,
10,,,,,0,0,0,2,4,0,4,0,27,0,27,0,,,,,,,,,,,,,,,,,594.5361067000777,None,595.3363173999824,595.9364402999636,595.9197066000197,597.9209984000772,None,1,0.6114055002108216,2.6127770002931356,decreament,0.6,21,standard,None,100,,,,,,,,f,23,208,fr,r,0,raw,2022-05-20_11h09.40.043,oddball,2022.1.2,59.92265186588498,
10,,,,,0,0,0,2,4,0,4,0,28,0,28,0,,,,,,,,,,,,,,,,,597.9374641000759,None,598.4542827000841,599.0545445999596,599.0381980999373,601.0383725001011,None,1,0.6134505001828074,2.613619000185281,decreament,0.6,21,standard,None,100,,,,,,,,f,23,208,fr,r,0,raw,2022-05-20_11h09.40.043,oddball,2022.1.2,59.92265186588498,
10,,,,,0,0,0,2,4,0,4,0,29,0,29,0,,,,,,,,,,,,,,,,,601.0554529000074,None,601.7554605000187,602.3556989000645,602.3387925000861,604.3399130001199,None,1,0.6085691000334918,2.609774600015953,decreament,0.6,21,standard,None,100,,,,,,,,f,23,208,fr,r,0,raw,2022-05-20_11h09.40.043,oddball,2022.1.2,59.92265186588498,
10,,,,,0,0,0,2,5,0,5,0,0,0,0,0,,,,,,,,,,,,,,,621.3679523000028,None,626.1644794000313,None,626.6818484000396,627.2815954999533,627.2651158000808,629.2660793000832,None,1,0.6084998000878841,2.6095227003097534,increament,0.6,25,standard,None,100,,604.3602630000096,None,,,,,f,23,208,fr,r,0,raw,2022-05-20_11h09.40.043,oddball,2022.1.2,59.92265186588498,
10,,,,,0,0,0,2,5,0,5,0,1,0,1,0,,,,,,,,,,,,,,,,,629.2833080999553,None,629.9492599000223,630.5494129001163,630.5332319999579,632.5342226000503,None,1,0.6094359999988228,2.610500100068748,increament,0.6,25,standard,None,100,,,,,,,,f,23,208,fr,r,0,raw,2022-05-20_11h09.40.043,oddball,2022.1.2,59.92265186588498,
10,,,,,0,0,0,2,5,0,5,0,2,0,2,0,,,,,,,,,,,,,,,,,632.5515294000506,None,633.1008995000739,633.7011867000256,633.6843187001068,635.68491489999,None,1,0.612696300027892,2.6132672000676394,increament,0.6,25,standard,None,100,,,,,,,,f,23,208,fr,r,0,raw,2022-05-20_11h09.40.043,oddball,2022.1.2,59.92265186588498,
10,,,,,0,0,0,2,5,0,5,0,3,0,3,0,,,,,,,,,,,,,,,,,635.7016038000584,None,636.4355921999086,637.0356687000021,637.0187939000316,639.0192694999278,None,1,0.6105537998955697,2.6110020000487566,increament,0.6,25,standard,None,100,,,,,,,,f,23,208,fr,r,0,raw,2022-05-20_11h09.40.043,oddball,2022.1.2,59.92265186588498,
10,,,,,0,0,0,2,5,0,5,0,4,0,4,0,,,,,,,,,,,,,,,,,639.0362354000099,None,639.6531010000035,640.2532226000912,640.2365351000335,642.237566600088,None,1,0.6131286998279393,2.614151599816978,increament,0.6,25,standard,None,100,,,,,,,,f,23,208,fr,r,0,raw,2022-05-20_11h09.40.043,oddball,2022.1.2,59.92265186588498,
10,,,,,0,0,0,2,5,0,5,0,5,0,5,0,,,,,,,,,,,,,,,,,642.2540104000363,None,642.9543477999978,643.8045642999932,643.7716377999168,645.7725756000727,None,0,0.8466791997198015,2.8475929996930063,increament,0.84,27,oddball,j,140,,,,,,,,f,23,208,fr,r,0,raw,2022-05-20_11h09.40.043,oddball,2022.1.2,59.92265186588498,
10,,,,,0,0,0,2,5,0,5,0,6,0,6,0,,,,,,,,,,,,,,,,,645.7888126999605,None,646.4721576999873,647.0725058000535,647.0557820999529,649.0564888999797,None,1,0.6132947003934532,2.614012200385332,increament,0.6,25,standard,None,100,,,,,,,,f,23,208,fr,r,0,raw,2022-05-20_11h09.40.043,oddball,2022.1.2,59.92265186588498,
10,,,,,0,0,0,2,5,0,5,0,7,0,7,0,,,,,,,,,,,,,,,,,649.0732789000031,None,649.7738401999231,650.3737568000797,650.3570199999958,652.3577004999388,None,1,0.6097494999412447,2.6104303000029176,increament,0.6,25,standard,None,100,,,,,,,,f,23,208,fr,r,0,raw,2022-05-20_11h09.40.043,oddball,2022.1.2,59.92265186588498,
10,,,,,0,0,0,2,5,0,5,0,8,0,8,0,,,,,,,,,,,,,,,,,652.3744713999331,None,652.9584318001289,653.5583093001042,653.541666300036,655.5422298000194,None,1,0.6092427002731711,2.609775800257921,increament,0.6,25,standard,None,100,,,,,,,,f,23,208,fr,r,0,raw,2022-05-20_11h09.40.043,oddball,2022.1.2,59.92265186588498,
10,,,,,0,0,0,2,5,0,5,0,9,0,9,0,,,,,,,,,,,,,,,,,655.5592914000154,None,656.2930765000638,656.8929123000707,656.8763244999573,658.8770330001134,None,1,0.6077295998111367,2.608458000002429,increament,0.6,25,standard,None,100,,,,,,,,f,23,208,fr,r,0,raw,2022-05-20_11h09.40.043,oddball,2022.1.2,59.92265186588498,
10,,,,,0,0,0,2,5,0,5,0,10,0,10,0,,,,,,,,,,,,,,,,,658.8939130001236,None,659.5440931001212,660.1438301000744,660.127443900099,662.1282254999969,None,1,0.6103022999595851,2.611110199941322,increament,0.6,25,standard,None,100,,,,,,,,f,23,208,fr,r,0,raw,2022-05-20_11h09.40.043,oddball,2022.1.2,59.92265186588498,
10,,,,,0,0,0,2,5,0,5,0,11,0,11,0,,,,,,,,,,,,,,,,,662.1452472999226,None,662.6953897001222,663.2952177999541,663.2785052999388,665.2793076001108,None,1,0.6112774002831429,2.6120969001203775,increament,0.6,25,standard,None,100,,,,,,,,f,23,208,fr,r,0,raw,2022-05-20_11h09.40.043,oddball,2022.1.2,59.92265186588498,
10,,,,,0,0,0,2,5,0,5,0,12,0,12,0,,,,,,,,,,,,,,,,,665.2961393999867,None,666.0297987000085,666.629894600017,666.6133280000649,668.6139142999891,None,1,0.6121596000157297,2.6127827998716384,increament,0.6,25,standard,None,100,,,,,,,,f,23,208,fr,r,0,raw,2022-05-20_11h09.40.043,oddball,2022.1.2,59.92265186588498,
10,,,,,0,0,0,2,5,0,5,0,13,0,13,0,,,,,,,,,,,,,,,,,668.6307578999549,None,669.3644143999554,669.9644530001096,669.9478555999231,671.9486871000845,None,1,0.6110854002181441,2.611979100154713,increament,0.6,25,standard,None,100,,,,,,,,f,23,208,fr,r,0,raw,2022-05-20_11h09.40.043,oddball,2022.1.2,59.92265186588498,
10,,,,,0,0,0,2,5,0,5,0,14,0,14,0,,,,,,,,,,,,,,,,,671.965541300131,None,672.6155048001092,673.2158343000337,673.1825689000543,675.1839437999297,None,1,0.5991688999347389,2.6006297001149505,increament,0.6,25,standard,None,100,,,,,,,,f,23,208,fr,r,0,raw,2022-05-20_11h09.40.043,oddball,2022.1.2,59.92265186588498,
10,,,,,0,0,0,2,5,0,5,0,15,0,15,0,,,,,,,,,,,,,,,,,675.20193380001,None,675.7670054000337,676.3670095000416,676.3503080999944,678.3512870001141,None,1,0.6117157996632159,2.612781799864024,increament,0.6,25,standard,None,100,,,,,,,,f,23,208,fr,r,0,raw,2022-05-20_11h09.40.043,oddball,2022.1.2,59.92265186588498,
10,,,,,0,0,0,2,5,0,5,0,16,0,16,0,,,,,,,,,,,,,,,,,678.3676797999069,None,679.218249599915,679.9516201999504,679.9185470999219,681.9191789999604,j,1,0.7291856999509037,2.729857699945569,increament,0.72,26,oddball,j,120,0.7597216998692602,,,,,,,f,23,208,fr,r,0,raw,2022-05-20_11h09.40.043,oddball,2022.1.2,59.92265186588498,
10,,,,,0,0,0,2,5,0,5,0,17,0,17,0,,,,,,,,,,,,,,,,,681.9359822999686,None,682.5192184001207,683.119544000132,683.103274299996,685.10379380011,None,1,0.6136467002797872,2.6142159001901746,increament,0.6,25,standard,None,100,,,,,,,,f,23,208,fr,r,0,raw,2022-05-20_11h09.40.043,oddball,2022.1.2,59.92265186588498,
10,,,,,0,0,0,2,5,0,5,0,18,0,18,0,,,,,,,,,,,,,,,,,685.1215876000933,None,685.7037905000616,686.3040531000588,686.2873619999737,688.2880671999883,None,1,0.6122530000284314,2.612961099948734,increament,0.6,25,standard,None,100,,,,,,,,f,23,208,fr,r,0,raw,2022-05-20_11h09.40.043,oddball,2022.1.2,59.92265186588498,
10,,,,,0,0,0,2,5,0,5,0,19,0,19,0,,,,,,,,,,,,,,,,,688.305048600072,None,688.8549488000572,689.4553670999594,689.4390122001059,691.4398656999692,None,1,0.6138735997956246,2.61461569997482,increament,0.6,25,standard,None,100,,,,,,,,f,23,208,fr,r,0,raw,2022-05-20_11h09.40.043,oddball,2022.1.2,59.92265186588498,
10,,,,,0,0,0,2,5,0,5,0,20,0,20,0,,,,,,,,,,,,,,,,,691.4561540000141,None,692.0396861000918,692.6399884000421,692.6233876000624,694.6238075001165,None,1,0.6107871998101473,2.611238499870524,increament,0.6,25,standard,None,100,,,,,,,,f,23,208,fr,r,0,raw,2022-05-20_11h09.40.043,oddball,2022.1.2,59.92265186588498,
10,,,,,0,0,0,2,5,0,5,0,21,0,21,0,,,,,,,,,,,,,,,,,694.6409666999243,None,695.2073667999357,696.174671899993,696.1414987000171,698.1420783000067,j,1,0.9629225002136081,2.9634960000403225,increament,0.96,28,oddball,j,160,1.2641324999276549,,,,,,,f,23,208,fr,r,0,raw,2022-05-20_11h09.40.043,oddball,2022.1.2,59.92265186588498,
10,,,,,0,0,0,2,5,0,5,0,22,0,22,0,,,,,,,,,,,,,,,,,698.1584431999363,None,698.9089081001002,699.5090874000452,699.4925736999139,701.4933112999424,None,1,0.6124650000128895,2.6132413998711854,increament,0.6,25,standard,None,100,,,,,,,,f,23,208,fr,r,0,raw,2022-05-20_11h09.40.043,oddball,2022.1.2,59.92265186588498,
10,,,,,0,0,0,2,5,0,5,0,23,0,23,0,,,,,,,,,,,,,,,,,701.5100575000979,None,702.1772849999834,702.7771690001246,702.7606512000784,704.7609840000514,None,1,0.6086320001631975,2.60873860004358,increament,0.6,25,standard,None,100,,,,,,,,f,23,208,fr,r,0,raw,2022-05-20_11h09.40.043,oddball,2022.1.2,59.92265186588498,
10,,,,,0,0,0,2,5,0,5,0,24,0,24,0,,,,,,,,,,,,,,,,,704.7778215000872,None,705.5779715001117,706.1784226999152,706.1619283000473,708.1622391999699,None,1,0.6130450998898596,2.6133598000742495,increament,0.6,25,standard,None,100,,,,,,,,f,23,208,fr,r,0,raw,2022-05-20_11h09.40.043,oddball,2022.1.2,59.92265186588498,
10,,,,,0,0,0,2,5,0,5,0,25,0,25,0,,,,,,,,,,,,,,,,,708.1791545001324,None,708.8294055000879,709.4293506001122,709.4128086001147,711.413559500128,None,1,0.6092705002520233,2.6100318001117557,increament,0.6,25,standard,None,100,,,,,,,,f,23,208,fr,r,0,raw,2022-05-20_11h09.40.043,oddball,2022.1.2,59.92265186588498,
10,,,,,0,0,0,2,5,0,5,0,26,0,26,0,,,,,,,,,,,,,,,,,711.4299981000368,None,711.9805753000546,712.581144399941,712.5644149999134,714.5649615000002,None,1,0.612065400229767,2.6125913001596928,increament,0.6,25,standard,None,100,,,,,,,,f,23,208,fr,r,0,raw,2022-05-20_11h09.40.043,oddball,2022.1.2,59.92265186588498,
10,,,,,0,0,0,2,5,0,5,0,27,0,27,0,,,,,,,,,,,,,,,,,714.581709299935,None,715.3319121000823,715.9320066000801,715.9155804999173,717.9162463999819,None,1,0.6097912001423538,2.6105375001206994,increament,0.6,25,standard,None,100,,,,,,,,f,23,208,fr,r,0,raw,2022-05-20_11h09.40.043,oddball,2022.1.2,59.92265186588498,
10,,,,,0,0,0,2,5,0,5,0,28,0,28,0,,,,,,,,,,,,,,,,,717.9325782000087,None,718.5832029001322,719.1833750999067,719.1670317999087,721.1674953999463,None,1,0.6117085001897067,2.612168700201437,increament,0.6,25,standard,None,100,,,,,,,,f,23,208,fr,r,0,raw,2022-05-20_11h09.40.043,oddball,2022.1.2,59.92265186588498,
10,,,,,0,0,0,2,5,0,5,0,29,0,29,0,,,,,,,,,,,,,,,,,721.1837265000213,None,721.8673821999691,722.4681635999586,722.4515212001279,724.452639099909,None,1,0.6137578999623656,2.61489209998399,increament,0.6,25,standard,None,100,,,,,,,,f,23,208,fr,r,0,raw,2022-05-20_11h09.40.043,oddball,2022.1.2,59.92265186588498,
10,,,,,0,0,0,2,6,0,6,0,0,0,0,0,,,,,,,,,,,,,,,730.1931970999576,None,737.0399388000369,None,737.6069249000866,738.207474600058,738.1905843999702,740.1915601999499,None,1,0.6121580998878926,2.6131524997763336,decreament,0.6,21,standard,None,100,,724.4719565000851,None,,,,,f,23,208,fr,r,0,raw,2022-05-20_11h09.40.043,oddball,2022.1.2,59.92265186588498,
10,,,,,0,0,0,2,6,0,6,0,1,0,1,0,,,,,,,,,,,,,,,,,740.2097829999402,None,740.9247584999539,741.5252666999586,741.5083294999786,743.5093978000805,None,1,0.6094827998895198,2.6106118001043797,decreament,0.6,21,standard,None,100,,,,,,,,f,23,208,fr,r,0,raw,2022-05-20_11h09.40.043,oddball,2022.1.2,59.92265186588498,
10,,,,,0,0,0,2,6,0,6,0,2,0,2,0,,,,,,,,,,,,,,,,,743.5255694000516,None,744.1258127000183,744.7260018000379,744.7096438000444,746.7103409001138,None,1,0.6135385001543909,2.614275800064206,decreament,0.6,21,standard,None,100,,,,,,,,f,23,208,fr,r,0,raw,2022-05-20_11h09.40.043,oddball,2022.1.2,59.92265186588498,
10,,,,,0,0,0,2,6,0,6,0,3,0,3,0,,,,,,,,,,,,,,,,,746.7269677999429,None,747.5772985001095,748.1775517000351,748.1607341000345,750.1615917999297,None,1,0.612241700058803,2.613102199975401,decreament,0.6,21,standard,None,100,,,,,,,,f,23,208,fr,r,0,raw,2022-05-20_11h09.40.043,oddball,2022.1.2,59.92265186588498,
10,,,,,0,0,0,2,6,0,6,0,4,0,4,0,,,,,,,,,,,,,,,,,750.1781814999413,None,750.8286844999529,751.4287882000208,751.412484700093,753.4130476000719,None,1,0.612250299891457,2.612769699888304,decreament,0.6,21,standard,None,100,,,,,,,,f,23,208,fr,r,0,raw,2022-05-20_11h09.40.043,oddball,2022.1.2,59.92265186588498,
10,,,,,0,0,0,2,6,0,6,0,5,0,5,0,,,,,,,,,,,,,,,,,753.4294877999928,None,754.1799327000044,754.4298739000224,754.3967355000786,756.3972002000082,j,1,0.24640519986860454,2.2467967998236418,decreament,0.24,22,oddball,j,40,0.5541854999028146,,,,,,,f,23,208,fr,r,0,raw,2022-05-20_11h09.40.043,oddball,2022.1.2,59.92265186588498,
10,,,,,0,0,0,2,6,0,6,0,6,0,6,0,,,,,,,,,,,,,,,,,756.4138883000705,None,757.1311846000608,757.7310025999323,757.7148649999872,759.71516110003,None,1,0.6118328000884503,2.612047699978575,decreament,0.6,21,standard,None,100,,,,,,,,f,23,208,fr,r,0,raw,2022-05-20_11h09.40.043,oddball,2022.1.2,59.92265186588498,
10,,,,,0,0,0,2,6,0,6,0,7,0,7,0,,,,,,,,,,,,,,,,,759.7318253000267,None,760.4492405999918,761.0489392001182,761.032514099963,763.0333219000604,None,1,0.6114128001499921,2.612241900060326,decreament,0.6,21,standard,None,100,,,,,,,,f,23,208,fr,r,0,raw,2022-05-20_11h09.40.043,oddball,2022.1.2,59.92265186588498,
10,,,,,0,0,0,2,6,0,6,0,8,0,8,0,,,,,,,,,,,,,,,,,763.0499354000203,None,763.8003438999876,764.4003333,764.3837258000858,766.3842740999535,None,1,0.6096678001340479,2.6101860001217574,decreament,0.6,21,standard,None,100,,,,,,,,f,23,208,fr,r,0,raw,2022-05-20_11h09.40.043,oddball,2022.1.2,59.92265186588498,
10,,,,,0,0,0,2,6,0,6,0,9,0,9,0,,,,,,,,,,,,,,,,,766.4012358000036,None,767.118422199972,767.7183483999688,767.7014878001064,769.7022293000482,None,1,0.6122886002995074,2.6130320001393557,decreament,0.6,21,standard,None,100,,,,,,,,f,23,208,fr,r,0,raw,2022-05-20_11h09.40.043,oddball,2022.1.2,59.92265186588498,
10,,,,,0,0,0,2,6,0,6,0,10,0,10,0,,,,,,,,,,,,,,,,,769.7192055999767,None,770.4025982001331,771.003109500045,770.9863440999761,772.986854699906,None,1,0.6126904999837279,2.6131963999941945,decreament,0.6,21,standard,None,100,,,,,,,,f,23,208,fr,r,0,raw,2022-05-20_11h09.40.043,oddball,2022.1.2,59.92265186588498,
10,,,,,0,0,0,2,6,0,6,0,11,0,11,0,,,,,,,,,,,,,,,,,773.0036857000086,None,773.6372583000921,774.2372336999979,774.2207114000339,776.2220121999271,None,1,0.614274799823761,2.6156515998300165,decreament,0.6,21,standard,None,100,,,,,,,,f,23,208,fr,r,0,raw,2022-05-20_11h09.40.043,oddball,2022.1.2,59.92265186588498,
10,,,,,0,0,0,2,6,0,6,0,12,0,12,0,,,,,,,,,,,,,,,,,776.238068100065,None,776.838608100079,777.4388282001019,777.4221791001037,779.4226210999768,None,1,0.6096746998373419,2.6100590999703854,decreament,0.6,21,standard,None,100,,,,,,,,f,23,208,fr,r,0,raw,2022-05-20_11h09.40.043,oddball,2022.1.2,59.92265186588498,
10,,,,,0,0,0,2,6,0,6,0,13,0,13,0,,,,,,,,,,,,,,,,,779.4391824000049,None,780.1397897999268,780.6230659999419,780.606394100003,782.6073324000463,None,0,0.49505600007250905,2.4960493999533355,decreament,0.48,24,oddball,j,80,,,,,,,,f,23,208,fr,r,0,raw,2022-05-20_11h09.40.043,oddball,2022.1.2,59.92265186588498,
10,,,,,0,0,0,2,6,0,6,0,14,0,14,0,,,,,,,,,,,,,,,,,782.6244477001019,None,783.2074849000201,783.8076847000048,783.7911744001321,785.7917601000518,None,1,0.6116286001633853,2.6121954002883285,decreament,0.6,21,standard,None,100,,,,,,,,f,23,208,fr,r,0,raw,2022-05-20_11h09.40.043,oddball,2022.1.2,59.92265186588498,
10,,,,,0,0,0,2,6,0,6,0,15,0,15,0,,,,,,,,,,,,,,,,,785.8084816001356,None,786.5257324001286,787.1257408999372,787.108958600089,789.1097093999851,None,1,0.6079488000832498,2.6087114000692964,decreament,0.6,21,standard,None,100,,,,,,,,f,23,208,fr,r,0,raw,2022-05-20_11h09.40.043,oddball,2022.1.2,59.92265186588498,
10,,,,,0,0,0,2,6,0,6,0,16,0,16,0,,,,,,,,,,,,,,,,,789.1264007999562,None,789.8100221001077,790.4098698000889,790.3931947001256,792.3943872000091,None,1,0.6130343999247998,2.6143070000689477,decreament,0.6,21,standard,None,100,,,,,,,,f,23,208,fr,r,0,raw,2022-05-20_11h09.40.043,oddball,2022.1.2,59.92265186588498,
10,,,,,0,0,0,2,6,0,6,0,17,0,17,0,,,,,,,,,,,,,,,,,792.4111140000168,None,793.0283047000412,793.6281308000907,793.6113120999653,795.6123182000592,None,1,0.609210800146684,2.61026360001415,decreament,0.6,21,standard,None,100,,,,,,,,f,23,208,fr,r,0,raw,2022-05-20_11h09.40.043,oddball,2022.1.2,59.92265186588498,
10,,,,,0,0,0,2,6,0,6,0,18,0,18,0,,,,,,,,,,,,,,,,,795.6292797999922,None,796.1957702999935,796.7961738000158,796.779604600044,798.7801668001339,None,1,0.6116338002029806,2.6121831003110856,decreament,0.6,21,standard,None,100,,,,,,,,f,23,208,fr,r,0,raw,2022-05-20_11h09.40.043,oddball,2022.1.2,59.92265186588498,
10,,,,,0,0,0,2,6,0,6,0,19,0,19,0,,,,,,,,,,,,,,,,,798.7968765001278,None,799.3636247001123,799.9642552000005,799.9469502000138,801.9479145000223,None,1,0.6126237001735717,2.6136249999981374,decreament,0.6,21,standard,None,100,,,,,,,,f,23,208,fr,r,0,raw,2022-05-20_11h09.40.043,oddball,2022.1.2,59.92265186588498,
10,,,,,0,0,0,2,6,0,6,0,20,0,20,0,,,,,,,,,,,,,,,,,801.9645203999244,None,802.6483327001333,803.248259200016,803.2315754999872,805.2323904000223,None,1,0.6120686002541333,2.6128618002403527,decreament,0.6,21,standard,None,100,,,,,,,,f,23,208,fr,r,0,raw,2022-05-20_11h09.40.043,oddball,2022.1.2,59.92265186588498,
10,,,,,0,0,0,2,6,0,6,0,21,0,21,0,,,,,,,,,,,,,,,,,805.2489430001006,None,805.8993802999612,806.4998051999137,806.4831799999811,808.4838217999786,None,1,0.6138531998731196,2.614462099969387,decreament,0.6,21,standard,None,100,,,,,,,,f,23,208,fr,r,0,raw,2022-05-20_11h09.40.043,oddball,2022.1.2,59.92265186588498,
10,,,,,0,0,0,2,6,0,6,0,22,0,22,0,,,,,,,,,,,,,,,,,808.5005781000946,None,809.1172396999318,809.7173566001002,809.7010039000306,811.70204870007,None,1,0.6133238999173045,2.6144916999619454,decreament,0.6,21,standard,None,100,,,,,,,,f,23,208,fr,r,0,raw,2022-05-20_11h09.40.043,oddball,2022.1.2,59.92265186588498,
10,,,,,0,0,0,2,6,0,6,0,23,0,23,0,,,,,,,,,,,,,,,,,811.7200146000832,None,812.435696200002,813.0357335000299,813.0188995001372,815.0197741999291,None,1,0.609548200154677,2.610459100222215,decreament,0.6,21,standard,None,100,,,,,,,,f,23,208,fr,r,0,raw,2022-05-20_11h09.40.043,oddball,2022.1.2,59.92265186588498,
10,,,,,0,0,0,2,6,0,6,0,24,0,24,0,,,,,,,,,,,,,,,,,815.0364663999062,None,815.5529515999369,815.919859400019,815.8865444001276,817.8872263999656,j,1,0.36388149997219443,2.3645456999074668,decreament,0.36,23,oddball,j,60,0.4154781997203827,,,,,,,f,23,208,fr,r,0,raw,2022-05-20_11h09.40.043,oddball,2022.1.2,59.92265186588498,
10,,,,,0,0,0,2,6,0,6,0,25,0,25,0,,,,,,,,,,,,,,,,,817.9038734999485,None,818.5711316999514,819.1710177999921,819.1547143999487,821.1555864999536,None,1,0.6097769001498818,2.6106804001610726,decreament,0.6,21,standard,None,100,,,,,,,,f,23,208,fr,r,0,raw,2022-05-20_11h09.40.043,oddball,2022.1.2,59.92265186588498,
10,,,,,0,0,0,2,6,0,6,0,26,0,26,0,,,,,,,,,,,,,,,,,821.1718385000713,None,821.8389729000628,822.4389615999535,822.4222955000587,824.4233808999415,None,1,0.6087950000073761,2.6099613001570106,decreament,0.6,21,standard,None,100,,,,,,,,f,23,208,fr,r,0,raw,2022-05-20_11h09.40.043,oddball,2022.1.2,59.92265186588498,
10,,,,,0,0,0,2,6,0,6,0,27,0,27,0,,,,,,,,,,,,,,,,,824.4396848001052,None,824.9732715999708,825.5736867999658,825.5570446001366,827.5578193999827,j,0,0.6139577000867575,2.6146530001424253,decreament,0.6,21,standard,None,100,0.8882649997249246,,,,,,,f,23,208,fr,r,0,raw,2022-05-20_11h09.40.043,oddball,2022.1.2,59.92265186588498,
10,,,,,0,0,0,2,6,0,6,0,28,0,28,0,,,,,,,,,,,,,,,,,827.5742101001088,None,828.3578540000599,828.9584929000121,828.9415430000518,830.9425729999784,None,1,0.6133948999922723,2.6145600001327693,decreament,0.6,21,standard,None,100,,,,,,,,f,23,208,fr,r,0,raw,2022-05-20_11h09.40.043,oddball,2022.1.2,59.92265186588498,
10,,,,,0,0,0,2,6,0,6,0,29,0,29,0,,,,,,,,,,,,,,,,,830.9590106001124,None,831.7096506999806,832.3092769999057,832.2927240999416,834.2935240999795,j,0,0.6093173997942358,2.610160999931395,decreament,0.6,21,standard,None,100,1.3132832997944206,,,,,,,f,23,208,fr,r,0,raw,2022-05-20_11h09.40.043,oddball,2022.1.2,59.92265186588498,
10,,,,,0,0,0,2,7,0,7,0,0,0,0,0,,,,,,,,,,,,,,,837.001456100028,None,841.1959126999136,None,841.8629193999805,842.46316569997,842.4465626000892,844.4474277000409,None,1,0.6124150999821723,2.6133435000665486,increament,0.6,25,standard,None,100,,834.3106680000201,None,,,,,f,23,208,fr,r,0,raw,2022-05-20_11h09.40.043,oddball,2022.1.2,59.92265186588498,
10,,,,,0,0,0,2,7,0,7,0,1,0,1,0,,,,,,,,,,,,,,,,,844.4643363000359,None,845.1811299999245,845.781211100053,845.7643603999168,847.765239499975,None,1,0.6093403999693692,2.610223799943924,increament,0.6,25,standard,None,100,,,,,,,,f,23,208,fr,r,0,raw,2022-05-20_11h09.40.043,oddball,2022.1.2,59.92265186588498,
10,,,,,0,0,0,2,7,0,7,0,2,0,2,0,,,,,,,,,,,,,,,,,847.7818571000826,None,848.2988887000829,848.8988680001348,848.8822926001158,850.8835291999858,None,1,0.6123492999467999,2.6137318001128733,increament,0.6,25,standard,None,100,,,,,,,,f,23,208,fr,r,0,raw,2022-05-20_11h09.40.043,oddball,2022.1.2,59.92265186588498,
10,,,,,0,0,0,2,7,0,7,0,3,0,3,0,,,,,,,,,,,,,,,,,850.9013235000893,None,851.7000182999764,852.3001198999118,852.2838487999979,854.2845213001128,None,1,0.6139538998249918,2.6146739998366684,increament,0.6,25,standard,None,100,,,,,,,,f,23,208,fr,r,0,raw,2022-05-20_11h09.40.043,oddball,2022.1.2,59.92265186588498,
10,,,,,0,0,0,2,7,0,7,0,4,0,4,0,,,,,,,,,,,,,,,,,854.3012922001071,None,854.9847424000036,855.5849639999215,855.5681223999709,857.5689588999376,None,1,0.6120760999619961,2.6129574000369757,increament,0.6,25,standard,None,100,,,,,,,,f,23,208,fr,r,0,raw,2022-05-20_11h09.40.043,oddball,2022.1.2,59.92265186588498,
10,,,,,0,0,0,2,7,0,7,0,5,0,5,0,,,,,,,,,,,,,,,,,857.5860308001284,None,858.2361306000967,859.0861474000849,859.0527731999755,861.0534063000232,j,1,0.8447241000831127,2.8453478002920747,increament,0.84,27,oddball,j,140,0.944882599869743,,,,,,,f,23,208,fr,r,0,raw,2022-05-20_11h09.40.043,oddball,2022.1.2,59.92265186588498,
10,,,,,0,0,0,2,7,0,7,0,6,0,6,0,,,,,,,,,,,,,,,,,861.0701673000585,None,861.8041878999211,862.4045929999556,862.3875011000782,864.3880298999138,None,1,0.6114301001653075,2.6119430002290756,increament,0.6,25,standard,None,100,,,,,,,,f,23,208,fr,r,0,raw,2022-05-20_11h09.40.043,oddball,2022.1.2,59.92265186588498,
10,,,,,0,0,0,2,7,0,7,0,7,0,7,0,,,,,,,,,,,,,,,,,864.4049416999333,None,865.0551549000666,865.6551075999159,865.6386643000878,867.6399183000904,None,1,0.6106294000055641,2.6119683000724763,increament,0.6,25,standard,None,100,,,,,,,,f,23,208,fr,r,0,raw,2022-05-20_11h09.40.043,oddball,2022.1.2,59.92265186588498,
10,,,,,0,0,0,2,7,0,7,0,8,0,8,0,,,,,,,,,,,,,,,,,867.6562900999561,None,868.2067879999522,868.8065508001018,868.7898947999347,870.7907485999167,None,1,0.6098400000482798,2.610710599925369,increament,0.6,25,standard,None,100,,,,,,,,f,23,208,fr,r,0,raw,2022-05-20_11h09.40.043,oddball,2022.1.2,59.92265186588498,
10,,,,,0,0,0,2,7,0,7,0,9,0,9,0,,,,,,,,,,,,,,,,,870.8073664999101,None,871.3911612001248,872.3577087000012,872.3246486000717,874.3253373999614,j,1,0.9609842000063509,2.9617006999906152,increament,0.96,28,oddball,j,160,0.8575338998343796,,,,,,,f,23,208,fr,r,0,raw,2022-05-20_11h09.40.043,oddball,2022.1.2,59.92265186588498,
10,,,,,0,0,0,2,7,0,7,0,10,0,10,0,,,,,,,,,,,,,,,,,874.3419149999972,None,874.9424817999825,875.5426292999182,875.5258486999664,877.5266837999225,None,1,0.6118493999820203,2.612690200097859,increament,0.6,25,standard,None,100,,,,,,,,f,23,208,fr,r,0,raw,2022-05-20_11h09.40.043,oddball,2022.1.2,59.92265186588498,
10,,,,,0,0,0,2,7,0,7,0,11,0,11,0,,,,,,,,,,,,,,,,,877.5431427001022,None,878.2101585001219,878.8104898999445,878.7939526000991,880.7946099999826,None,1,0.6136420997790992,2.6142512997612357,increament,0.6,25,standard,None,100,,,,,,,,f,23,208,fr,r,0,raw,2022-05-20_11h09.40.043,oddball,2022.1.2,59.92265186588498,
10,,,,,0,0,0,2,7,0,7,0,12,0,12,0,,,,,,,,,,,,,,,,,880.8112774000037,None,881.4445668999106,882.0448861001059,882.0287154999096,884.0287220000755,None,1,0.6139191000256687,2.613829700043425,increament,0.6,25,standard,None,100,,,,,,,,f,23,208,fr,r,0,raw,2022-05-20_11h09.40.043,oddball,2022.1.2,59.92265186588498,
10,,,,,0,0,0,2,7,0,7,0,13,0,13,0,,,,,,,,,,,,,,,,,884.0460995999165,None,884.6625558000524,885.2627002000809,885.2461435000878,887.2466841000132,None,1,0.6124501000158489,2.612957200035453,increament,0.6,25,standard,None,100,,,,,,,,f,23,208,fr,r,0,raw,2022-05-20_11h09.40.043,oddball,2022.1.2,59.92265186588498,
10,,,,,0,0,0,2,7,0,7,0,14,0,14,0,,,,,,,,,,,,,,,,,887.2634435999207,None,887.8969270999078,888.4974130000919,888.48094639997,890.4813274000771,None,1,0.6136442001443356,2.614007900003344,increament,0.6,25,standard,None,100,,,,,,,,f,23,208,fr,r,0,raw,2022-05-20_11h09.40.043,oddball,2022.1.2,59.92265186588498,
10,,,,,0,0,0,2,7,0,7,0,15,0,15,0,,,,,,,,,,,,,,,,,890.4979952001013,None,891.1483519000467,891.7483956001233,891.7322660000063,893.7326766999904,None,1,0.612207300029695,2.6125847999937832,increament,0.6,25,standard,None,100,,,,,,,,f,23,208,fr,r,0,raw,2022-05-20_11h09.40.043,oddball,2022.1.2,59.92265186588498,
10,,,,,0,0,0,2,7,0,7,0,16,0,16,0,,,,,,,,,,,,,,,,,893.749412199948,None,894.5498234000988,895.1497154999524,895.133097199956,897.1340743999463,None,1,0.609506200067699,2.6105208001099527,increament,0.6,25,standard,None,100,,,,,,,,f,23,208,fr,r,0,raw,2022-05-20_11h09.40.043,oddball,2022.1.2,59.92265186588498,
10,,,,,0,0,0,2,7,0,7,0,17,0,17,0,,,,,,,,,,,,,,,,,897.1506463000551,None,897.8681157999672,898.4677945999429,898.4511194999795,900.4516982000787,None,1,0.6097746000159532,2.6103018999565393,increament,0.6,25,standard,None,100,,,,,,,,f,23,208,fr,r,0,raw,2022-05-20_11h09.40.043,oddball,2022.1.2,59.92265186588498,
10,,,,,0,0,0,2,7,0,7,0,18,0,18,0,,,,,,,,,,,,,,,,,900.4686815999448,None,901.0855815000832,901.6853787999135,901.668768200092,903.6697063001338,None,1,0.6092815999872983,2.6102887999732047,increament,0.6,25,standard,None,100,,,,,,,,f,23,208,fr,r,0,raw,2022-05-20_11h09.40.043,oddball,2022.1.2,59.92265186588498,
10,,,,,0,0,0,2,7,0,7,0,19,0,19,0,,,,,,,,,,,,,,,,,903.6866927000228,None,904.3199998000637,904.920428100042,904.903495100094,906.9042807999067,None,1,0.612076599849388,2.6128465000074357,increament,0.6,25,standard,None,100,,,,,,,,f,23,208,fr,r,0,raw,2022-05-20_11h09.40.043,oddball,2022.1.2,59.92265186588498,
10,,,,,0,0,0,2,7,0,7,0,20,0,20,0,,,,,,,,,,,,,,,,,906.9210037000012,None,907.5715091000311,908.1716346999165,908.15471719997,910.1555137000978,None,1,0.6079454000573605,2.6087209000252187,increament,0.6,25,standard,None,100,,,,,,,,f,23,208,fr,r,0,raw,2022-05-20_11h09.40.043,oddball,2022.1.2,59.92265186588498,
10,,,,,0,0,0,2,7,0,7,0,21,0,21,0,,,,,,,,,,,,,,,,,910.1720066999551,None,910.7722253999673,911.372597400099,911.3560389000922,913.3566932000685,None,1,0.6139344999101013,2.614581200061366,increament,0.6,25,standard,None,100,,,,,,,,f,23,208,fr,r,0,raw,2022-05-20_11h09.40.043,oddball,2022.1.2,59.92265186588498,
10,,,,,0,0,0,2,7,0,7,0,22,0,22,0,,,,,,,,,,,,,,,,,913.373448099941,None,914.1238339999691,914.7241050000302,914.707647100091,916.7079511999618,None,1,0.6098543999250978,2.610036199912429,increament,0.6,25,standard,None,100,,,,,,,,f,23,208,fr,r,0,raw,2022-05-20_11h09.40.043,oddball,2022.1.2,59.92265186588498,
10,,,,,0,0,0,2,7,0,7,0,23,0,23,0,,,,,,,,,,,,,,,,,916.7249442001339,None,917.3916353001259,917.9918458000757,917.9754999999423,919.9762738000136,None,1,0.6121390000917017,2.6129564000293612,increament,0.6,25,standard,None,100,,,,,,,,f,23,208,fr,r,0,raw,2022-05-20_11h09.40.043,oddball,2022.1.2,59.92265186588498,
10,,,,,0,0,0,2,7,0,7,0,24,0,24,0,,,,,,,,,,,,,,,,,919.9926843000576,None,920.5762412999757,921.1764444999862,921.159972100053,923.1605161000043,None,1,0.6105426999274641,2.611126499949023,increament,0.6,25,standard,None,100,,,,,,,,f,23,208,fr,r,0,raw,2022-05-20_11h09.40.043,oddball,2022.1.2,59.92265186588498,
10,,,,,0,0,0,2,7,0,7,0,25,0,25,0,,,,,,,,,,,,,,,,,923.1776205000933,None,923.9438857000787,924.6776636999566,924.6441588001326,926.6453666000161,None,0,0.7247405000962317,2.7260237999726087,increament,0.72,26,oddball,j,120,,,,,,,,f,23,208,fr,r,0,raw,2022-05-20_11h09.40.043,oddball,2022.1.2,59.92265186588498,
10,,,,,0,0,0,2,7,0,7,0,26,0,26,0,,,,,,,,,,,,,,,,,926.6618616001215,None,927.2619646999519,927.8623289000243,927.8455292000435,929.8465869999491,None,1,0.6123144999146461,2.6134647000581026,increament,0.6,25,standard,None,100,,,,,,,,f,23,208,fr,r,0,raw,2022-05-20_11h09.40.043,oddball,2022.1.2,59.92265186588498,
10,,,,,0,0,0,2,7,0,7,0,27,0,27,0,,,,,,,,,,,,,,,,,929.8630351000465,None,930.5467387000099,931.1470266999677,931.1300880000927,933.1306012999266,None,1,0.6102531999349594,2.610750599997118,increament,0.6,25,standard,None,100,,,,,,,,f,23,208,fr,r,0,raw,2022-05-20_11h09.40.043,oddball,2022.1.2,59.92265186588498,
10,,,,,0,0,0,2,7,0,7,0,28,0,28,0,,,,,,,,,,,,,,,,,933.1474079000764,None,933.7477625000756,934.3478914001025,934.3314473000355,936.3322189000901,None,1,0.6124589999672025,2.613273600116372,increament,0.6,25,standard,None,100,,,,,,,,f,23,208,fr,r,0,raw,2022-05-20_11h09.40.043,oddball,2022.1.2,59.92265186588498,
10,,,,,0,0,0,2,7,0,7,0,29,0,29,0,,,,,,,,,,,,,,,,,936.3491613001097,None,937.065797300078,937.6659713999834,937.6491161999293,939.6505468999967,None,1,0.6123064002022147,2.6138428000267595,increament,0.6,25,standard,None,100,,,,,,,,f,23,208,fr,r,0,raw,2022-05-20_11h09.40.043,oddball,2022.1.2,59.92265186588498,
10,,,,,0,0,0,2,8,0,8,0,0,0,0,0,,,,,,,,,,,,,,,950.9075013999827,None,954.4554113000631,None,955.056086299941,955.6561044999398,955.6395278000273,957.6408482999541,None,1,0.6120349001139402,2.613439900102094,decreament,0.6,21,standard,None,100,,939.6694169000257,None,,,,,f,23,208,fr,r,0,raw,2022-05-20_11h09.40.043,oddball,2022.1.2,59.92265186588498,
10,,,,,0,0,0,2,8,0,8,0,1,0,1,0,,,,,,,,,,,,,,,,,957.6566477001179,None,958.2235695000272,958.8242017999291,958.8073931001127,960.8079411000945,None,1,0.6125739000272006,2.613083800068125,decreament,0.6,21,standard,None,100,,,,,,,,f,23,208,fr,r,0,raw,2022-05-20_11h09.40.043,oddball,2022.1.2,59.92265186588498,
10,,,,,0,0,0,2,8,0,8,0,2,0,2,0,,,,,,,,,,,,,,,,,960.8247277999762,None,961.475211400073,962.0749838000629,962.0584460999817,964.0591790999752,None,1,0.6119701000861824,2.612704000202939,decreament,0.6,21,standard,None,100,,,,,,,,f,23,208,fr,r,0,raw,2022-05-20_11h09.40.043,oddball,2022.1.2,59.92265186588498,
10,,,,,0,0,0,2,8,0,8,0,3,0,3,0,,,,,,,,,,,,,,,,,964.0763369000051,None,964.7261459000874,965.3263356001116,965.3099777000025,967.3103271999862,None,1,0.6130307998973876,2.6133522000163794,decreament,0.6,21,standard,None,100,,,,,,,,f,23,208,fr,r,0,raw,2022-05-20_11h09.40.043,oddball,2022.1.2,59.92265186588498,
10,,,,,0,0,0,2,8,0,8,0,4,0,4,0,,,,,,,,,,,,,,,,,967.3270537001081,None,967.9443065999076,968.5444360000547,968.5276250001043,970.5284625000786,None,1,0.6082687999587506,2.6091182997915894,decreament,0.6,21,standard,None,100,,,,,,,,f,23,208,fr,r,0,raw,2022-05-20_11h09.40.043,oddball,2022.1.2,59.92265186588498,
10,,,,,0,0,0,2,8,0,8,0,5,0,5,0,,,,,,,,,,,,,,,,,970.5454351999797,None,971.2291117000859,971.7123575001024,971.6957455000374,973.6961511999834,None,0,0.4950113003142178,2.4953936003148556,decreament,0.48,24,oddball,j,80,,,,,,,,f,23,208,fr,r,0,raw,2022-05-20_11h09.40.043,oddball,2022.1.2,59.92265186588498,
10,,,,,0,0,0,2,8,0,8,0,6,0,6,0,,,,,,,,,,,,,,,,,973.7128981999122,None,974.2466794999782,974.846420600079,974.8300169999711,976.8314183999319,j,0,0.6087354000192136,2.610191799933091,decreament,0.6,21,standard,None,100,1.247790199937299,,,,,,,f,23,208,fr,r,0,raw,2022-05-20_11h09.40.043,oddball,2022.1.2,59.92265186588498,
10,,,,,0,0,0,2,8,0,8,0,7,0,7,0,,,,,,,,,,,,,,,,,976.8485952999908,None,977.5477877999656,978.1477288000751,978.1314934999682,980.1319637999404,None,1,0.6126360001508147,2.613140100147575,decreament,0.6,21,standard,None,100,,,,,,,,f,23,208,fr,r,0,raw,2022-05-20_11h09.40.043,oddball,2022.1.2,59.92265186588498,
10,,,,,0,0,0,2,8,0,8,0,8,0,8,0,,,,,,,,,,,,,,,,,980.1489707999863,None,980.9824991999194,981.5826121000573,981.5658259000629,983.5665921000764,j,0,0.609715900151059,2.6104807001538575,decreament,0.6,21,standard,None,100,0.6161004998721182,,,,,,,f,23,208,fr,r,0,raw,2022-05-20_11h09.40.043,oddball,2022.1.2,59.92265186588498,
10,,,,,0,0,0,2,8,0,8,0,9,0,9,0,,,,,,,,,,,,,,,,,983.5832794001326,None,984.2501882000361,984.5005471000914,984.4675080000889,986.4678553000558,j,1,0.2454884999897331,2.2458111001178622,decreament,0.24,22,oddball,j,40,0.6007765997201204,,,,,,,f,23,208,fr,r,0,raw,2022-05-20_11h09.40.043,oddball,2022.1.2,59.92265186588498,
10,,,,,0,0,0,2,8,0,8,0,10,0,10,0,,,,,,,,,,,,,,,,,986.4844794000965,None,987.1512613999657,987.7515076999553,987.7351116000209,989.7354848000687,None,1,0.6084319001529366,2.608786300290376,decreament,0.6,21,standard,None,100,,,,,,,,f,23,208,fr,r,0,raw,2022-05-20_11h09.40.043,oddball,2022.1.2,59.92265186588498,
10,,,,,0,0,0,2,8,0,8,0,11,0,11,0,,,,,,,,,,,,,,,,,989.7525688000023,None,990.3360498999245,990.9360895000864,990.9197559000459,992.9203031000216,None,1,0.6093668001703918,2.609969099983573,decreament,0.6,21,standard,None,100,,,,,,,,f,23,208,fr,r,0,raw,2022-05-20_11h09.40.043,oddball,2022.1.2,59.92265186588498,
10,,,,,0,0,0,2,8,0,8,0,12,0,12,0,,,,,,,,,,,,,,,,,992.9370756999124,None,993.6703377000522,994.2707269999664,994.2540909000672,996.2546417000704,None,1,0.6138247000053525,2.614382700063288,decreament,0.6,21,standard,None,100,,,,,,,,f,23,208,fr,r,0,raw,2022-05-20_11h09.40.043,oddball,2022.1.2,59.92265186588498,
10,,,,,0,0,0,2,8,0,8,0,13,0,13,0,,,,,,,,,,,,,,,,,996.2717627999373,None,996.9882088000886,997.5887122000568,997.5723451999947,999.5731941999402,None,1,0.6135082999244332,2.6144717999268323,decreament,0.6,21,standard,None,100,,,,,,,,f,23,208,fr,r,0,raw,2022-05-20_11h09.40.043,oddball,2022.1.2,59.92265186588498,
10,,,,,0,0,0,2,8,0,8,0,14,0,14,0,,,,,,,,,,,,,,,,,999.5893963000271,None,1000.1396284000948,1000.7400800001342,1000.7232695000712,1002.7242751000449,None,1,0.613952900050208,2.614996800199151,decreament,0.6,21,standard,None,100,,,,,,,,f,23,208,fr,r,0,raw,2022-05-20_11h09.40.043,oddball,2022.1.2,59.92265186588498,
10,,,,,0,0,0,2,8,0,8,0,15,0,15,0,,,,,,,,,,,,,,,,,1002.7404583999887,None,1003.3072897000238,1003.907814099919,1003.8912643999793,1005.892116199946,None,1,0.6141345002688468,2.6149712002370507,decreament,0.6,21,standard,None,100,,,,,,,,f,23,208,fr,r,0,raw,2022-05-20_11h09.40.043,oddball,2022.1.2,59.92265186588498,
10,,,,,0,0,0,2,8,0,8,0,16,0,16,0,,,,,,,,,,,,,,,,,1005.9089262001216,None,1006.5752620999701,1006.94228009996,1006.9089566001203,1008.9094493999146,j,1,0.35954670002683997,2.3600369999185205,decreament,0.36,23,oddball,j,60,0.8485534000210464,,,,,,,f,23,208,fr,r,0,raw,2022-05-20_11h09.40.043,oddball,2022.1.2,59.92265186588498,
10,,,,,0,0,0,2,8,0,8,0,17,0,17,0,,,,,,,,,,,,,,,,,1008.9264529999346,None,1009.6098984999117,1010.2102574999444,1010.19327170006,1012.1948891000357,j,0,0.6115222997032106,2.613260699668899,decreament,0.6,21,standard,None,100,1.4364370999392122,,,,,,,f,23,208,fr,r,0,raw,2022-05-20_11h09.40.043,oddball,2022.1.2,59.92265186588498,
10,,,,,0,0,0,2,8,0,8,0,18,0,18,0,,,,,,,,,,,,,,,,,1012.2107162999455,None,1012.8112862999551,1013.411468599923,1013.3948908001184,1015.3954610000364,None,1,0.6106750001199543,2.6112181001808494,decreament,0.6,21,standard,None,100,,,,,,,,f,23,208,fr,r,0,raw,2022-05-20_11h09.40.043,oddball,2022.1.2,59.92265186588498,
10,,,,,0,0,0,2,8,0,8,0,19,0,19,0,,,,,,,,,,,,,,,,,1015.4122701999731,None,1015.9956195000559,1016.5964011000469,1016.579512400087,1018.5800936999731,None,1,0.6134782999288291,2.6139582998584956,decreament,0.6,21,standard,None,100,,,,,,,,f,23,208,fr,r,0,raw,2022-05-20_11h09.40.043,oddball,2022.1.2,59.92265186588498,
10,,,,,0,0,0,2,8,0,8,0,20,0,20,0,,,,,,,,,,,,,,,,,1018.5969006000087,None,1019.1638408999424,1019.7639188000467,1019.7473563000094,1021.7476327000186,None,1,0.610520499991253,2.6107068001292646,decreament,0.6,21,standard,None,100,,,,,,,,f,23,208,fr,r,0,raw,2022-05-20_11h09.40.043,oddball,2022.1.2,59.92265186588498,
10,,,,,0,0,0,2,8,0,8,0,21,0,21,0,,,,,,,,,,,,,,,,,1021.7643214999698,None,1022.431413100101,1023.0317754999269,1023.0149884000421,1025.0157326001208,None,1,0.6114102001301944,2.612172400113195,decreament,0.6,21,standard,None,100,,,,,,,,f,23,208,fr,r,0,raw,2022-05-20_11h09.40.043,oddball,2022.1.2,59.92265186588498,
10,,,,,0,0,0,2,8,0,8,0,22,0,22,0,,,,,,,,,,,,,,,,,1025.0323324999772,None,1025.6829735999927,1026.2828530999832,1026.266104399925,1028.2669518999755,None,1,0.6113734000828117,2.6122646001167595,decreament,0.6,21,standard,None,100,,,,,,,,f,23,208,fr,r,0,raw,2022-05-20_11h09.40.043,oddball,2022.1.2,59.92265186588498,
10,,,,,0,0,0,2,8,0,8,0,23,0,23,0,,,,,,,,,,,,,,,,,1028.2835913000163,None,1028.8837832000572,1029.4843224000651,1029.4674500001129,1031.4678090999369,j,0,0.6090838999953121,2.609378700144589,decreament,0.6,21,standard,None,100,0.7701041998807341,,,,,,,f,23,208,fr,r,0,raw,2022-05-20_11h09.40.043,oddball,2022.1.2,59.92265186588498,
10,,,,,0,0,0,2,8,0,8,0,24,0,24,0,,,,,,,,,,,,,,,,,1031.4844905000646,None,1032.2850760999136,1032.885441099992,1032.8688815000933,1034.8695600999054,j,0,0.6125496998429298,2.613228299887851,decreament,0.6,21,standard,None,100,1.6321535997558385,,,,,,,f,23,208,fr,r,0,raw,2022-05-20_11h09.40.043,oddball,2022.1.2,59.92265186588498,
10,,,,,0,0,0,2,8,0,8,0,25,0,25,0,,,,,,,,,,,,,,,,,1034.8863343000412,None,1035.4363353999797,1036.0363185000606,1036.019608200062,1038.0205222999211,None,1,0.6131961999926716,2.6141520000528544,decreament,0.6,21,standard,None,100,,,,,,,,f,23,208,fr,r,0,raw,2022-05-20_11h09.40.043,oddball,2022.1.2,59.92265186588498,
10,,,,,0,0,0,2,8,0,8,0,26,0,26,0,,,,,,,,,,,,,,,,,1038.03760219994,None,1038.7043109999504,1039.3044680000748,1039.2876848001033,1041.2890699999407,None,1,0.6125215000938624,2.613989000208676,decreament,0.6,21,standard,None,100,,,,,,,,f,23,208,fr,r,0,raw,2022-05-20_11h09.40.043,oddball,2022.1.2,59.92265186588498,
10,,,,,0,0,0,2,8,0,8,0,27,0,27,0,,,,,,,,,,,,,,,,,1041.3063457999378,None,1041.8887082000729,1042.4889843999408,1042.4728798000142,1044.4731505000964,None,1,0.6127470000647008,2.6129540998954326,decreament,0.6,21,standard,None,100,,,,,,,,f,23,208,fr,r,0,raw,2022-05-20_11h09.40.043,oddball,2022.1.2,59.92265186588498,
10,,,,,0,0,0,2,8,0,8,0,28,0,28,0,,,,,,,,,,,,,,,,,1044.4898417000659,None,1045.1903602001257,1045.7899992000312,1045.7735315000173,1047.7742904000916,None,1,0.611051700077951,2.6118248000275344,decreament,0.6,21,standard,None,100,,,,,,,,f,23,208,fr,r,0,raw,2022-05-20_11h09.40.043,oddball,2022.1.2,59.92265186588498,
10,,,,,0,0,0,2,8,0,8,0,29,0,29,0,,,,,,,,,,,,,,,,,1047.7911696000956,None,1048.374493899988,1048.9745986000635,1048.9581192999613,1050.9589003000874,None,1,0.6127918001729995,2.6135997001547366,decreament,0.6,21,standard,None,100,,,,,,,,f,23,208,fr,r,0,raw,2022-05-20_11h09.40.043,oddball,2022.1.2,59.92265186588498,
10,,,,,0,0,0,2,9,0,9,0,0,0,0,0,,,,,,,,,,,,,,,1063.5028880001046,None,1065.8313233000226,None,1066.5484505000059,1067.1485455001239,1067.1319276001304,1069.1321843999904,None,1,0.6121746001299471,2.6123883000109345,increament,0.6,25,standard,None,100,,1050.9758321999107,None,,,,,f,23,208,fr,r,0,raw,2022-05-20_11h09.40.043,oddball,2022.1.2,59.92265186588498,
10,,,,,0,0,0,2,9,0,9,0,1,0,1,0,,,,,,,,,,,,,,,,,1069.149130600039,None,1069.8992878000718,1070.49935310008,1070.482852099929,1072.4836562001146,None,1,0.6128439998719841,2.613685099873692,increament,0.6,25,standard,None,100,,,,,,,,f,23,208,fr,r,0,raw,2022-05-20_11h09.40.043,oddball,2022.1.2,59.92265186588498,
10,,,,,0,0,0,2,9,0,9,0,2,0,2,0,,,,,,,,,,,,,,,,,1072.500793900108,None,1073.1508538001217,1073.7507156000938,1073.734614300076,1075.734812400071,None,1,0.6101827002130449,2.610323400236666,increament,0.6,25,standard,None,100,,,,,,,,f,23,208,fr,r,0,raw,2022-05-20_11h09.40.043,oddball,2022.1.2,59.92265186588498,
10,,,,,0,0,0,2,9,0,9,0,3,0,3,0,,,,,,,,,,,,,,,,,1075.7515217000619,None,1076.5354124000296,1077.1353794999886,1077.1186581999063,1079.1195348999463,None,1,0.6125293001532555,2.6133801001124084,increament,0.6,25,standard,None,100,,,,,,,,f,23,208,fr,r,0,raw,2022-05-20_11h09.40.043,oddball,2022.1.2,59.92265186588498,
10,,,,,0,0,0,2,9,0,9,0,4,0,4,0,,,,,,,,,,,,,,,,,1079.1362928999588,None,1079.7868854999542,1080.3867917000316,1080.3699443999212,1082.37081569992,None,1,0.6103238000068814,2.6112025000620633,increament,0.6,25,standard,None,100,,,,,,,,f,23,208,fr,r,0,raw,2022-05-20_11h09.40.043,oddball,2022.1.2,59.92265186588498,
10,,,,,0,0,0,2,9,0,9,0,5,0,5,0,,,,,,,,,,,,,,,,,1082.3875027000904,None,1082.9708984000608,1083.5713416000362,1083.5545987999067,1085.5555189999286,None,1,0.6125823000911623,2.61354050016962,increament,0.6,25,standard,None,100,,,,,,,,f,23,208,fr,r,0,raw,2022-05-20_11h09.40.043,oddball,2022.1.2,59.92265186588498,
10,,,,,0,0,0,2,9,0,9,0,6,0,6,0,,,,,,,,,,,,,,,,,1085.5725785999093,None,1086.2892398999538,1086.8889423999935,1086.8730132000055,1088.8736622000579,None,1,0.6098541999235749,2.610505700111389,increament,0.6,25,standard,None,100,,,,,,,,f,23,208,fr,r,0,raw,2022-05-20_11h09.40.043,oddball,2022.1.2,59.92265186588498,
10,,,,,0,0,0,2,9,0,9,0,7,0,7,0,,,,,,,,,,,,,,,,,1088.8897367001045,None,1089.5233372000512,1090.123508800054,1090.1072035999969,1092.1081411999185,None,1,0.6149159001652151,2.615950900129974,increament,0.6,25,standard,None,100,,,,,,,,f,23,208,fr,r,0,raw,2022-05-20_11h09.40.043,oddball,2022.1.2,59.92265186588498,
10,,,,,0,0,0,2,9,0,9,0,8,0,8,0,,,,,,,,,,,,,,,,,1092.1260792000685,None,1092.6584264000412,1093.2582120001316,1093.2415116999764,1095.2421506999526,None,1,0.6077173002995551,2.6083093001507223,increament,0.6,25,standard,None,100,,,,,,,,f,23,208,fr,r,0,raw,2022-05-20_11h09.40.043,oddball,2022.1.2,59.92265186588498,
10,,,,,0,0,0,2,9,0,9,0,9,0,9,0,,,,,,,,,,,,,,,,,1095.2586966000963,None,1096.1422488999087,1097.1096580000594,1097.076774599962,1099.0772977999877,j,1,0.9653594999108464,2.9653393998742104,increament,0.96,28,oddball,j,160,0.4478897999506444,,,,,,,f,23,208,fr,r,0,raw,2022-05-20_11h09.40.043,oddball,2022.1.2,59.92265186588498,
10,,,,,0,0,0,2,9,0,9,0,10,0,10,0,,,,,,,,,,,,,,,,,1099.0936296000145,None,1099.6272227000445,1100.2279356000945,1100.2112438001204,1102.2117216000333,None,1,0.6127631000708789,2.6131778000853956,increament,0.6,25,standard,None,100,,,,,,,,f,23,208,fr,r,0,raw,2022-05-20_11h09.40.043,oddball,2022.1.2,59.92265186588498,
10,,,,,0,0,0,2,9,0,9,0,11,0,11,0,,,,,,,,,,,,,,,,,1102.2282684999518,None,1102.845250000013,1103.4454934999812,1103.4291475000791,1105.42968140007,None,1,0.6127399001270533,2.61319090006873,increament,0.6,25,standard,None,100,,,,,,,,f,23,208,fr,r,0,raw,2022-05-20_11h09.40.043,oddball,2022.1.2,59.92265186588498,
10,,,,,0,0,0,2,9,0,9,0,12,0,12,0,,,,,,,,,,,,,,,,,1105.4462303000037,None,1106.013596799923,1106.6131851000246,1106.596644999925,1108.5971753001213,None,1,0.6094449001830071,2.6100040001329035,increament,0.6,25,standard,None,100,,,,,,,,f,23,208,fr,r,0,raw,2022-05-20_11h09.40.043,oddball,2022.1.2,59.92265186588498,
10,,,,,0,0,0,2,9,0,9,0,13,0,13,0,,,,,,,,,,,,,,,,,1108.6140062001068,None,1109.2309610000812,1109.8314213999547,1109.8144437000155,1111.815647700103,None,1,0.6129422998055816,2.614198599709198,increament,0.6,25,standard,None,100,,,,,,,,f,23,208,fr,r,0,raw,2022-05-20_11h09.40.043,oddball,2022.1.2,59.92265186588498,
10,,,,,0,0,0,2,9,0,9,0,14,0,14,0,,,,,,,,,,,,,,,,,1111.8324712000322,None,1112.3990102999378,1112.998951900052,1112.9823908999097,1114.9830440001097,None,1,0.6123446002602577,2.6130164002534,increament,0.6,25,standard,None,100,,,,,,,,f,23,208,fr,r,0,raw,2022-05-20_11h09.40.043,oddball,2022.1.2,59.92265186588498,
10,,,,,0,0,0,2,9,0,9,0,15,0,15,0,,,,,,,,,,,,,,,,,1115.0001113000326,None,1115.549975400092,1116.1504903000314,1116.1337890001014,1118.134269000031,None,1,0.6099595001433045,2.610600700136274,increament,0.6,25,standard,None,100,,,,,,,,f,23,208,fr,r,0,raw,2022-05-20_11h09.40.043,oddball,2022.1.2,59.92265186588498,
10,,,,,0,0,0,2,9,0,9,0,16,0,16,0,,,,,,,,,,,,,,,,,1118.1511166999117,None,1118.8511862999294,1119.451581200119,1119.4348631000612,1121.4355254999828,None,1,0.6122416998259723,2.612831699894741,increament,0.6,25,standard,None,100,,,,,,,,f,23,208,fr,r,0,raw,2022-05-20_11h09.40.043,oddball,2022.1.2,59.92265186588498,
10,,,,,0,0,0,2,9,0,9,0,17,0,17,0,,,,,,,,,,,,,,,,,1121.4521280000918,None,1122.1356842000969,1122.736269700108,1122.7197865000926,1124.720379699953,None,1,0.6134057003073394,2.6139873003121465,increament,0.6,25,standard,None,100,,,,,,,,f,23,208,fr,r,0,raw,2022-05-20_11h09.40.043,oddball,2022.1.2,59.92265186588498,
10,,,,,0,0,0,2,9,0,9,0,18,0,18,0,,,,,,,,,,,,,,,,,1124.736675299937,None,1125.3368828000966,1125.9370317999274,1125.9204351999797,1127.9213664999697,None,1,0.6131650002207607,2.614120000274852,increament,0.6,25,standard,None,100,,,,,,,,f,23,208,fr,r,0,raw,2022-05-20_11h09.40.043,oddball,2022.1.2,59.92265186588498,
10,,,,,0,0,0,2,9,0,9,0,19,0,19,0,,,,,,,,,,,,,,,,,1127.9381053000689,None,1128.5053477999754,1129.104836500017,1129.0883812999818,1131.089293200057,None,1,0.6112562001217157,2.612201699987054,increament,0.6,25,standard,None,100,,,,,,,,f,23,208,fr,r,0,raw,2022-05-20_11h09.40.043,oddball,2022.1.2,59.92265186588498,
10,,,,,0,0,0,2,9,0,9,0,20,0,20,0,,,,,,,,,,,,,,,,,1131.1058050000574,None,1131.6226910999976,1132.2230626000091,1132.2064096000977,1134.2075070999563,None,1,0.6127349999733269,2.613866899861023,increament,0.6,25,standard,None,100,,,,,,,,f,23,208,fr,r,0,raw,2022-05-20_11h09.40.043,oddball,2022.1.2,59.92265186588498,
10,,,,,0,0,0,2,9,0,9,0,21,0,21,0,,,,,,,,,,,,,,,,,1134.2238602999132,None,1134.9408978999127,1135.7911791999359,1135.757599600125,1137.7585150999948,j,1,0.8420579002704471,2.8430169001221657,increament,0.84,27,oddball,j,140,0.6948422999121249,,,,,,,f,23,208,fr,r,0,raw,2022-05-20_11h09.40.043,oddball,2022.1.2,59.92265186588498,
10,,,,,0,0,0,2,9,0,9,0,22,0,22,0,,,,,,,,,,,,,,,,,1137.7753449000884,None,1138.4255015999079,1139.025843200041,1139.009081600001,1141.0097233001143,None,1,0.6123107001185417,2.612967099994421,increament,0.6,25,standard,None,100,,,,,,,,f,23,208,fr,r,0,raw,2022-05-20_11h09.40.043,oddball,2022.1.2,59.92265186588498,
10,,,,,0,0,0,2,9,0,9,0,23,0,23,0,,,,,,,,,,,,,,,,,1141.026607299922,None,1141.6932548000477,1142.2933620999102,1142.2766978999134,1144.277393199969,None,1,0.6123251998797059,2.613018099917099,increament,0.6,25,standard,None,100,,,,,,,,f,23,208,fr,r,0,raw,2022-05-20_11h09.40.043,oddball,2022.1.2,59.92265186588498,
10,,,,,0,0,0,2,9,0,9,0,24,0,24,0,,,,,,,,,,,,,,,,,1144.2943408999126,None,1145.0445818000007,1145.644810799975,1145.628375499975,1147.628828899935,None,1,0.6123409001156688,2.612827999982983,increament,0.6,25,standard,None,100,,,,,,,,f,23,208,fr,r,0,raw,2022-05-20_11h09.40.043,oddball,2022.1.2,59.92265186588498,
10,,,,,0,0,0,2,9,0,9,0,25,0,25,0,,,,,,,,,,,,,,,,,1147.645774200093,None,1148.2292641999666,1148.8294224001002,1148.8126284000464,1150.8133741000202,None,1,0.611839400138706,2.61260770005174,increament,0.6,25,standard,None,100,,,,,,,,f,23,208,fr,r,0,raw,2022-05-20_11h09.40.043,oddball,2022.1.2,59.92265186588498,
10,,,,,0,0,0,2,9,0,9,0,26,0,26,0,,,,,,,,,,,,,,,,,1150.8301301000174,None,1151.4971316000447,1152.0969700000715,1152.0804032001179,1154.0810068000574,None,1,0.6091777000110596,2.60971840005368,increament,0.6,25,standard,None,100,,,,,,,,f,23,208,fr,r,0,raw,2022-05-20_11h09.40.043,oddball,2022.1.2,59.92265186588498,
10,,,,,0,0,0,2,9,0,9,0,27,0,27,0,,,,,,,,,,,,,,,,,1154.097791600041,None,1154.8815675999504,1155.4820061000064,1155.4653501999564,1157.465639299946,None,1,0.6103863997850567,2.6106000998988748,increament,0.6,25,standard,None,100,,,,,,,,f,23,208,fr,r,0,raw,2022-05-20_11h09.40.043,oddball,2022.1.2,59.92265186588498,
10,,,,,0,0,0,2,9,0,9,0,28,0,28,0,,,,,,,,,,,,,,,,,1157.4824028001167,None,1158.19943649997,1158.7994568001013,1158.7830892000347,1160.7838940001093,None,1,0.612466000020504,2.613341099815443,increament,0.6,25,standard,None,100,,,,,,,,f,23,208,fr,r,0,raw,2022-05-20_11h09.40.043,oddball,2022.1.2,59.92265186588498,
10,,,,,0,0,0,2,9,0,9,0,29,0,29,0,,,,,,,,,,,,,,,,,1160.8004479999654,None,1161.3842464999761,1162.1177849001251,1162.084370000055,1164.0850462000817,None,0,0.7265384001657367,2.727232500212267,increament,0.72,26,oddball,j,120,,,,,,,,f,23,208,fr,r,0,raw,2022-05-20_11h09.40.043,oddball,2022.1.2,59.92265186588498,
20,,,,,0,1,1,3,0,0,0,0,0,0,0,0,,,,,,,,,,,,,,,1347.482391800033,None,1348.8051782001276,None,1349.4219446000643,1350.0220890999772,1350.0055698999204,1352.0060739999171,None,1,0.6103320000693202,2.6110459002666175,decreament,0.6,41,standard,None,100,,1344.170099500101,None,1164.1626844999846,None,,,f,23,208,fr,r,0,raw,2022-05-20_11h09.40.043,oddball,2022.1.2,59.92265186588498,
20,,,,,0,1,1,3,0,0,0,0,1,0,1,0,,,,,,,,,,,,,,,,,1352.0229062999133,None,1352.6899306001142,1353.290176599985,1353.2736261999235,1355.2740986999124,None,1,0.6110016999300569,2.61143619986251,decreament,0.6,41,standard,None,100,,,,,,,,f,23,208,fr,r,0,raw,2022-05-20_11h09.40.043,oddball,2022.1.2,59.92265186588498,
20,,,,,0,1,1,3,0,0,0,0,2,0,2,0,,,,,,,,,,,,,,,,,1355.2905630001333,None,1355.924267699942,1356.5241569001228,1356.5078193000518,1358.5089090000838,None,1,0.6123462000396103,2.613515399862081,decreament,0.6,41,standard,None,100,,,,,,,,f,23,208,fr,r,0,raw,2022-05-20_11h09.40.043,oddball,2022.1.2,59.92265186588498,
20,,,,,0,1,1,3,0,0,0,0,3,0,3,0,,,,,,,,,,,,,,,,,1358.5255189000163,None,1359.075582999969,1359.6757404999807,1359.6589888001326,1361.6597325999755,None,1,0.612277400214225,2.613007300067693,decreament,0.6,41,standard,None,100,,,,,,,,f,23,208,fr,r,0,raw,2022-05-20_11h09.40.043,oddball,2022.1.2,59.92265186588498,
20,,,,,0,1,1,3,0,0,0,0,4,0,4,0,,,,,,,,,,,,,,,,,1361.6765997000039,None,1362.3937186000403,1362.9939252000768,1362.9769067000598,1364.9775755999144,None,1,0.6102016000077128,2.6108731999993324,decreament,0.6,41,standard,None,100,,,,,,,,f,23,208,fr,r,0,raw,2022-05-20_11h09.40.043,oddball,2022.1.2,59.92265186588498,
20,,,,,0,1,1,3,0,0,0,0,5,0,5,0,,,,,,,,,,,,,,,,,1364.9945118001197,None,1365.5450971000828,1366.1447827999946,1366.1281310999766,1368.129007200012,None,1,0.6092133999336511,2.6101076998747885,decreament,0.6,41,standard,None,100,,,,,,,,f,23,208,fr,r,0,raw,2022-05-20_11h09.40.043,oddball,2022.1.2,59.92265186588498,
20,,,,,0,1,1,3,0,0,0,0,6,0,6,0,,,,,,,,,,,,,,,,,1368.1457201000303,None,1368.72940140008,1369.3296697000042,1369.3130362001248,1371.3135570001323,None,1,0.6124240001663566,2.612922600004822,decreament,0.6,41,standard,None,100,,,,,,,,f,23,208,fr,r,0,raw,2022-05-20_11h09.40.043,oddball,2022.1.2,59.92265186588498,
20,,,,,0,1,1,3,0,0,0,0,7,0,7,0,,,,,,,,,,,,,,,,,1371.33027460007,None,1372.0804083999246,1372.5640734999906,1372.530560000101,1374.5317214999814,None,0,0.4790874000173062,2.4803329000715166,decreament,0.48,44,oddball,j,80,,,,,,,,f,23,208,fr,r,0,raw,2022-05-20_11h09.40.043,oddball,2022.1.2,59.92265186588498,
20,,,,,0,1,1,3,0,0,0,0,8,0,8,0,,,,,,,,,,,,,,,,,1374.5479890001006,None,1375.2150047000032,1375.8154629999772,1375.7988501999062,1377.7996823999565,None,1,0.6117663001641631,2.612529900157824,decreament,0.6,41,standard,None,100,,,,,,,,f,23,208,fr,r,0,raw,2022-05-20_11h09.40.043,oddball,2022.1.2,59.92265186588498,
20,,,,,0,1,1,3,0,0,0,0,9,0,9,0,,,,,,,,,,,,,,,,,1377.8160544000566,None,1378.4161869999953,1379.0166066999082,1379.0002353000455,1381.000603399938,None,1,0.610663800034672,2.61096110008657,decreament,0.6,41,standard,None,100,,,,,,,,f,23,208,fr,r,0,raw,2022-05-20_11h09.40.043,oddball,2022.1.2,59.92265186588498,
20,,,,,0,1,1,3,0,0,0,0,10,0,10,0,,,,,,,,,,,,,,,,,1381.0172079999465,None,1381.6339732999913,1382.2343427999876,1382.2181220001075,1384.2188842000905,None,1,0.6135033001191914,2.6142323000822216,decreament,0.6,41,standard,None,100,,,,,,,,f,23,208,fr,r,0,raw,2022-05-20_11h09.40.043,oddball,2022.1.2,59.92265186588498,
20,,,,,0,1,1,3,0,0,0,0,11,0,11,0,,,,,,,,,,,,,,,,,1384.2349312000442,None,1384.9688137001358,1385.568904099986,1385.5521962000057,1387.5533447000198,None,1,0.6123677999712527,2.6136310999281704,decreament,0.6,41,standard,None,100,,,,,,,,f,23,208,fr,r,0,raw,2022-05-20_11h09.40.043,oddball,2022.1.2,59.92265186588498,
20,,,,,0,1,1,3,0,0,0,0,12,0,12,0,,,,,,,,,,,,,,,,,1387.5713520999998,None,1388.1204496999271,1388.3699960000813,1388.3369279999752,1390.3373040999286,j,1,0.2442631998565048,2.2445559999905527,decreament,0.24,42,oddball,j,40,0.5624933999497443,,,,,,,f,23,208,fr,r,0,raw,2022-05-20_11h09.40.043,oddball,2022.1.2,59.92265186588498,
