grating_freq,blocks_prac.thisRepN,blocks_prac.thisTrialN,blocks_prac.thisN,blocks_prac.thisIndex,blocks.thisRepN,blocks.thisTrialN,blocks.thisN,blocks.thisIndex,repeat_freq.thisRepN,repeat_freq.thisTrialN,repeat_freq.thisN,repeat_freq.thisIndex,trials.thisRepN,trials.thisTrialN,trials.thisN,trials.thisIndex,break_loop.thisRepN,break_loop.thisTrialN,break_loop.thisN,break_loop.thisIndex,rest_loop.thisRepN,rest_loop.thisTrialN,rest_loop.thisN,rest_loop.thisIndex,instruct_prac_text.started,instruct_prac_text.stopped,b_instruct_text_2_.started,b_instruct_text_2_.stopped,prac_done_text.started,prac_done_text.stopped,instruct_text.started,instruct_text.stopped,fixation.started,fixation.stopped,grating.started,grating.stopped,blank.started,blank.stopped,resp.keys,resp.corr,resp.started,resp.stopped,direction,duration,trigger,stim_type,corr_ans,scaling,resp.rt,rest_text.started,rest_text.stopped,text_2.started,text_2.stopped,thx_txt.started,thx_txt.stopped,gender,age,participant,language,main_hand,nBlock_prac,file_suffix,date,expName,psychopyVersion,frameRate,
5,,,,,0,0,0,1,0,0,0,0,0,0,0,0,,,,,,,,,22.975469100289047,None,33.30443140026182,None,38.89776450023055,None,41.47012960026041,None,44.1081360001117,None,44.79848020011559,45.4087900002487,45.358663900289685,47.3599666999653,None,1,0.611564279999584,2.6129561797715724,decreament,0.6,11,standard,None,100,,,,,,,,f,18,212,fr,r,0,raw,2022-05-24_16h34.31.995,oddball,2022.1.2,59.73294594231815,
5,,,,,0,0,0,1,0,0,0,0,1,0,1,0,,,,,,,,,,,,,,,,,47.37749919993803,None,48.00984829990193,48.61007820023224,48.59361510025337,50.59430250013247,None,1,0.6125399800948799,2.6132473801262677,decreament,0.6,11,standard,None,100,,,,,,,,f,18,212,fr,r,0,raw,2022-05-24_16h34.31.995,oddball,2022.1.2,59.73294594231815,
5,,,,,0,0,0,1,0,0,0,0,2,0,2,0,,,,,,,,,,,,,,,,,50.610636699944735,None,51.24436639994383,51.844620999880135,51.82783740013838,53.82881100010127,None,1,0.6125491796992719,2.6135634798556566,decreament,0.6,11,standard,None,100,,,,,,,,f,18,212,fr,r,0,raw,2022-05-24_16h34.31.995,oddball,2022.1.2,59.73294594231815,
5,,,,,0,0,0,1,0,0,0,0,3,0,3,0,,,,,,,,,,,,,,,,,53.845137800090015,None,54.59605390019715,55.19564819987863,55.17918260022998,57.1798187000677,None,1,0.6118872803635895,2.6124906800687313,decreament,0.6,11,standard,None,100,,,,,,,,f,18,212,fr,r,0,raw,2022-05-24_16h34.31.995,oddball,2022.1.2,59.73294594231815,
5,,,,,0,0,0,1,0,0,0,0,4,0,4,0,,,,,,,,,,,,,,,,,57.196534799877554,None,57.86371270008385,58.46362349996343,58.44691719999537,60.44785930030048,None,1,0.6096036802046001,2.6105732801370323,decreament,0.6,11,standard,None,100,,,,,,,,f,18,212,fr,r,0,raw,2022-05-24_16h34.31.995,oddball,2022.1.2,59.73294594231815,
5,,,,,0,0,0,1,0,0,0,0,5,0,5,0,,,,,,,,,,,,,,,,,60.4649760001339,None,61.04856810020283,61.64814280020073,61.6312835002318,63.632168900221586,None,1,0.6086598797701299,2.609565479680896,decreament,0.6,11,standard,None,100,,,,,,,,f,18,212,fr,r,0,raw,2022-05-24_16h34.31.995,oddball,2022.1.2,59.73294594231815,
5,,,,,0,0,0,1,0,0,0,0,6,0,6,0,,,,,,,,,,,,,,,,,63.6495133000426,None,64.3494508001022,64.94931180030107,64.93277310021222,66.93344740010798,None,1,0.6097808796912432,2.6104827797971666,decreament,0.6,11,standard,None,100,,,,,,,,f,18,212,fr,r,0,raw,2022-05-24_16h34.31.995,oddball,2022.1.2,59.73294594231815,
5,,,,,0,0,0,1,0,0,0,0,7,0,7,0,,,,,,,,,,,,,,,,,66.95048510003835,None,67.5169106000103,68.11735610011965,68.10081019997597,70.10140290018171,None,1,0.6134412796236575,2.614018579479307,decreament,0.6,11,standard,None,100,,,,,,,,f,18,212,fr,r,0,raw,2022-05-24_16h34.31.995,oddball,2022.1.2,59.73294594231815,
5,,,,,0,0,0,1,0,0,0,0,8,0,8,0,,,,,,,,,,,,,,,,,70.11816200008616,None,70.88494520029053,71.4854878000915,71.46890870016068,73.46978810010478,None,1,0.6133284801617265,2.6141815800219774,decreament,0.6,11,standard,None,100,,,,,,,,f,18,212,fr,r,0,raw,2022-05-24_16h34.31.995,oddball,2022.1.2,59.73294594231815,
5,,,,,0,0,0,1,0,0,0,0,9,0,9,0,,,,,,,,,,,,,,,,,73.48626550007612,None,74.22009149985388,74.81988890003413,74.80376060027629,76.80411570006981,None,1,0.611166880466044,2.6115008806809783,decreament,0.6,11,standard,None,100,,,,,,,,f,18,212,fr,r,0,raw,2022-05-24_16h34.31.995,oddball,2022.1.2,59.73294594231815,
5,,,,,0,0,0,1,0,0,0,0,10,0,10,0,,,,,,,,,,,,,,,,,76.82109449990094,None,77.47098480025306,78.0713312998414,78.05484599992633,80.05534800002351,None,1,0.612641479820013,2.6131530799902976,decreament,0.6,11,standard,None,100,,,,,,,,f,18,212,fr,r,0,raw,2022-05-24_16h34.31.995,oddball,2022.1.2,59.73294594231815,
5,,,,,0,0,0,1,0,0,0,0,11,0,11,0,,,,,,,,,,,,,,,,,80.07179780025035,None,80.7721147001721,81.37238899990916,81.3556989999488,83.35650440026075,None,1,0.612631980329752,2.613417380489409,decreament,0.6,11,standard,None,100,,,,,,,,f,18,212,fr,r,0,raw,2022-05-24_16h34.31.995,oddball,2022.1.2,59.73294594231815,
5,,,,,0,0,0,1,0,0,0,0,12,0,12,0,,,,,,,,,,,,,,,,,83.37332240026444,None,84.09016699995846,84.57340419990942,84.54044360015541,86.54092800011858,j,1,0.4799792803823948,2.480444180313498,decreament,0.48,14,oddball,j,80,0.8351730001159012,,,,,,,f,18,212,fr,r,0,raw,2022-05-24_16h34.31.995,oddball,2022.1.2,59.73294594231815,
5,,,,,0,0,0,1,0,0,0,0,13,0,13,0,,,,,,,,,,,,,,,,,86.5574648999609,None,87.14131079986691,87.74155450006947,87.72523199999705,89.72605779999867,None,1,0.6127466801553965,2.61360757984221,decreament,0.6,11,standard,None,100,,,,,,,,f,18,212,fr,r,0,raw,2022-05-24_16h34.31.995,oddball,2022.1.2,59.73294594231815,
5,,,,,0,0,0,1,0,0,0,0,14,0,14,0,,,,,,,,,,,,,,,,,89.74294049991295,None,90.52592039993033,91.12628429988399,91.10967240016907,93.10992499999702,None,1,0.6128977802582085,2.613074580207467,decreament,0.6,11,standard,None,100,,,,,,,,f,18,212,fr,r,0,raw,2022-05-24_16h34.31.995,oddball,2022.1.2,59.73294594231815,
5,,,,,0,0,0,1,0,0,0,0,15,0,15,0,,,,,,,,,,,,,,,,,93.12674369988963,None,93.81069470010698,94.41104600019753,94.3941911002621,96.39473510021344,None,1,0.6114238798618317,2.611948379781097,decreament,0.6,11,standard,None,100,,,,,,,,f,18,212,fr,r,0,raw,2022-05-24_16h34.31.995,oddball,2022.1.2,59.73294594231815,
5,,,,,0,0,0,1,0,0,0,0,16,0,16,0,,,,,,,,,,,,,,,,,96.41133149992675,None,97.24518389999866,97.84562270017341,97.82875479990616,99.82936380011961,None,1,0.6116396798752248,2.6122122798115015,decreament,0.6,11,standard,None,100,,,,,,,,f,18,212,fr,r,0,raw,2022-05-24_16h34.31.995,oddball,2022.1.2,59.73294594231815,
5,,,,,0,0,0,1,0,0,0,0,17,0,17,0,,,,,,,,,,,,,,,,,99.84630350023508,None,100.49619670026004,101.09661159990355,101.07988979993388,103.08056590007618,None,1,0.6128609799779952,2.6135113798081875,decreament,0.6,11,standard,None,100,,,,,,,,f,18,212,fr,r,0,raw,2022-05-24_16h34.31.995,oddball,2022.1.2,59.73294594231815,
5,,,,,0,0,0,1,0,0,0,0,18,0,18,0,,,,,,,,,,,,,,,,,103.09713040012866,None,103.79810260003433,104.04791249986738,104.01424700021744,106.01489380002022,j,1,0.24248878005892038,2.243123280350119,decreament,0.24,12,oddball,j,40,0.40160349989309907,,,,,,,f,18,212,fr,r,0,raw,2022-05-24_16h34.31.995,oddball,2022.1.2,59.73294594231815,
5,,,,,0,0,0,1,0,0,0,0,19,0,19,0,,,,,,,,,,,,,,,,,106.03153140004724,None,106.64911370025948,107.24880670011044,107.23221419984475,109.23280310025439,None,1,0.6099580801092088,2.6104957801289856,decreament,0.6,11,standard,None,100,,,,,,,,f,18,212,fr,r,0,raw,2022-05-24_16h34.31.995,oddball,2022.1.2,59.73294594231815,
5,,,,,0,0,0,1,0,0,0,0,20,0,20,0,,,,,,,,,,,,,,,,,109.2498154998757,None,109.83335050009191,110.43355520023033,110.41687900014222,112.41771360021085,None,1,0.6121086794883013,2.6129650794900954,decreament,0.6,11,standard,None,100,,,,,,,,f,18,212,fr,r,0,raw,2022-05-24_16h34.31.995,oddball,2022.1.2,59.73294594231815,
5,,,,,0,0,0,1,0,0,0,0,21,0,21,0,,,,,,,,,,,,,,,,,112.43394420016557,None,113.06778070004657,113.66783400019631,113.65153650008142,115.65215370012447,None,1,0.6131128799170256,2.6137109799310565,decreament,0.6,11,standard,None,100,,,,,,,,f,18,212,fr,r,0,raw,2022-05-24_16h34.31.995,oddball,2022.1.2,59.73294594231815,
5,,,,,0,0,0,1,0,0,0,0,22,0,22,0,,,,,,,,,,,,,,,,,115.66894999984652,None,116.26894180011004,116.86920309998095,116.85248350026086,118.85308860009536,None,1,0.6130560799501836,2.613630880136043,decreament,0.6,11,standard,None,100,,,,,,,,f,18,212,fr,r,0,raw,2022-05-24_16h34.31.995,oddball,2022.1.2,59.73294594231815,
5,,,,,0,0,0,1,0,0,0,0,23,0,23,0,,,,,,,,,,,,,,,,,118.87007609987631,None,119.58698400016874,120.18681399989873,120.17028969991952,122.17118349997327,None,1,0.6126604797318578,2.613538379780948,decreament,0.6,11,standard,None,100,,,,,,,,f,18,212,fr,r,0,raw,2022-05-24_16h34.31.995,oddball,2022.1.2,59.73294594231815,
5,,,,,0,0,0,1,0,0,0,0,24,0,24,0,,,,,,,,,,,,,,,,,122.18780300021172,None,122.8716915003024,123.23849470028654,123.20549899991602,125.20610179984942,j,1,0.36312267975881696,2.363692279905081,decreament,0.36,13,oddball,j,60,0.55304199969396,,,,,,,f,18,212,fr,r,0,raw,2022-05-24_16h34.31.995,oddball,2022.1.2,59.73294594231815,
5,,,,,0,0,0,1,0,0,0,0,25,0,25,0,,,,,,,,,,,,,,,,,125.22254210012034,None,125.87320020003244,126.47276910021901,126.4561085999012,128.45677840011194,None,1,0.6089122802950442,2.609597480390221,decreament,0.6,11,standard,None,100,,,,,,,,f,18,212,fr,r,0,raw,2022-05-24_16h34.31.995,oddball,2022.1.2,59.73294594231815,
5,,,,,0,0,0,1,0,0,0,0,26,0,26,0,,,,,,,,,,,,,,,,,128.47381799994037,None,129.15746030025184,129.75782349985093,129.7407920002006,131.74150020023808,None,1,0.607630180194974,2.6082957801409066,decreament,0.6,11,standard,None,100,,,,,,,,f,18,212,fr,r,0,raw,2022-05-24_16h34.31.995,oddball,2022.1.2,59.73294594231815,
5,,,,,0,0,0,1,0,0,0,0,27,0,27,0,,,,,,,,,,,,,,,,,131.75812599994242,None,132.32536480017006,132.92570939986035,132.90863970015198,134.90923970006406,None,1,0.609405780211091,2.610015479847789,decreament,0.6,11,standard,None,100,,,,,,,,f,18,212,fr,r,0,raw,2022-05-24_16h34.31.995,oddball,2022.1.2,59.73294594231815,
5,,,,,0,0,0,1,0,0,0,0,28,0,28,0,,,,,,,,,,,,,,,,,134.9262248002924,None,135.55984790017828,136.15997010003775,136.14304460026324,138.14386129984632,None,1,0.6082583800889552,2.609228180255741,decreament,0.6,11,standard,None,100,,,,,,,,f,18,212,fr,r,0,raw,2022-05-24_16h34.31.995,oddball,2022.1.2,59.73294594231815,
5,,,,,0,0,0,1,0,0,0,0,29,0,29,0,,,,,,,,,,,,,,,,,138.16158659989014,None,138.7443258999847,139.34458660008386,139.32792139984667,141.32839500019327,None,1,0.6118974797427654,2.6123292800039053,decreament,0.6,11,standard,None,100,,,,,,,,f,18,212,fr,r,0,raw,2022-05-24_16h34.31.995,oddball,2022.1.2,59.73294594231815,
5,,,,,0,0,0,1,1,0,1,0,0,0,0,0,,,,,,,,,,,,,,,145.93910850025713,None,147.46391220018268,None,148.03149770013988,148.63169270008802,148.61481849988922,150.61493090027943,None,1,0.6087313801981509,2.608720680233091,increament,0.6,15,standard,None,100,,141.34544980013743,None,,,,,f,18,212,fr,r,0,raw,2022-05-24_16h34.31.995,oddball,2022.1.2,59.73294594231815,
5,,,,,0,0,0,1,1,0,1,0,1,0,1,0,,,,,,,,,,,,,,,,,150.63172780023888,None,151.28253309987485,151.88254070002586,151.86589380027726,153.86716279992834,None,1,0.6123100803233683,2.6136848805472255,increament,0.6,15,standard,None,100,,,,,,,,f,18,212,fr,r,0,raw,2022-05-24_16h34.31.995,oddball,2022.1.2,59.73294594231815,
5,,,,,0,0,0,1,1,0,1,0,2,0,2,0,,,,,,,,,,,,,,,,,153.88403479987755,None,154.45021450007334,155.05009560007602,155.03351090010256,157.03463320014998,None,1,0.6132178800180554,2.6144246798940003,increament,0.6,15,standard,None,100,,,,,,,,f,18,212,fr,r,0,raw,2022-05-24_16h34.31.995,oddball,2022.1.2,59.73294594231815,
5,,,,,0,0,0,1,1,0,1,0,3,0,3,0,,,,,,,,,,,,,,,,,157.0518256998621,None,157.81796990009025,158.4180490002036,158.40148749994114,160.40234610019252,None,1,0.6119117802008986,2.6128080799244344,increament,0.6,15,standard,None,100,,,,,,,,f,18,212,fr,r,0,raw,2022-05-24_16h34.31.995,oddball,2022.1.2,59.73294594231815,
5,,,,,0,0,0,1,1,0,1,0,4,0,4,0,,,,,,,,,,,,,,,,,160.41894919984043,None,161.03596899984404,161.63618999999017,161.61934049986303,163.6205217000097,None,1,0.6110988799482584,2.6123371799476445,increament,0.6,15,standard,None,100,,,,,,,,f,18,212,fr,r,0,raw,2022-05-24_16h34.31.995,oddball,2022.1.2,59.73294594231815,
5,,,,,0,0,0,1,1,0,1,0,5,0,5,0,,,,,,,,,,,,,,,,,163.63720729993656,None,164.33718620007858,164.93715920019895,164.92067719995975,166.92170329997316,None,1,0.6134318797849119,2.6145206801593304,increament,0.6,15,standard,None,100,,,,,,,,f,18,212,fr,r,0,raw,2022-05-24_16h34.31.995,oddball,2022.1.2,59.73294594231815,
5,,,,,0,0,0,1,1,0,1,0,6,0,6,0,,,,,,,,,,,,,,,,,166.93830300029367,None,167.57181190000847,168.42200289992616,168.3887483002618,170.3893022001721,j,1,0.8446731800213456,2.8451780802570283,increament,0.84,17,oddball,j,140,0.4813810996711254,,,,,,,f,18,212,fr,r,0,raw,2022-05-24_16h34.31.995,oddball,2022.1.2,59.73294594231815,
5,,,,,0,0,0,1,1,0,1,0,7,0,7,0,,,,,,,,,,,,,,,,,170.40587749984115,None,171.02318250015378,171.6233222000301,171.6066844998859,173.6072581000626,None,1,0.6123246806673706,2.6128935804590583,increament,0.6,15,standard,None,100,,,,,,,,f,18,212,fr,r,0,raw,2022-05-24_16h34.31.995,oddball,2022.1.2,59.73294594231815,
5,,,,,0,0,0,1,1,0,1,0,8,0,8,0,,,,,,,,,,,,,,,,,173.62403800012544,None,174.22452170029283,174.8244185000658,174.8078037002124,176.80856460006908,None,1,0.6121632801368833,2.6129622804000974,increament,0.6,15,standard,None,100,,,,,,,,f,18,212,fr,r,0,raw,2022-05-24_16h34.31.995,oddball,2022.1.2,59.73294594231815,
5,,,,,0,0,0,1,1,0,1,0,9,0,9,0,,,,,,,,,,,,,,,,,176.82526060007513,None,177.49218029994518,178.09240250010043,178.07588700018823,180.07626490015537,None,1,0.611921280156821,2.61227088002488,increament,0.6,15,standard,None,100,,,,,,,,f,18,212,fr,r,0,raw,2022-05-24_16h34.31.995,oddball,2022.1.2,59.73294594231815,
5,,,,,0,0,0,1,1,0,1,0,10,0,10,0,,,,,,,,,,,,,,,,,180.09309659991413,None,180.693201799877,181.42679340019822,181.39382910029963,183.39453200018033,None,0,0.7303205798380077,2.730951779987663,increament,0.72,16,oddball,j,120,,,,,,,,f,18,212,fr,r,0,raw,2022-05-24_16h34.31.995,oddball,2022.1.2,59.73294594231815,
5,,,,,0,0,0,1,1,0,1,0,11,0,11,0,,,,,,,,,,,,,,,,,183.4109892998822,None,184.11161589995027,184.71151319984347,184.69503139983863,186.6959967999719,None,1,0.6118938801810145,2.6129145799204707,increament,0.6,15,standard,None,100,,,,,,,,f,18,212,fr,r,0,raw,2022-05-24_16h34.31.995,oddball,2022.1.2,59.73294594231815,
5,,,,,0,0,0,1,1,0,1,0,12,0,12,0,,,,,,,,,,,,,,,,,186.71371820010245,None,187.47955430019647,188.07895629992709,188.06232890021056,190.06380259990692,None,1,0.6091037797741592,2.610642080195248,increament,0.6,15,standard,None,100,,,,,,,,f,18,212,fr,r,0,raw,2022-05-24_16h34.31.995,oddball,2022.1.2,59.73294594231815,
5,,,,,0,0,0,1,1,0,1,0,13,0,13,0,,,,,,,,,,,,,,,,,190.0801786002703,None,190.71389000024647,191.31446240004152,191.29753750003874,193.29828769993037,None,1,0.6136735798791051,2.6143615799956024,increament,0.6,15,standard,None,100,,,,,,,,f,18,212,fr,r,0,raw,2022-05-24_16h34.31.995,oddball,2022.1.2,59.73294594231815,
5,,,,,0,0,0,1,1,0,1,0,14,0,14,0,,,,,,,,,,,,,,,,,193.3148384001106,None,194.01506099989638,194.6156192002818,194.59934640023857,196.59928900003433,None,1,0.6134843798354268,2.6133352797478437,increament,0.6,15,standard,None,100,,,,,,,,f,18,212,fr,r,0,raw,2022-05-24_16h34.31.995,oddball,2022.1.2,59.73294594231815,
5,,,,,0,0,0,1,1,0,1,0,15,0,15,0,,,,,,,,,,,,,,,,,196.61602290021256,None,197.199529199861,197.79960469994694,197.78319129999727,199.78415800025687,None,1,0.6132721798494458,2.6142565798945725,increament,0.6,15,standard,None,100,,,,,,,,f,18,212,fr,r,0,raw,2022-05-24_16h34.31.995,oddball,2022.1.2,59.73294594231815,
5,,,,,0,0,0,1,1,0,1,0,16,0,16,0,,,,,,,,,,,,,,,,,199.80059790005907,None,200.53402250027284,201.13437050022185,201.1177317001857,203.1186970998533,None,1,0.6123254802078009,2.6132806804962456,increament,0.6,15,standard,None,100,,,,,,,,f,18,212,fr,r,0,raw,2022-05-24_16h34.31.995,oddball,2022.1.2,59.73294594231815,
5,,,,,0,0,0,1,1,0,1,0,17,0,17,0,,,,,,,,,,,,,,,,,203.13504010019824,None,203.8189222998917,204.41940130013973,204.402623699978,206.4032693998888,None,1,0.6123933801427484,2.6129432800225914,increament,0.6,15,standard,None,100,,,,,,,,f,18,212,fr,r,0,raw,2022-05-24_16h34.31.995,oddball,2022.1.2,59.73294594231815,
5,,,,,0,0,0,1,1,0,1,0,18,0,18,0,,,,,,,,,,,,,,,,,206.41990160010755,None,207.08690460026264,207.68722520023584,207.67037690011784,209.67110780021176,None,1,0.6106194797903299,2.6113399798050523,increament,0.6,15,standard,None,100,,,,,,,,f,18,212,fr,r,0,raw,2022-05-24_16h34.31.995,oddball,2022.1.2,59.73294594231815,
5,,,,,0,0,0,1,1,0,1,0,19,0,19,0,,,,,,,,,,,,,,,,,209.68777590012178,None,210.27115980023518,210.87143040029332,210.8548313002102,212.85542390029877,None,1,0.6146966801024973,2.614988979883492,increament,0.6,15,standard,None,100,,,,,,,,f,18,212,fr,r,0,raw,2022-05-24_16h34.31.995,oddball,2022.1.2,59.73294594231815,
5,,,,,0,0,0,1,1,0,1,0,20,0,20,0,,,,,,,,,,,,,,,,,212.87226590001956,None,213.58945860015228,214.18926570005715,214.17264340026304,216.17362120002508,None,1,0.6077848803251982,2.608783080242574,increament,0.6,15,standard,None,100,,,,,,,,f,18,212,fr,r,0,raw,2022-05-24_16h34.31.995,oddball,2022.1.2,59.73294594231815,
5,,,,,0,0,0,1,1,0,1,0,21,0,21,0,,,,,,,,,,,,,,,,,216.19016809994355,None,216.82385910023004,217.42402409994975,217.4073606999591,219.40821069991216,None,1,0.6122039803303778,2.613063980359584,increament,0.6,15,standard,None,100,,,,,,,,f,18,212,fr,r,0,raw,2022-05-24_16h34.31.995,oddball,2022.1.2,59.73294594231815,
5,,,,,0,0,0,1,1,0,1,0,22,0,22,0,,,,,,,,,,,,,,,,,219.42637060023844,None,220.1416629999876,221.10871230019256,221.07532959990203,223.0760356001556,j,1,0.96311477990821,2.963834079913795,increament,0.96,18,oddball,j,160,0.4827179997228086,,,,,,,f,18,212,fr,r,0,raw,2022-05-24_16h34.31.995,oddball,2022.1.2,59.73294594231815,
5,,,,,0,0,0,1,1,0,1,0,23,0,23,0,,,,,,,,,,,,,,,,,223.09295050008222,None,223.79297479987144,224.39310660026968,224.37682340014726,226.37795650027692,None,1,0.614331379532814,2.6154871797189116,increament,0.6,15,standard,None,100,,,,,,,,f,18,212,fr,r,0,raw,2022-05-24_16h34.31.995,oddball,2022.1.2,59.73294594231815,
5,,,,,0,0,0,1,1,0,1,0,24,0,24,0,,,,,,,,,,,,,,,,,226.3947103000246,None,227.1110557001084,227.71137899998575,227.6948378002271,229.69548059999943,None,1,0.6104528801515698,2.6110742799937725,increament,0.6,15,standard,None,100,,,,,,,,f,18,212,fr,r,0,raw,2022-05-24_16h34.31.995,oddball,2022.1.2,59.73294594231815,
5,,,,,0,0,0,1,1,0,1,0,25,0,25,0,,,,,,,,,,,,,,,,,229.71207980019972,None,230.37904300028458,230.97947689983994,230.962266900111,232.96322940010577,None,1,0.6077300803735852,2.608739980030805,increament,0.6,15,standard,None,100,,,,,,,,f,18,212,fr,r,0,raw,2022-05-24_16h34.31.995,oddball,2022.1.2,59.73294594231815,
5,,,,,0,0,0,1,1,0,1,0,26,0,26,0,,,,,,,,,,,,,,,,,232.9799136002548,None,233.63005329994485,234.23031140025705,234.21395150013268,236.21469689998776,None,1,0.6129601802676916,2.6137064802460372,increament,0.6,15,standard,None,100,,,,,,,,f,18,212,fr,r,0,raw,2022-05-24_16h34.31.995,oddball,2022.1.2,59.73294594231815,
5,,,,,0,0,0,1,1,0,1,0,27,0,27,0,,,,,,,,,,,,,,,,,236.231209800113,None,236.78134460002184,237.38139680027962,237.36477359989658,239.36552490014583,None,1,0.611806679982692,2.6125580798834562,increament,0.6,15,standard,None,100,,,,,,,,f,18,212,fr,r,0,raw,2022-05-24_16h34.31.995,oddball,2022.1.2,59.73294594231815,
5,,,,,0,0,0,1,1,0,1,0,28,0,28,0,,,,,,,,,,,,,,,,,239.38208530005068,None,239.9658421999775,240.5660439999774,240.54951160028577,242.54993000021204,None,1,0.6109737800434232,2.6113466802053154,increament,0.6,15,standard,None,100,,,,,,,,f,18,212,fr,r,0,raw,2022-05-24_16h34.31.995,oddball,2022.1.2,59.73294594231815,
5,,,,,0,0,0,1,1,0,1,0,29,0,29,0,,,,,,,,,,,,,,,,,242.5666743000038,None,243.15070450026542,243.7507072999142,243.73396790027618,245.7352855000645,None,1,0.6099367802962661,2.6112313801422715,increament,0.6,15,standard,None,100,,,,,,,,f,18,212,fr,r,0,raw,2022-05-24_16h34.31.995,oddball,2022.1.2,59.73294594231815,
5,,,,,0,0,0,1,2,0,2,0,0,0,0,0,,,,,,,,,,,,,,,248.64860389987007,None,251.10319059994072,None,251.70363830029964,252.30404529999942,252.2871643002145,254.287766400259,None,1,0.6105110803619027,2.611076280474663,decreament,0.6,11,standard,None,100,,245.75704539986327,None,,,,,f,18,212,fr,r,0,raw,2022-05-24_16h34.31.995,oddball,2022.1.2,59.73294594231815,
5,,,,,0,0,0,1,2,0,2,0,1,0,1,0,,,,,,,,,,,,,,,,,254.30472679995,None,254.87135440018028,255.4719084999524,255.4555450999178,257.4559180000797,None,1,0.6126209800131619,2.6128631802275777,decreament,0.6,11,standard,None,100,,,,,,,,f,18,212,fr,r,0,raw,2022-05-24_16h34.31.995,oddball,2022.1.2,59.73294594231815,
5,,,,,0,0,0,1,2,0,2,0,2,0,2,0,,,,,,,,,,,,,,,,,257.4722970998846,None,258.0896395002492,258.6898540998809,258.67338579986244,260.6738650999032,None,1,0.6100654802285135,2.610559080261737,decreament,0.6,11,standard,None,100,,,,,,,,f,18,212,fr,r,0,raw,2022-05-24_16h34.31.995,oddball,2022.1.2,59.73294594231815,
5,,,,,0,0,0,1,2,0,2,0,3,0,3,0,,,,,,,,,,,,,,,,,260.6908074999228,None,261.27390050003305,261.874112599995,261.8574308999814,263.8580038002692,None,1,0.6117537799291313,2.6122890799306333,decreament,0.6,11,standard,None,100,,,,,,,,f,18,212,fr,r,0,raw,2022-05-24_16h34.31.995,oddball,2022.1.2,59.73294594231815,
5,,,,,0,0,0,1,2,0,2,0,4,0,4,0,,,,,,,,,,,,,,,,,263.87485950021073,None,264.6589420000091,265.2587518999353,265.2423292999156,267.2428904999979,None,1,0.6123536801896989,2.6129006799310446,decreament,0.6,11,standard,None,100,,,,,,,,f,18,212,fr,r,0,raw,2022-05-24_16h34.31.995,oddball,2022.1.2,59.73294594231815,
5,,,,,0,0,0,1,2,0,2,0,5,0,5,0,,,,,,,,,,,,,,,,,267.2597815999761,None,267.9766247002408,268.2263096002862,268.1932084001601,270.19375350000337,j,1,0.2442478802986443,2.2447909801267087,decreament,0.24,12,oddball,j,40,0.6459657000377774,,,,,,,f,18,212,fr,r,0,raw,2022-05-24_16h34.31.995,oddball,2022.1.2,59.73294594231815,
5,,,,,0,0,0,1,2,0,2,0,6,0,6,0,,,,,,,,,,,,,,,,,270.2104949001223,None,270.7273241998628,271.32764400029555,271.310763400048,273.31164620025083,None,1,0.6137080797925591,2.6146211801096797,decreament,0.6,11,standard,None,100,,,,,,,,f,18,212,fr,r,0,raw,2022-05-24_16h34.31.995,oddball,2022.1.2,59.73294594231815,
5,,,,,0,0,0,1,2,0,2,0,7,0,7,0,,,,,,,,,,,,,,,,,273.32860120013356,None,273.9123076000251,274.51247930014506,274.49597819987684,276.4965685000643,None,1,0.6096292799338698,2.610240879934281,decreament,0.6,11,standard,None,100,,,,,,,,f,18,212,fr,r,0,raw,2022-05-24_16h34.31.995,oddball,2022.1.2,59.73294594231815,
5,,,,,0,0,0,1,2,0,2,0,8,0,8,0,,,,,,,,,,,,,,,,,276.51320090005174,None,277.2472542999312,277.84679910028353,277.83039110014215,279.8309853002429,None,1,0.6086391797289252,2.6092411796562374,decreament,0.6,11,standard,None,100,,,,,,,,f,18,212,fr,r,0,raw,2022-05-24_16h34.31.995,oddball,2022.1.2,59.73294594231815,
5,,,,,0,0,0,1,2,0,2,0,9,0,9,0,,,,,,,,,,,,,,,,,279.84759839996696,None,280.6812740000896,281.28148510027677,281.2651201998815,283.26552060013637,None,1,0.6103710802271962,2.610771680250764,decreament,0.6,11,standard,None,100,,,,,,,,f,18,212,fr,r,0,raw,2022-05-24_16h34.31.995,oddball,2022.1.2,59.73294594231815,
5,,,,,0,0,0,1,2,0,2,0,10,0,10,0,,,,,,,,,,,,,,,,,283.28253760002553,None,284.01580550009385,284.61592280026525,284.59938500029966,286.60040330002084,None,1,0.6135496799834073,2.614686180371791,decreament,0.6,11,standard,None,100,,,,,,,,f,18,212,fr,r,0,raw,2022-05-24_16h34.31.995,oddball,2022.1.2,59.73294594231815,
5,,,,,0,0,0,1,2,0,2,0,11,0,11,0,,,,,,,,,,,,,,,,,286.61734570004046,None,287.33411090029404,287.9340567002073,287.91765059996396,289.91818160004914,None,1,0.6094563803635538,2.609951480291784,decreament,0.6,11,standard,None,100,,,,,,,,f,18,212,fr,r,0,raw,2022-05-24_16h34.31.995,oddball,2022.1.2,59.73294594231815,
5,,,,,0,0,0,1,2,0,2,0,12,0,12,0,,,,,,,,,,,,,,,,,289.93472609994933,None,290.5516031002626,291.15159050002694,291.13523290026933,293.13620040006936,None,1,0.6121752797625959,2.6131902798078954,decreament,0.6,11,standard,None,100,,,,,,,,f,18,212,fr,r,0,raw,2022-05-24_16h34.31.995,oddball,2022.1.2,59.73294594231815,
5,,,,,0,0,0,1,2,0,2,0,13,0,13,0,,,,,,,,,,,,,,,,,293.15286289993674,None,293.73624979984015,294.33641900029033,294.3199573000893,296.3208372001536,None,1,0.6106565799564123,2.6116294800303876,decreament,0.6,11,standard,None,100,,,,,,,,f,18,212,fr,r,0,raw,2022-05-24_16h34.31.995,oddball,2022.1.2,59.73294594231815,
5,,,,,0,0,0,1,2,0,2,0,14,0,14,0,,,,,,,,,,,,,,,,,296.33950550016016,None,297.17067789984867,297.77094880025834,297.7547371000983,299.7551144999452,None,1,0.6140527804382145,2.6143177803605795,decreament,0.6,11,standard,None,100,,,,,,,,f,18,212,fr,r,0,raw,2022-05-24_16h34.31.995,oddball,2022.1.2,59.73294594231815,
5,,,,,0,0,0,1,2,0,2,0,15,0,15,0,,,,,,,,,,,,,,,,,299.77157559990883,None,300.3386495001614,300.938818000257,300.92224769992754,302.92320170020685,None,1,0.612751079723239,2.6137620797380805,decreament,0.6,11,standard,None,100,,,,,,,,f,18,212,fr,r,0,raw,2022-05-24_16h34.31.995,oddball,2022.1.2,59.73294594231815,
5,,,,,0,0,0,1,2,0,2,0,16,0,16,0,,,,,,,,,,,,,,,,,302.9402759000659,None,303.60691670002416,304.20671749999747,304.19010200025514,306.1906436998397,None,1,0.6126410802826285,2.613159980159253,decreament,0.6,11,standard,None,100,,,,,,,,f,18,212,fr,r,0,raw,2022-05-24_16h34.31.995,oddball,2022.1.2,59.73294594231815,
5,,,,,0,0,0,1,2,0,2,0,17,0,17,0,,,,,,,,,,,,,,,,,306.2074281000532,None,306.84133760025725,307.32489959988743,307.3082706001587,None,None,0,0.47922377986833453,2.4794103801250458,decreament,0.48,14,oddball,j,80,,,,,,,,f,18,212,fr,r,0,raw,2022-05-24_16h34.31.995,oddball,2022.1.2,59.73294594231815,
5,,,,,0,0,0,1,2,0,2,0,18,0,18,0,,,,,,,,,,,,,,,,,309.30859450018033,None,309.8757768999785,310.4758611000143,310.4591210000217,312.45991830015555,None,1,0.6105101797729731,2.611318879760802,decreament,0.6,11,standard,None,100,,,,,,,,f,18,212,fr,r,0,raw,2022-05-24_16h34.31.995,oddball,2022.1.2,59.73294594231815,
5,,,,,0,0,0,1,2,0,2,0,19,0,19,0,,,,,,,,,,,,,,,,,312.4766195998527,None,313.1771065001376,313.77726270025596,313.76057839998975,315.7612164001912,None,1,0.6097248801961541,2.610370079986751,decreament,0.6,11,standard,None,100,,,,,,,,f,18,212,fr,r,0,raw,2022-05-24_16h34.31.995,oddball,2022.1.2,59.73294594231815,
5,,,,,0,0,0,1,2,0,2,0,20,0,20,0,,,,,,,,,,,,,,,,,315.7779446998611,None,316.3113430002704,316.911743900273,316.8949714000337,318.89620039984584,None,1,0.61227647960186,2.613575579598546,decreament,0.6,11,standard,None,100,,,,,,,,f,18,212,fr,r,0,raw,2022-05-24_16h34.31.995,oddball,2022.1.2,59.73294594231815,
5,,,,,0,0,0,1,2,0,2,0,21,0,21,0,,,,,,,,,,,,,,,,,318.9122496000491,None,319.64608759991825,320.2464025001973,320.22965170023963,322.2304022000171,None,1,0.6123837796039879,2.613137279637158,decreament,0.6,11,standard,None,100,,,,,,,,f,18,212,fr,r,0,raw,2022-05-24_16h34.31.995,oddball,2022.1.2,59.73294594231815,
5,,,,,0,0,0,1,2,0,2,0,22,0,22,0,,,,,,,,,,,,,,,,,322.2470614002086,None,322.9139721998945,323.5140766999684,323.4975334000774,325.4985238001682,None,1,0.6133506805635989,2.6143675805069506,decreament,0.6,11,standard,None,100,,,,,,,,f,18,212,fr,r,0,raw,2022-05-24_16h34.31.995,oddball,2022.1.2,59.73294594231815,
5,,,,,0,0,0,1,2,0,2,0,23,0,23,0,,,,,,,,,,,,,,,,,325.5150657999329,None,326.09858989994973,326.6984302001074,326.6818992998451,328.68269950011745,None,1,0.6123205795884132,2.613117979839444,decreament,0.6,11,standard,None,100,,,,,,,,f,18,212,fr,r,0,raw,2022-05-24_16h34.31.995,oddball,2022.1.2,59.73294594231815,
5,,,,,0,0,0,1,2,0,2,0,24,0,24,0,,,,,,,,,,,,,,,,,328.6992325000465,None,329.26647410029545,329.86663320008665,329.8502221000381,331.8508291002363,None,1,0.6096490798518062,2.6102669797837734,decreament,0.6,11,standard,None,100,,,,,,,,f,18,212,fr,r,0,raw,2022-05-24_16h34.31.995,oddball,2022.1.2,59.73294594231815,
5,,,,,0,0,0,1,2,0,2,0,25,0,25,0,,,,,,,,,,,,,,,,,331.86740790028125,None,332.50091599998996,333.10120530007407,333.0844769999385,335.085204300005,None,1,0.6126171797513962,2.613381679635495,decreament,0.6,11,standard,None,100,,,,,,,,f,18,212,fr,r,0,raw,2022-05-24_16h34.31.995,oddball,2022.1.2,59.73294594231815,
5,,,,,0,0,0,1,2,0,2,0,26,0,26,0,,,,,,,,,,,,,,,,,335.1019383003004,None,335.70219579990953,336.0690001999028,336.0358194001019,338.0363757000305,j,1,0.3610648801550269,2.361558279953897,decreament,0.36,13,oddball,j,60,0.5943732997402549,,,,,,,f,18,212,fr,r,0,raw,2022-05-24_16h34.31.995,oddball,2022.1.2,59.73294594231815,
5,,,,,0,0,0,1,2,0,2,0,27,0,27,0,,,,,,,,,,,,,,,,,338.05292019993067,None,338.70307879988104,339.303295600228,339.28686319990084,341.2874647001736,None,1,0.6128558800555766,2.613474680110812,decreament,0.6,11,standard,None,100,,,,,,,,f,18,212,fr,r,0,raw,2022-05-24_16h34.31.995,oddball,2022.1.2,59.73294594231815,
5,,,,,0,0,0,1,2,0,2,0,28,0,28,0,,,,,,,,,,,,,,,,,341.3042700998485,None,342.0378108001314,342.63797040004283,342.6212193998508,344.6226527001709,None,1,0.613183880224824,2.6146803800947964,decreament,0.6,11,standard,None,100,,,,,,,,f,18,212,fr,r,0,raw,2022-05-24_16h34.31.995,oddball,2022.1.2,59.73294594231815,
5,,,,,0,0,0,1,2,0,2,0,29,0,29,0,,,,,,,,,,,,,,,,,344.63878790009767,None,345.32236720016226,345.92281170003116,345.90621030004695,347.9067052002065,None,1,0.6137249800376594,2.614147280342877,decreament,0.6,11,standard,None,100,,,,,,,,f,18,212,fr,r,0,raw,2022-05-24_16h34.31.995,oddball,2022.1.2,59.73294594231815,
5,,,,,0,0,0,1,3,0,3,0,0,0,0,0,,,,,,,,,,,,,,,349.0795602002181,None,349.9408110002987,None,350.6080256998539,351.2078173002228,351.19127319986,353.1918712002225,None,1,0.6097645801492035,2.6103715798817575,increament,0.6,15,standard,None,100,,347.92386600002646,None,,,,,f,18,212,fr,r,0,raw,2022-05-24_16h34.31.995,oddball,2022.1.2,59.73294594231815,
5,,,,,0,0,0,1,3,0,3,0,1,0,1,0,,,,,,,,,,,,,,,,,353.2087189001031,None,353.74284560000524,354.34232890000567,354.3259384999983,356.3267748001963,None,1,0.6098711797967553,2.6107082800008357,increament,0.6,15,standard,None,100,,,,,,,,f,18,212,fr,r,0,raw,2022-05-24_16h34.31.995,oddball,2022.1.2,59.73294594231815,
5,,,,,0,0,0,1,3,0,3,0,2,0,2,0,,,,,,,,,,,,,,,,,356.34478239994496,None,357.01009570015594,357.610464300029,357.5937552000396,359.59440049994737,None,1,0.6136081796139479,2.614278379827738,increament,0.6,15,standard,None,100,,,,,,,,f,18,212,fr,r,0,raw,2022-05-24_16h34.31.995,oddball,2022.1.2,59.73294594231815,
5,,,,,0,0,0,1,3,0,3,0,3,0,3,0,,,,,,,,,,,,,,,,,359.611232300289,None,360.34488540003076,360.94495380017906,360.928324600216,362.92926590004936,None,1,0.6117078796960413,2.612760480027646,increament,0.6,15,standard,None,100,,,,,,,,f,18,212,fr,r,0,raw,2022-05-24_16h34.31.995,oddball,2022.1.2,59.73294594231815,
5,,,,,0,0,0,1,3,0,3,0,4,0,4,0,,,,,,,,,,,,,,,,,362.9457886000164,None,363.7293457998894,364.3294748002663,364.31307950010523,366.31402380019426,None,1,0.614943880122155,2.615976280067116,increament,0.6,15,standard,None,100,,,,,,,,f,18,212,fr,r,0,raw,2022-05-24_16h34.31.995,oddball,2022.1.2,59.73294594231815,
5,,,,,0,0,0,1,3,0,3,0,5,0,5,0,,,,,,,,,,,,,,,,,366.3316970001906,None,367.01398319983855,367.61425109999254,367.5976819000207,369.59817889984697,None,1,0.6130441799759865,2.6134549798443913,increament,0.6,15,standard,None,100,,,,,,,,f,18,212,fr,r,0,raw,2022-05-24_16h34.31.995,oddball,2022.1.2,59.73294594231815,
5,,,,,0,0,0,1,3,0,3,0,6,0,6,0,,,,,,,,,,,,,,,,,369.61478119995445,None,370.33187260013074,370.931914600078,370.9154095998965,372.91650940012187,None,1,0.6132258800789714,2.614364679902792,increament,0.6,15,standard,None,100,,,,,,,,f,18,212,fr,r,0,raw,2022-05-24_16h34.31.995,oddball,2022.1.2,59.73294594231815,
5,,,,,0,0,0,1,3,0,3,0,7,0,7,0,,,,,,,,,,,,,,,,,372.93290559994057,None,373.61691500013694,374.21648989990354,374.19983209995553,376.200637599919,None,1,0.6092012799344957,2.610016679856926,increament,0.6,15,standard,None,100,,,,,,,,f,18,212,fr,r,0,raw,2022-05-24_16h34.31.995,oddball,2022.1.2,59.73294594231815,
5,,,,,0,0,0,1,3,0,3,0,8,0,8,0,,,,,,,,,,,,,,,,,376.21732910024,None,376.8511518999003,377.45126930018887,377.4345483002253,379.43522470025346,None,1,0.6095249806530774,2.6101655806414783,increament,0.6,15,standard,None,100,,,,,,,,f,18,212,fr,r,0,raw,2022-05-24_16h34.31.995,oddball,2022.1.2,59.73294594231815,
5,,,,,0,0,0,1,3,0,3,0,9,0,9,0,,,,,,,,,,,,,,,,,379.4518837002106,None,380.1189445001073,380.7189174001105,380.7023264002055,382.70321429986507,None,1,0.6123620802536607,2.6132928798906505,increament,0.6,15,standard,None,100,,,,,,,,f,18,212,fr,r,0,raw,2022-05-24_16h34.31.995,oddball,2022.1.2,59.73294594231815,
5,,,,,0,0,0,1,3,0,3,0,10,0,10,0,,,,,,,,,,,,,,,,,382.7199480999261,None,383.48694790014997,384.0872343000956,384.07080350024626,386.07113149994984,None,1,0.6118119801394641,2.612059379927814,increament,0.6,15,standard,None,100,,,,,,,,f,18,212,fr,r,0,raw,2022-05-24_16h34.31.995,oddball,2022.1.2,59.73294594231815,
5,,,,,0,0,0,1,3,0,3,0,11,0,11,0,,,,,,,,,,,,,,,,,386.0878266999498,None,386.7382658002898,387.47161170002073,387.43838409986347,389.4392750998959,None,0,0.7262907801195979,2.7272356804460287,increament,0.72,16,oddball,j,120,,,,,,,,f,18,212,fr,r,0,raw,2022-05-24_16h34.31.995,oddball,2022.1.2,59.73294594231815,
5,,,,,0,0,0,1,3,0,3,0,12,0,12,0,,,,,,,,,,,,,,,,,389.4561842000112,None,390.1061113001779,390.7064251000993,390.6895580999553,392.6903349002823,None,1,0.6126304799690843,2.6134515800513327,increament,0.6,15,standard,None,100,,,,,,,,f,18,212,fr,r,0,raw,2022-05-24_16h34.31.995,oddball,2022.1.2,59.73294594231815,
5,,,,,0,0,0,1,3,0,3,0,13,0,13,0,,,,,,,,,,,,,,,,,392.70693990029395,None,393.357124700211,393.95729660009965,393.94081210019067,395.94194809999317,None,1,0.6133417799137533,2.614552279934287,increament,0.6,15,standard,None,100,,,,,,,,f,18,212,fr,r,0,raw,2022-05-24_16h34.31.995,oddball,2022.1.2,59.73294594231815,
5,,,,,0,0,0,1,3,0,3,0,14,0,14,0,,,,,,,,,,,,,,,,,395.9593373001553,None,396.52536199986935,397.125355000142,397.1087249000557,399.10947090014815,None,1,0.6123642800375819,2.6131267799064517,increament,0.6,15,standard,None,100,,,,,,,,f,18,212,fr,r,0,raw,2022-05-24_16h34.31.995,oddball,2022.1.2,59.73294594231815,
5,,,,,0,0,0,1,3,0,3,0,15,0,15,0,,,,,,,,,,,,,,,,,399.12627850007266,None,399.69290030002594,400.660147999879,400.62661379994825,402.62738349987194,j,1,0.9637087797746062,2.9644247801043093,increament,0.96,18,oddball,j,160,0.43471069959923625,,,,,,,f,18,212,fr,r,0,raw,2022-05-24_16h34.31.995,oddball,2022.1.2,59.73294594231815,
5,,,,,0,0,0,1,3,0,3,0,16,0,16,0,,,,,,,,,,,,,,,,,402.6442959001288,None,403.2776784002781,403.87782539986074,403.8612759001553,405.8617409998551,None,1,0.6133439801633358,2.6138063799589872,increament,0.6,15,standard,None,100,,,,,,,,f,18,212,fr,r,0,raw,2022-05-24_16h34.31.995,oddball,2022.1.2,59.73294594231815,
5,,,,,0,0,0,1,3,0,3,0,17,0,17,0,,,,,,,,,,,,,,,,,405.87860530009493,None,406.4289024001919,407.02908390015364,407.0122898002155,409.0133829000406,None,1,0.6123560797423124,2.6134690796025097,increament,0.6,15,standard,None,100,,,,,,,,f,18,212,fr,r,0,raw,2022-05-24_16h34.31.995,oddball,2022.1.2,59.73294594231815,
5,,,,,0,0,0,1,3,0,3,0,18,0,18,0,,,,,,,,,,,,,,,,,409.0297679002397,None,409.6800685999915,410.2801458998583,410.26367689995095,412.2647776999511,None,1,0.6100177797488868,2.611281279940158,increament,0.6,15,standard,None,100,,,,,,,,f,18,212,fr,r,0,raw,2022-05-24_16h34.31.995,oddball,2022.1.2,59.73294594231815,
5,,,,,0,0,0,1,3,0,3,0,19,0,19,0,,,,,,,,,,,,,,,,,412.28103440022096,None,412.89808419998735,413.498014499899,413.4815012002364,415.48196269990876,None,1,0.612016879953444,2.6124314800836146,increament,0.6,15,standard,None,100,,,,,,,,f,18,212,fr,r,0,raw,2022-05-24_16h34.31.995,oddball,2022.1.2,59.73294594231815,
5,,,,,0,0,0,1,3,0,3,0,20,0,20,0,,,,,,,,,,,,,,,,,415.4988514999859,None,416.2491347999312,416.84927090024576,416.83291110023856,418.8336479999125,None,1,0.6129453801549971,2.613711280282587,increament,0.6,15,standard,None,100,,,,,,,,f,18,212,fr,r,0,raw,2022-05-24_16h34.31.995,oddball,2022.1.2,59.73294594231815,
5,,,,,0,0,0,1,3,0,3,0,21,0,21,0,,,,,,,,,,,,,,,,,418.85028919996694,None,419.4008372002281,420.25063969986513,420.2172202002257,422.21869610017166,None,0,0.8445269796065986,2.8460867796093225,increament,0.84,17,oddball,j,140,,,,,,,,f,18,212,fr,r,0,raw,2022-05-24_16h34.31.995,oddball,2022.1.2,59.73294594231815,
5,,,,,0,0,0,1,3,0,3,0,22,0,22,0,,,,,,,,,,,,,,,,,422.2348072002642,None,422.7685150001198,423.3684693002142,423.35197809990495,425.3529274999164,None,1,0.6123534799553454,2.613277480006218,increament,0.6,15,standard,None,100,,,,,,,,f,18,212,fr,r,0,raw,2022-05-24_16h34.31.995,oddball,2022.1.2,59.73294594231815,
5,,,,,0,0,0,1,3,0,3,0,23,0,23,0,,,,,,,,,,,,,,,,,425.3694191998802,None,426.036061800085,426.63651630003005,426.61972870025784,428.6210838002153,None,1,0.6140121798962355,2.615489080082625,increament,0.6,15,standard,None,100,,,,,,,,f,18,212,fr,r,0,raw,2022-05-24_16h34.31.995,oddball,2022.1.2,59.73294594231815,
5,,,,,0,0,0,1,3,0,3,0,24,0,24,0,,,,,,,,,,,,,,,,,428.6373443999328,None,429.2871822998859,429.8874766002409,429.87128560012206,431.87180039985105,None,1,0.6139863794669509,2.614504979457706,increament,0.6,15,standard,None,100,,,,,,,,f,18,212,fr,r,0,raw,2022-05-24_16h34.31.995,oddball,2022.1.2,59.73294594231815,
5,,,,,0,0,0,1,3,0,3,0,25,0,25,0,,,,,,,,,,,,,,,,,431.88837660010904,None,432.5053257001564,433.1056833001785,433.08905640011653,435.08930539991707,None,1,0.612683679908514,2.612871579825878,increament,0.6,15,standard,None,100,,,,,,,,f,18,212,fr,r,0,raw,2022-05-24_16h34.31.995,oddball,2022.1.2,59.73294594231815,
5,,,,,0,0,0,1,3,0,3,0,26,0,26,0,,,,,,,,,,,,,,,,,435.1059353002347,None,435.85677580023184,436.4567467998713,436.4403234999627,438.4408534001559,None,1,0.6127609801478684,2.613307380117476,increament,0.6,15,standard,None,100,,,,,,,,f,18,212,fr,r,0,raw,2022-05-24_16h34.31.995,oddball,2022.1.2,59.73294594231815,
5,,,,,0,0,0,1,3,0,3,0,27,0,27,0,,,,,,,,,,,,,,,,,438.45775419985875,None,439.1247812998481,439.72479399992153,439.7084686001763,441.708726500161,None,1,0.6130915801040828,2.6132942801341414,increament,0.6,15,standard,None,100,,,,,,,,f,18,212,fr,r,0,raw,2022-05-24_16h34.31.995,oddball,2022.1.2,59.73294594231815,
5,,,,,0,0,0,1,3,0,3,0,28,0,28,0,,,,,,,,,,,,,,,,,441.72561990004033,None,442.35925540002063,442.95942620001733,442.94295210018754,444.94360660016537,None,1,0.6109317797236145,2.6116204797290266,increament,0.6,15,standard,None,100,,,,,,,,f,18,212,fr,r,0,raw,2022-05-24_16h34.31.995,oddball,2022.1.2,59.73294594231815,
5,,,,,0,0,0,1,3,0,3,0,29,0,29,0,,,,,,,,,,,,,,,,,444.96066519990563,None,445.56038809986785,446.16044590016827,446.1442646002397,448.1445959000848,None,1,0.6131231803447008,2.6133815804496408,increament,0.6,15,standard,None,100,,,,,,,,f,18,212,fr,r,0,raw,2022-05-24_16h34.31.995,oddball,2022.1.2,59.73294594231815,
5,,,,,0,0,0,1,4,0,4,0,0,0,0,0,,,,,,,,,,,,,,,449.7699994002469,None,451.8294587000273,None,452.49633629992604,453.0967892999761,453.08003610000014,455.08070110017434,None,1,0.6128233806230128,2.6134862801991403,decreament,0.6,11,standard,None,100,,448.1616807002574,None,,,,,f,18,212,fr,r,0,raw,2022-05-24_16h34.31.995,oddball,2022.1.2,59.73294594231815,
5,,,,,0,0,0,1,4,0,4,0,1,0,1,0,,,,,,,,,,,,,,,,,455.09755610022694,None,455.81419890001416,456.4142046002671,456.39764130022377,458.3984885001555,None,1,0.6123836799524724,2.613238879945129,decreament,0.6,11,standard,None,100,,,,,,,,f,18,212,fr,r,0,raw,2022-05-24_16h34.31.995,oddball,2022.1.2,59.73294594231815,
5,,,,,0,0,0,1,4,0,4,0,2,0,2,0,,,,,,,,,,,,,,,,,458.4150128001347,None,458.9988152999431,459.5988941001706,459.5822856002487,461.58286760002375,None,1,0.6124339797534049,2.6129946797154844,decreament,0.6,11,standard,None,100,,,,,,,,f,18,212,fr,r,0,raw,2022-05-24_16h34.31.995,oddball,2022.1.2,59.73294594231815,
5,,,,,0,0,0,1,4,0,4,0,3,0,3,0,,,,,,,,,,,,,,,,,461.5996228000149,None,462.26657860027626,462.8669555000961,462.8503781002946,464.8507810002193,None,1,0.6139968796633184,2.614365679677576,decreament,0.6,11,standard,None,100,,,,,,,,f,18,212,fr,r,0,raw,2022-05-24_16h34.31.995,oddball,2022.1.2,59.73294594231815,
5,,,,,0,0,0,1,4,0,4,0,4,0,4,0,,,,,,,,,,,,,,,,,464.8675791998394,None,465.55130679998547,466.15123029984534,466.13453909987584,468.13516699988395,None,1,0.6112520801834762,2.6118629802949727,decreament,0.6,11,standard,None,100,,,,,,,,f,18,212,fr,r,0,raw,2022-05-24_16h34.31.995,oddball,2022.1.2,59.73294594231815,
5,,,,,0,0,0,1,4,0,4,0,5,0,5,0,,,,,,,,,,,,,,,,,468.1525131003,None,468.869123800192,469.4700481998734,469.45333270030096,471.4534761002287,None,1,0.614105380140245,2.6141762798652053,decreament,0.6,11,standard,None,100,,,,,,,,f,18,212,fr,r,0,raw,2022-05-24_16h34.31.995,oddball,2022.1.2,59.73294594231815,
5,,,,,0,0,0,1,4,0,4,0,6,0,6,0,,,,,,,,,,,,,,,,,471.47016200004146,None,472.1208159001544,472.720761900302,472.70396750001237,474.70497079985216,None,1,0.6105374796316028,2.6116009796969593,decreament,0.6,11,standard,None,100,,,,,,,,f,18,212,fr,r,0,raw,2022-05-24_16h34.31.995,oddball,2022.1.2,59.73294594231815,
5,,,,,0,0,0,1,4,0,4,0,7,0,7,0,,,,,,,,,,,,,,,,,474.7217055000365,None,475.53838729998097,476.13850180013105,476.12241470022127,478.12281109998,None,1,0.6134972800500691,2.6138764801435173,decreament,0.6,11,standard,None,100,,,,,,,,f,18,212,fr,r,0,raw,2022-05-24_16h34.31.995,oddball,2022.1.2,59.73294594231815,
5,,,,,0,0,0,1,4,0,4,0,8,0,8,0,,,,,,,,,,,,,,,,,478.139666300267,None,478.7734412001446,479.37324670003727,479.3563689002767,481.357345700264,None,1,0.6103952801786363,2.61142307985574,decreament,0.6,11,standard,None,100,,,,,,,,f,18,212,fr,r,0,raw,2022-05-24_16h34.31.995,oddball,2022.1.2,59.73294594231815,
5,,,,,0,0,0,1,4,0,4,0,9,0,9,0,,,,,,,,,,,,,,,,,481.373964600265,None,481.9572737002745,482.5578061998822,482.5413134000264,484.54178810026497,None,1,0.6147771799005568,2.615218780003488,decreament,0.6,11,standard,None,100,,,,,,,,f,18,212,fr,r,0,raw,2022-05-24_16h34.31.995,oddball,2022.1.2,59.73294594231815,
5,,,,,0,0,0,1,4,0,4,0,10,0,10,0,,,,,,,,,,,,,,,,,484.5584733998403,None,485.3086013002321,485.79215259989724,485.7591887000017,487.7596800001338,None,0,0.47922257985919714,2.479656680021435,decreament,0.48,14,oddball,j,80,,,,,,,,f,18,212,fr,r,0,raw,2022-05-24_16h34.31.995,oddball,2022.1.2,59.73294594231815,
5,,,,,0,0,0,1,4,0,4,0,11,0,11,0,,,,,,,,,,,,,,,,,487.7764973002486,None,488.4270783001557,489.0269029000774,489.01007289998233,491.01109070004895,None,1,0.6093145799823105,2.6103751799091697,decreament,0.6,11,standard,None,100,,,,,,,,f,18,212,fr,r,0,raw,2022-05-24_16h34.31.995,oddball,2022.1.2,59.73294594231815,
5,,,,,0,0,0,1,4,0,4,0,12,0,12,0,,,,,,,,,,,,,,,,,491.02784219989553,None,491.62774290004745,492.22835509991273,492.21177930012345,494.21235250029713,None,1,0.6138591798953712,2.614425779785961,decreament,0.6,11,standard,None,100,,,,,,,,f,18,212,fr,r,0,raw,2022-05-24_16h34.31.995,oddball,2022.1.2,59.73294594231815,
5,,,,,0,0,0,1,4,0,4,0,13,0,13,0,,,,,,,,,,,,,,,,,494.2288621002808,None,495.0624408000149,495.66264019999653,495.6459337999113,497.64717969996855,None,1,0.6101085799746215,2.6114424797706306,decreament,0.6,11,standard,None,100,,,,,,,,f,18,212,fr,r,0,raw,2022-05-24_16h34.31.995,oddball,2022.1.2,59.73294594231815,
5,,,,,0,0,0,1,4,0,4,0,14,0,14,0,,,,,,,,,,,,,,,,,497.66322949994355,None,498.43037139996886,499.0308362999931,499.01399199990556,501.0142168002203,None,1,0.6095127798616886,2.609671679791063,decreament,0.6,11,standard,None,100,,,,,,,,f,18,212,fr,r,0,raw,2022-05-24_16h34.31.995,oddball,2022.1.2,59.73294594231815,
5,,,,,0,0,0,1,4,0,4,0,15,0,15,0,,,,,,,,,,,,,,,,,501.03090339992195,None,501.6148661999032,502.21514789992943,502.1986481999047,504.1996662002057,None,1,0.6140396799892187,2.615041880402714,decreament,0.6,11,standard,None,100,,,,,,,,f,18,212,fr,r,0,raw,2022-05-24_16h34.31.995,oddball,2022.1.2,59.73294594231815,
5,,,,,0,0,0,1,4,0,4,0,16,0,16,0,,,,,,,,,,,,,,,,,504.2161194002256,None,504.84953110013157,505.44943880010396,505.43298850022256,507.4342465000227,j,0,0.6124224802479148,2.6137536806054413,decreament,0.6,11,standard,None,100,0.7889400999993086,,,,,,,f,18,212,fr,r,0,raw,2022-05-24_16h34.31.995,oddball,2022.1.2,59.73294594231815,
5,,,,,0,0,0,1,4,0,4,0,17,0,17,0,,,,,,,,,,,,,,,,,507.45031070010737,None,508.0840921001509,508.33396330010146,508.3006918998435,510.30153870023787,j,1,0.24424787983298302,2.2450628797523677,decreament,0.24,12,oddball,j,40,0.43207470001652837,,,,,,,f,18,212,fr,r,0,raw,2022-05-24_16h34.31.995,oddball,2022.1.2,59.73294594231815,
5,,,,,0,0,0,1,4,0,4,0,18,0,18,0,,,,,,,,,,,,,,,,,510.3180090999231,None,510.93519069999456,511.5355585999787,511.5185604998842,513.5197729002684,None,1,0.6094429800286889,2.610711180139333,decreament,0.6,11,standard,None,100,,,,,,,,f,18,212,fr,r,0,raw,2022-05-24_16h34.31.995,oddball,2022.1.2,59.73294594231815,
5,,,,,0,0,0,1,4,0,4,0,19,0,19,0,,,,,,,,,,,,,,,,,513.5368993002921,None,514.1531345001422,514.7538423002698,514.7368780001998,516.7373269000091,None,1,0.6080633802339435,2.6084491801448166,decreament,0.6,11,standard,None,100,,,,,,,,f,18,212,fr,r,0,raw,2022-05-24_16h34.31.995,oddball,2022.1.2,59.73294594231815,
5,,,,,0,0,0,1,4,0,4,0,20,0,20,0,,,,,,,,,,,,,,,,,516.7541403002106,None,517.4044797001407,518.0042786998674,517.9877476999536,519.9886153000407,None,1,0.6095525794662535,2.610470079816878,decreament,0.6,11,standard,None,100,,,,,,,,f,18,212,fr,r,0,raw,2022-05-24_16h34.31.995,oddball,2022.1.2,59.73294594231815,
5,,,,,0,0,0,1,4,0,4,0,21,0,21,0,,,,,,,,,,,,,,,,,520.0049012000673,None,520.6389381000772,521.2390724001452,521.2227072999813,523.2233830001205,None,1,0.6107785799540579,2.611439779866487,decreament,0.6,11,standard,None,100,,,,,,,,f,18,212,fr,r,0,raw,2022-05-24_16h34.31.995,oddball,2022.1.2,59.73294594231815,
5,,,,,0,0,0,1,4,0,4,0,22,0,22,0,,,,,,,,,,,,,,,,,523.2398133999668,None,523.7897951998748,524.390209400095,524.373539400287,526.3747697002254,None,1,0.6142999799922109,2.615633579902351,decreament,0.6,11,standard,None,100,,,,,,,,f,18,212,fr,r,0,raw,2022-05-24_16h34.31.995,oddball,2022.1.2,59.73294594231815,
5,,,,,0,0,0,1,4,0,4,0,23,0,23,0,,,,,,,,,,,,,,,,,526.390863600187,None,527.1582003999501,527.5245910999365,527.4915911001153,529.4922706000507,j,1,0.3607876803725958,2.361430080141872,decreament,0.36,13,oddball,j,60,0.9543480998836458,,,,,,,f,18,212,fr,r,0,raw,2022-05-24_16h34.31.995,oddball,2022.1.2,59.73294594231815,
5,,,,,0,0,0,1,4,0,4,0,24,0,24,0,,,,,,,,,,,,,,,,,529.5090860999189,None,530.192698400002,530.7928023999557,530.7760053998791,532.7766502001323,None,1,0.611935880035162,2.61261428007856,decreament,0.6,11,standard,None,100,,,,,,,,f,18,212,fr,r,0,raw,2022-05-24_16h34.31.995,oddball,2022.1.2,59.73294594231815,
5,,,,,0,0,0,1,4,0,4,0,25,0,25,0,,,,,,,,,,,,,,,,,532.7934277001768,None,533.3936997000128,533.994036400225,533.9775709002279,535.9780007000081,None,1,0.6138487802818418,2.614232880063355,decreament,0.6,11,standard,None,100,,,,,,,,f,18,212,fr,r,0,raw,2022-05-24_16h34.31.995,oddball,2022.1.2,59.73294594231815,
5,,,,,0,0,0,1,4,0,4,0,26,0,26,0,,,,,,,,,,,,,,,,,535.9948486001231,None,536.5615584002808,537.1617244002409,537.1450046002865,539.1459931000136,None,1,0.6126531800255179,2.613663279917091,decreament,0.6,11,standard,None,100,,,,,,,,f,18,212,fr,r,0,raw,2022-05-24_16h34.31.995,oddball,2022.1.2,59.73294594231815,
5,,,,,0,0,0,1,4,0,4,0,27,0,27,0,,,,,,,,,,,,,,,,,539.1625593998469,None,539.9294545999728,540.5296570002101,540.513287300244,542.5137449000031,None,1,0.6119153797626495,2.612310079857707,decreament,0.6,11,standard,None,100,,,,,,,,f,18,212,fr,r,0,raw,2022-05-24_16h34.31.995,oddball,2022.1.2,59.73294594231815,
5,,,,,0,0,0,1,4,0,4,0,28,0,28,0,,,,,,,,,,,,,,,,,542.5306612001732,None,543.0807560998946,543.680716200266,543.6639966000803,545.6651869001798,None,1,0.6085893800482154,2.609811880160123,decreament,0.6,11,standard,None,100,,,,,,,,f,18,212,fr,r,0,raw,2022-05-24_16h34.31.995,oddball,2022.1.2,59.73294594231815,
5,,,,,0,0,0,1,4,0,4,0,29,0,29,0,,,,,,,,,,,,,,,,,545.6818025000393,None,546.5152255999856,547.1156930001453,547.09897739999,549.0999869001098,None,1,0.6136148800142109,2.6146215801127255,decreament,0.6,11,standard,None,100,,,,,,,,f,18,212,fr,r,0,raw,2022-05-24_16h34.31.995,oddball,2022.1.2,59.73294594231815,
5,,,,,0,0,0,1,5,0,5,0,0,0,0,0,,,,,,,,,,,,,,,559.4601465999149,None,560.937553500291,None,561.5207567000762,562.1213752999902,562.104955600109,564.1052175001241,None,1,0.614840580150485,2.6150452801957726,increament,0.6,15,standard,None,100,,549.1178967002779,None,,,,,f,18,212,fr,r,0,raw,2022-05-24_16h34.31.995,oddball,2022.1.2,59.73294594231815,
5,,,,,0,0,0,1,5,0,5,0,1,0,1,0,,,,,,,,,,,,,,,,,564.1220557000488,None,564.77248220006,565.3724505999126,565.355699500069,567.3564559998922,None,1,0.6091833799146116,2.6099424799904227,increament,0.6,15,standard,None,100,,,,,,,,f,18,212,fr,r,0,raw,2022-05-24_16h34.31.995,oddball,2022.1.2,59.73294594231815,
5,,,,,0,0,0,1,5,0,5,0,2,0,2,0,,,,,,,,,,,,,,,,,567.3731956002302,None,567.9903703001328,568.5903000999242,568.5735053000972,570.5743384002708,None,1,0.6118635800667107,2.6126961801201105,increament,0.6,15,standard,None,100,,,,,,,,f,18,212,fr,r,0,raw,2022-05-24_16h34.31.995,oddball,2022.1.2,59.73294594231815,
5,,,,,0,0,0,1,5,0,5,0,3,0,3,0,,,,,,,,,,,,,,,,,570.5908911000006,None,571.2246198998764,571.8247612998821,571.8081720001064,573.8091345001012,None,1,0.6128091802820563,2.613843080122024,increament,0.6,15,standard,None,100,,,,,,,,f,18,212,fr,r,0,raw,2022-05-24_16h34.31.995,oddball,2022.1.2,59.73294594231815,
5,,,,,0,0,0,1,5,0,5,0,4,0,4,0,,,,,,,,,,,,,,,,,573.8257650998421,None,574.492986400146,575.0927205001935,575.0762279001065,577.0766936000437,None,1,0.6106653795577586,2.6110784797929227,increament,0.6,15,standard,None,100,,,,,,,,f,18,212,fr,r,0,raw,2022-05-24_16h34.31.995,oddball,2022.1.2,59.73294594231815,
5,,,,,0,0,0,1,5,0,5,0,5,0,5,0,,,,,,,,,,,,,,,,,577.0936305001378,None,577.7602539998479,578.3606298002414,578.3438478000462,580.344430600293,None,1,0.6132398801855743,2.6137900799512863,increament,0.6,15,standard,None,100,,,,,,,,f,18,212,fr,r,0,raw,2022-05-24_16h34.31.995,oddball,2022.1.2,59.73294594231815,
5,,,,,0,0,0,1,5,0,5,0,6,0,6,0,,,,,,,,,,,,,,,,,580.3611039998941,None,580.8785097999498,581.7283550999127,581.695408700034,583.6961157000624,None,0,0.8427604800090194,2.8435208797454834,increament,0.84,17,oddball,j,140,,,,,,,,f,18,212,fr,r,0,raw,2022-05-24_16h34.31.995,oddball,2022.1.2,59.73294594231815,
5,,,,,0,0,0,1,5,0,5,0,7,0,7,0,,,,,,,,,,,,,,,,,583.7128397002816,None,584.346669500228,584.9470132999122,584.9298878000118,586.9304554001428,None,1,0.6106590800918639,2.6111800796352327,increament,0.6,15,standard,None,100,,,,,,,,f,18,212,fr,r,0,raw,2022-05-24_16h34.31.995,oddball,2022.1.2,59.73294594231815,
5,,,,,0,0,0,1,5,0,5,0,8,0,8,0,,,,,,,,,,,,,,,,,586.9471108000726,None,587.614155900199,588.2148890001699,588.1980345998891,590.1984488000162,None,1,0.6121008801274002,2.6124032801017165,increament,0.6,15,standard,None,100,,,,,,,,f,18,212,fr,r,0,raw,2022-05-24_16h34.31.995,oddball,2022.1.2,59.73294594231815,
5,,,,,0,0,0,1,5,0,5,0,9,0,9,0,,,,,,,,,,,,,,,,,590.215084400028,None,590.8988788998686,591.4988116999157,591.4831198998727,593.4831651002169,None,1,0.6108485800214112,2.610431579872966,increament,0.6,15,standard,None,100,,,,,,,,f,18,212,fr,r,0,raw,2022-05-24_16h34.31.995,oddball,2022.1.2,59.73294594231815,
5,,,,,0,0,0,1,5,0,5,0,10,0,10,0,,,,,,,,,,,,,,,,,593.4997014002874,None,594.0498164002784,595.0171210998669,594.9836455001496,596.9843092001975,j,1,0.9642709796316922,2.964942479506135,increament,0.96,18,oddball,j,160,0.42950679967179894,,,,,,,f,18,212,fr,r,0,raw,2022-05-24_16h34.31.995,oddball,2022.1.2,59.73294594231815,
5,,,,,0,0,0,1,5,0,5,0,11,0,11,0,,,,,,,,,,,,,,,,,597.0011964999139,None,597.6515338001773,598.2517144000158,598.2348611000925,600.2358125001192,None,1,0.6096525802277029,2.6106004803441465,increament,0.6,15,standard,None,100,,,,,,,,f,18,212,fr,r,0,raw,2022-05-24_16h34.31.995,oddball,2022.1.2,59.73294594231815,
5,,,,,0,0,0,1,5,0,5,0,12,0,12,0,,,,,,,,,,,,,,,,,600.2523353998549,None,600.9193489998579,601.5195030001923,601.5029159002006,603.5037813000381,None,1,0.6107887797988951,2.6117193796671927,increament,0.6,15,standard,None,100,,,,,,,,f,18,212,fr,r,0,raw,2022-05-24_16h34.31.995,oddball,2022.1.2,59.73294594231815,
5,,,,,0,0,0,1,5,0,5,0,13,0,13,0,,,,,,,,,,,,,,,,,603.5204916000366,None,604.2703356002457,604.8707158998586,604.8544819001108,606.8548401999287,None,1,0.6146736801601946,2.6149426801130176,increament,0.6,15,standard,None,100,,,,,,,,f,18,212,fr,r,0,raw,2022-05-24_16h34.31.995,oddball,2022.1.2,59.73294594231815,
5,,,,,0,0,0,1,5,0,5,0,14,0,14,0,,,,,,,,,,,,,,,,,606.8718520998955,None,607.3882817002013,607.9885309999809,607.9719751998782,609.9726801998913,None,1,0.6122427806258202,2.6129486802965403,increament,0.6,15,standard,None,100,,,,,,,,f,18,212,fr,r,0,raw,2022-05-24_16h34.31.995,oddball,2022.1.2,59.73294594231815,
5,,,,,0,0,0,1,5,0,5,0,15,0,15,0,,,,,,,,,,,,,,,,,609.9892254001461,None,610.5891221999191,611.1898512998596,611.156490100082,613.1569504002109,None,1,0.5993361799046397,2.599742279853672,increament,0.6,15,standard,None,100,,,,,,,,f,18,212,fr,r,0,raw,2022-05-24_16h34.31.995,oddball,2022.1.2,59.73294594231815,
5,,,,,0,0,0,1,5,0,5,0,16,0,16,0,,,,,,,,,,,,,,,,,613.1739264000207,None,613.8242926001549,614.4245058000088,614.4079446000978,616.4083676999435,None,1,0.6095531801693141,2.6099326801486313,increament,0.6,15,standard,None,100,,,,,,,,f,18,212,fr,r,0,raw,2022-05-24_16h34.31.995,oddball,2022.1.2,59.73294594231815,
5,,,,,0,0,0,1,5,0,5,0,17,0,17,0,,,,,,,,,,,,,,,,,616.4251341000199,None,617.1587050999515,617.7587554999627,617.7422819002531,619.7433275999501,None,1,0.6123468796722591,2.613451679702848,increament,0.6,15,standard,None,100,,,,,,,,f,18,212,fr,r,0,raw,2022-05-24_16h34.31.995,oddball,2022.1.2,59.73294594231815,
5,,,,,0,0,0,1,5,0,5,0,18,0,18,0,,,,,,,,,,,,,,,,,619.7601314000785,None,620.4435638999566,621.0437815999612,621.0272957002744,623.0275920000859,None,1,0.6127915801480412,2.613060380332172,increament,0.6,15,standard,None,100,,,,,,,,f,18,212,fr,r,0,raw,2022-05-24_16h34.31.995,oddball,2022.1.2,59.73294594231815,
5,,,,,0,0,0,1,5,0,5,0,19,0,19,0,,,,,,,,,,,,,,,,,623.0444387001917,None,623.6116217998788,624.2119193002582,624.1948871002533,626.195349200163,None,1,0.6098279799334705,2.6102194800041616,increament,0.6,15,standard,None,100,,,,,,,,f,18,212,fr,r,0,raw,2022-05-24_16h34.31.995,oddball,2022.1.2,59.73294594231815,
5,,,,,0,0,0,1,5,0,5,0,20,0,20,0,,,,,,,,,,,,,,,,,626.2121296999976,None,626.8792611001991,627.4795649000444,627.4627487999387,629.4630523002706,None,1,0.6095508798025548,2.6098258798010647,increament,0.6,15,standard,None,100,,,,,,,,f,18,212,fr,r,0,raw,2022-05-24_16h34.31.995,oddball,2022.1.2,59.73294594231815,
5,,,,,0,0,0,1,5,0,5,0,21,0,21,0,,,,,,,,,,,,,,,,,629.4797725002281,None,630.0635071001016,630.6638438999653,630.6472670999356,632.6477719000541,None,1,0.6123368805274367,2.6128286803141236,increament,0.6,15,standard,None,100,,,,,,,,f,18,212,fr,r,0,raw,2022-05-24_16h34.31.995,oddball,2022.1.2,59.73294594231815,
5,,,,,0,0,0,1,5,0,5,0,22,0,22,0,,,,,,,,,,,,,,,,,632.6643965998664,None,633.4816842,634.0817308998667,634.0649108001962,636.0658102002926,None,1,0.6107251802459359,2.611645680386573,increament,0.6,15,standard,None,100,,,,,,,,f,18,212,fr,r,0,raw,2022-05-24_16h34.31.995,oddball,2022.1.2,59.73294594231815,
5,,,,,0,0,0,1,5,0,5,0,23,0,23,0,,,,,,,,,,,,,,,,,636.0826631002128,None,636.649557299912,637.2496726000682,637.2333042998798,639.2338923001662,None,1,0.6128586796112359,2.613480279687792,increament,0.6,15,standard,None,100,,,,,,,,f,18,212,fr,r,0,raw,2022-05-24_16h34.31.995,oddball,2022.1.2,59.73294594231815,
5,,,,,0,0,0,1,5,0,5,0,24,0,24,0,,,,,,,,,,,,,,,,,639.2502905000001,None,639.8170532002114,640.4176707002334,640.4011181001551,642.4018251001835,None,1,0.6137951798737049,2.614478179719299,increament,0.6,15,standard,None,100,,,,,,,,f,18,212,fr,r,0,raw,2022-05-24_16h34.31.995,oddball,2022.1.2,59.73294594231815,
5,,,,,0,0,0,1,5,0,5,0,25,0,25,0,,,,,,,,,,,,,,,,,642.4185313000344,None,642.9850484998897,643.7185940998606,643.6854439000599,645.6860322002321,None,0,0.7288720798678696,2.7294506803154945,increament,0.72,16,oddball,j,120,,,,,,,,f,18,212,fr,r,0,raw,2022-05-24_16h34.31.995,oddball,2022.1.2,59.73294594231815,
5,,,,,0,0,0,1,5,0,5,0,26,0,26,0,,,,,,,,,,,,,,,,,645.7030406999402,None,646.4531196998432,647.0535484999418,647.0368890999816,649.0373232001439,None,1,0.6129006799310446,2.613271180074662,increament,0.6,15,standard,None,100,,,,,,,,f,18,212,fr,r,0,raw,2022-05-24_16h34.31.995,oddball,2022.1.2,59.73294594231815,
5,,,,,0,0,0,1,5,0,5,0,27,0,27,0,,,,,,,,,,,,,,,,,649.0542186000384,None,649.7712040999904,650.3710270999,650.3545324001461,652.3553800000809,None,1,0.610944879706949,2.61182898003608,increament,0.6,15,standard,None,100,,,,,,,,f,18,212,fr,r,0,raw,2022-05-24_16h34.31.995,oddball,2022.1.2,59.73294594231815,
5,,,,,0,0,0,1,5,0,5,0,28,0,28,0,,,,,,,,,,,,,,,,,652.3720924002118,None,652.9892684998922,653.589155500289,653.5724857999012,655.5736002000049,None,1,0.6081797801889479,2.6094129802659154,increament,0.6,15,standard,None,100,,,,,,,,f,18,212,fr,r,0,raw,2022-05-24_16h34.31.995,oddball,2022.1.2,59.73294594231815,
5,,,,,0,0,0,1,5,0,5,0,29,0,29,0,,,,,,,,,,,,,,,,,655.5901731001213,None,656.2236887002364,656.8236765000038,656.8068663999438,658.807695100084,None,1,0.6128097795881331,2.6136634796857834,increament,0.6,15,standard,None,100,,,,,,,,f,18,212,fr,r,0,raw,2022-05-24_16h34.31.995,oddball,2022.1.2,59.73294594231815,
5,,,,,0,0,0,1,6,0,6,0,0,0,0,0,,,,,,,,,,,,,,,662.3154071001336,None,664.059925199952,None,664.7099295002408,665.3100208002143,665.2935728998855,667.294424300082,None,1,0.6118344799615443,2.612756779883057,decreament,0.6,11,standard,None,100,,658.8247719998471,None,,,,,f,18,212,fr,r,0,raw,2022-05-24_16h34.31.995,oddball,2022.1.2,59.73294594231815,
5,,,,,0,0,0,1,6,0,6,0,1,0,1,0,,,,,,,,,,,,,,,,,667.3110170001164,None,667.8948580999859,668.4949810001999,668.4784702002071,670.479375500232,None,1,0.609477779828012,2.610443079844117,decreament,0.6,11,standard,None,100,,,,,,,,f,18,212,fr,r,0,raw,2022-05-24_16h34.31.995,oddball,2022.1.2,59.73294594231815,
5,,,,,0,0,0,1,6,0,6,0,2,0,2,0,,,,,,,,,,,,,,,,,670.4955032998696,None,671.0122070000507,671.6126621002331,671.5963242999278,673.5970020000823,None,1,0.6141456798650324,2.6148203797638416,decreament,0.6,11,standard,None,100,,,,,,,,f,18,212,fr,r,0,raw,2022-05-24_16h34.31.995,oddball,2022.1.2,59.73294594231815,
5,,,,,0,0,0,1,6,0,6,0,3,0,3,0,,,,,,,,,,,,,,,,,673.613974200096,None,674.214021100197,674.8140079001896,674.7975381002761,676.7979855998419,None,1,0.608688180334866,2.6090927803888917,decreament,0.6,11,standard,None,100,,,,,,,,f,18,212,fr,r,0,raw,2022-05-24_16h34.31.995,oddball,2022.1.2,59.73294594231815,
5,,,,,0,0,0,1,6,0,6,0,4,0,4,0,,,,,,,,,,,,,,,,,676.814637800213,None,677.4313721000217,678.031944300048,678.0151070002466,680.01586400019,None,1,0.6126533797942102,2.6133897798135877,decreament,0.6,11,standard,None,100,,,,,,,,f,18,212,fr,r,0,raw,2022-05-24_16h34.31.995,oddball,2022.1.2,59.73294594231815,
5,,,,,0,0,0,1,6,0,6,0,5,0,5,0,,,,,,,,,,,,,,,,,680.0326495002955,None,680.8662959001958,681.3495225002989,681.3331474000588,683.3335969001055,None,0,0.4940385799854994,2.4944436801597476,decreament,0.48,14,oddball,j,80,,,,,,,,f,18,212,fr,r,0,raw,2022-05-24_16h34.31.995,oddball,2022.1.2,59.73294594231815,
5,,,,,0,0,0,1,6,0,6,0,6,0,6,0,,,,,,,,,,,,,,,,,683.3505406002514,None,684.0007847999223,684.60087929992,684.5842393999919,686.5848534000106,None,1,0.6095444797538221,2.6101654800586402,decreament,0.6,11,standard,None,100,,,,,,,,f,18,212,fr,r,0,raw,2022-05-24_16h34.31.995,oddball,2022.1.2,59.73294594231815,
5,,,,,0,0,0,1,6,0,6,0,7,0,7,0,,,,,,,,,,,,,,,,,686.6018405002542,None,687.4020098000765,688.0021458999254,687.9856501002796,689.9864032999612,None,1,0.6138607799075544,2.614482579752803,decreament,0.6,11,standard,None,100,,,,,,,,f,18,212,fr,r,0,raw,2022-05-24_16h34.31.995,oddball,2022.1.2,59.73294594231815,
5,,,,,0,0,0,1,6,0,6,0,8,0,8,0,,,,,,,,,,,,,,,,,690.0031909001991,None,690.5865857000463,691.1864958000369,691.1698849000968,693.1709904000163,None,1,0.6102576795965433,2.611440979409963,decreament,0.6,11,standard,None,100,,,,,,,,f,18,212,fr,r,0,raw,2022-05-24_16h34.31.995,oddball,2022.1.2,59.73294594231815,
5,,,,,0,0,0,1,6,0,6,0,9,0,9,0,,,,,,,,,,,,,,,,,693.1881102998741,None,693.804752800148,694.4045541002415,694.3877706001513,696.3885734002106,None,1,0.6103304801508784,2.6111422800458968,decreament,0.6,11,standard,None,100,,,,,,,,f,18,212,fr,r,0,raw,2022-05-24_16h34.31.995,oddball,2022.1.2,59.73294594231815,
5,,,,,0,0,0,1,6,0,6,0,10,0,10,0,,,,,,,,,,,,,,,,,696.4053058000281,None,697.1390682999045,697.7390518998727,697.7224642001092,699.7231868999079,None,1,0.6112341796979308,2.6119981799274683,decreament,0.6,11,standard,None,100,,,,,,,,f,18,212,fr,r,0,raw,2022-05-24_16h34.31.995,oddball,2022.1.2,59.73294594231815,
5,,,,,0,0,0,1,6,0,6,0,11,0,11,0,,,,,,,,,,,,,,,,,699.7399848001078,None,700.290150300134,700.8902253000997,700.8737106998451,702.8743509002961,None,1,0.6097889798693359,2.610479979775846,decreament,0.6,11,standard,None,100,,,,,,,,f,18,212,fr,r,0,raw,2022-05-24_16h34.31.995,oddball,2022.1.2,59.73294594231815,
5,,,,,0,0,0,1,6,0,6,0,12,0,12,0,,,,,,,,,,,,,,,,,702.8912169001997,None,703.4415178000927,704.0414741002023,704.0253920000978,706.0255423001945,None,1,0.6119142803363502,2.611995780374855,decreament,0.6,11,standard,None,100,,,,,,,,f,18,212,fr,r,0,raw,2022-05-24_16h34.31.995,oddball,2022.1.2,59.73294594231815,
5,,,,,0,0,0,1,6,0,6,0,13,0,13,0,,,,,,,,,,,,,,,,,706.0423401002772,None,706.8762334999628,707.4760934002697,707.4595789001323,709.4601409998722,None,1,0.6118921795859933,2.612416679505259,decreament,0.6,11,standard,None,100,,,,,,,,f,18,212,fr,r,0,raw,2022-05-24_16h34.31.995,oddball,2022.1.2,59.73294594231815,
5,,,,,0,0,0,1,6,0,6,0,14,0,14,0,,,,,,,,,,,,,,,,,709.476786899846,None,710.1435703998432,710.7440885002725,710.7272741999477,712.7281909002922,None,1,0.6133662797510624,2.61432788008824,decreament,0.6,11,standard,None,100,,,,,,,,f,18,212,fr,r,0,raw,2022-05-24_16h34.31.995,oddball,2022.1.2,59.73294594231815,
5,,,,,0,0,0,1,6,0,6,0,15,0,15,0,,,,,,,,,,,,,,,,,712.7449647001922,None,713.5120931002311,714.1119651999325,714.0957253999077,716.0965060000308,None,1,0.6125615802593529,2.6135917804203928,decreament,0.6,11,standard,None,100,,,,,,,,f,18,212,fr,r,0,raw,2022-05-24_16h34.31.995,oddball,2022.1.2,59.73294594231815,
5,,,,,0,0,0,1,6,0,6,0,16,0,16,0,,,,,,,,,,,,,,,,,716.1142513002269,None,716.796614299994,717.3965072999708,717.3799053998664,719.3810331998393,None,1,0.6125264796428382,2.613756679929793,decreament,0.6,11,standard,None,100,,,,,,,,f,18,212,fr,r,0,raw,2022-05-24_16h34.31.995,oddball,2022.1.2,59.73294594231815,
5,,,,,0,0,0,1,6,0,6,0,17,0,17,0,,,,,,,,,,,,,,,,,719.3972864998505,None,720.0810429998673,720.6810991000384,720.6646004999056,722.6655259998515,None,1,0.6132786800153553,2.6142518799751997,decreament,0.6,11,standard,None,100,,,,,,,,f,18,212,fr,r,0,raw,2022-05-24_16h34.31.995,oddball,2022.1.2,59.73294594231815,
5,,,,,0,0,0,1,6,0,6,0,18,0,18,0,,,,,,,,,,,,,,,,,722.6820013001561,None,723.3157720998861,723.9156587002799,723.8990544001572,725.9002932002768,None,1,0.611040280200541,2.61234098020941,decreament,0.6,11,standard,None,100,,,,,,,,f,18,212,fr,r,0,raw,2022-05-24_16h34.31.995,oddball,2022.1.2,59.73294594231815,
5,,,,,0,0,0,1,6,0,6,0,19,0,19,0,,,,,,,,,,,,,,,,,725.9165428001434,None,726.5004850998521,726.7500658002682,726.7168604000472,728.7179148001596,j,1,0.24211737979203463,2.243243979755789,decreament,0.24,12,oddball,j,40,0.5118387998081744,,,,,,,f,18,212,fr,r,0,raw,2022-05-24_16h34.31.995,oddball,2022.1.2,59.73294594231815,
5,,,,,0,0,0,1,6,0,6,0,20,0,20,0,,,,,,,,,,,,,,,,,728.734529600013,None,729.601330100093,730.2015454000793,730.1846870998852,732.1857154001482,None,1,0.6123761804774404,2.6134494803845882,decreament,0.6,11,standard,None,100,,,,,,,,f,18,212,fr,r,0,raw,2022-05-24_16h34.31.995,oddball,2022.1.2,59.73294594231815,
5,,,,,0,0,0,1,6,0,6,0,21,0,21,0,,,,,,,,,,,,,,,,,732.2024832000025,None,733.0529340999201,733.6527158999816,733.6359279998578,735.6366218002513,None,1,0.6120349802076817,2.6127084800973535,decreament,0.6,11,standard,None,100,,,,,,,,f,18,212,fr,r,0,raw,2022-05-24_16h34.31.995,oddball,2022.1.2,59.73294594231815,
5,,,,,0,0,0,1,6,0,6,0,22,0,22,0,,,,,,,,,,,,,,,,,735.6532334000804,None,736.1870702002198,736.7869100002572,736.7704050000757,738.7716477001086,None,1,0.6131611801683903,2.614450680091977,decreament,0.6,11,standard,None,100,,,,,,,,f,18,212,fr,r,0,raw,2022-05-24_16h34.31.995,oddball,2022.1.2,59.73294594231815,
5,,,,,0,0,0,1,6,0,6,0,23,0,23,0,,,,,,,,,,,,,,,,,738.7880424000323,None,739.3879162999801,739.755072500091,739.7217208002694,741.7225623000413,j,1,0.36493927985429764,2.3658037800341845,decreament,0.36,13,oddball,j,60,0.5954431998543441,,,,,,,f,18,212,fr,r,0,raw,2022-05-24_16h34.31.995,oddball,2022.1.2,59.73294594231815,
5,,,,,0,0,0,1,6,0,6,0,24,0,24,0,,,,,,,,,,,,,,,,,741.7394730001688,None,742.3060367000289,742.9062354001217,742.8898808001541,744.8909068000503,None,1,0.6109955799765885,2.6120333801954985,decreament,0.6,11,standard,None,100,,,,,,,,f,18,212,fr,r,0,raw,2022-05-24_16h34.31.995,oddball,2022.1.2,59.73294594231815,
5,,,,,0,0,0,1,6,0,6,0,25,0,25,0,,,,,,,,,,,,,,,,,744.9073455999605,None,745.6406124001369,746.2407626998611,746.2243635002524,748.2249074000865,None,1,0.6124049797654152,2.612971779424697,decreament,0.6,11,standard,None,100,,,,,,,,f,18,212,fr,r,0,raw,2022-05-24_16h34.31.995,oddball,2022.1.2,59.73294594231815,
5,,,,,0,0,0,1,6,0,6,0,26,0,26,0,,,,,,,,,,,,,,,,,748.241771100089,None,749.0086103002541,749.6089065000415,749.5922052999958,751.5929813999683,None,1,0.6093627801164985,2.6101601803675294,decreament,0.6,11,standard,None,100,,,,,,,,f,18,212,fr,r,0,raw,2022-05-24_16h34.31.995,oddball,2022.1.2,59.73294594231815,
5,,,,,0,0,0,1,6,0,6,0,27,0,27,0,,,,,,,,,,,,,,,,,751.6095222001895,None,752.3266435000114,752.9266392001882,752.9100386998616,754.9111933000386,None,1,0.6112340800464153,2.6124586798250675,decreament,0.6,11,standard,None,100,,,,,,,,f,18,212,fr,r,0,raw,2022-05-24_16h34.31.995,oddball,2022.1.2,59.73294594231815,
5,,,,,0,0,0,1,6,0,6,0,28,0,28,0,,,,,,,,,,,,,,,,,754.9276208998635,None,755.6445165001787,756.2445884002373,756.2279173000716,758.2289141002111,None,1,0.6102666798979044,2.6113416799344122,decreament,0.6,11,standard,None,100,,,,,,,,f,18,212,fr,r,0,raw,2022-05-24_16h34.31.995,oddball,2022.1.2,59.73294594231815,
5,,,,,0,0,0,1,6,0,6,0,29,0,29,0,,,,,,,,,,,,,,,,,758.2462821998633,None,758.8289601001889,759.4295495999977,759.4127623001114,761.4134149998426,None,1,0.6128147798590362,2.613470379728824,decreament,0.6,11,standard,None,100,,,,,,,,f,18,212,fr,r,0,raw,2022-05-24_16h34.31.995,oddball,2022.1.2,59.73294594231815,
5,,,,,0,0,0,1,7,0,7,0,0,0,0,0,,,,,,,,,,,,,,,766.5508083999157,None,769.3493594001047,None,770.0334129002877,770.6332267001271,770.6167199001648,772.617678000126,None,1,0.6118113799020648,2.612830480094999,increament,0.6,15,standard,None,100,,761.4302289001644,None,,,,,f,18,212,fr,r,0,raw,2022-05-24_16h34.31.995,oddball,2022.1.2,59.73294594231815,
5,,,,,0,0,0,1,7,0,7,0,1,0,1,0,,,,,,,,,,,,,,,,,772.6342734000646,None,773.351409799885,773.9512788001448,773.9347520000301,775.9354057000019,None,1,0.6109821801073849,2.6116248802281916,increament,0.6,15,standard,None,100,,,,,,,,f,18,212,fr,r,0,raw,2022-05-24_16h34.31.995,oddball,2022.1.2,59.73294594231815,
5,,,,,0,0,0,1,7,0,7,0,2,0,2,0,,,,,,,,,,,,,,,,,775.9524230002426,None,776.619193200022,777.2192029999569,777.2025246000849,779.2033450002782,None,1,0.6120236800052226,2.6128684799186885,increament,0.6,15,standard,None,100,,,,,,,,f,18,212,fr,r,0,raw,2022-05-24_16h34.31.995,oddball,2022.1.2,59.73294594231815,
5,,,,,0,0,0,1,7,0,7,0,3,0,3,0,,,,,,,,,,,,,,,,,779.2201934000477,None,779.7372608999722,780.3370142001659,780.3207660000771,782.3214890002273,None,1,0.6101191798225045,2.61090207984671,increament,0.6,15,standard,None,100,,,,,,,,f,18,212,fr,r,0,raw,2022-05-24_16h34.31.995,oddball,2022.1.2,59.73294594231815,
5,,,,,0,0,0,1,7,0,7,0,4,0,4,0,,,,,,,,,,,,,,,,,782.337871900294,None,783.1217685001902,783.7216393998824,783.7056308002211,785.7059885999188,None,1,0.6130379801616073,2.6134011801332235,increament,0.6,15,standard,None,100,,,,,,,,f,18,212,fr,r,0,raw,2022-05-24_16h34.31.995,oddball,2022.1.2,59.73294594231815,
5,,,,,0,0,0,1,7,0,7,0,5,0,5,0,,,,,,,,,,,,,,,,,785.7224043002352,None,786.2727437000722,787.1231925999746,787.0896340999752,789.0903543001041,None,0,0.8459278796799481,2.8466702797450125,increament,0.84,17,oddball,j,140,,,,,,,,f,18,212,fr,r,0,raw,2022-05-24_16h34.31.995,oddball,2022.1.2,59.73294594231815,
5,,,,,0,0,0,1,7,0,7,0,6,0,6,0,,,,,,,,,,,,,,,,,789.1073557999916,None,789.8907623002306,790.4907458000816,790.4742556000128,792.4750590999611,None,1,0.6122175799682736,2.6130381799302995,increament,0.6,15,standard,None,100,,,,,,,,f,18,212,fr,r,0,raw,2022-05-24_16h34.31.995,oddball,2022.1.2,59.73294594231815,
5,,,,,0,0,0,1,7,0,7,0,7,0,7,0,,,,,,,,,,,,,,,,,792.4917847001925,None,793.0254096002318,793.6259412001818,793.608870500233,795.6099183000624,None,1,0.6127961804158986,2.613939980044961,increament,0.6,15,standard,None,100,,,,,,,,f,18,212,fr,r,0,raw,2022-05-24_16h34.31.995,oddball,2022.1.2,59.73294594231815,
5,,,,,0,0,0,1,7,0,7,0,8,0,8,0,,,,,,,,,,,,,,,,,795.6273345001973,None,796.3263256000355,796.9266156000085,796.9100260999985,798.9108585999347,None,1,0.6132622794248164,2.61413277965039,increament,0.6,15,standard,None,100,,,,,,,,f,18,212,fr,r,0,raw,2022-05-24_16h34.31.995,oddball,2022.1.2,59.73294594231815,
5,,,,,0,0,0,1,7,0,7,0,9,0,9,0,,,,,,,,,,,,,,,,,798.9275281000882,None,799.4444373999722,800.0445584002882,800.0280873002484,802.0293890000321,None,1,0.6122390800155699,2.6135870800353587,increament,0.6,15,standard,None,100,,,,,,,,f,18,212,fr,r,0,raw,2022-05-24_16h34.31.995,oddball,2022.1.2,59.73294594231815,
5,,,,,0,0,0,1,7,0,7,0,10,0,10,0,,,,,,,,,,,,,,,,,802.0459202001803,None,802.7292395001277,803.3291072999127,803.3124118000269,805.3133568000048,None,1,0.6106766797602177,2.611625979654491,increament,0.6,15,standard,None,100,,,,,,,,f,18,212,fr,r,0,raw,2022-05-24_16h34.31.995,oddball,2022.1.2,59.73294594231815,
5,,,,,0,0,0,1,7,0,7,0,11,0,11,0,,,,,,,,,,,,,,,,,805.3298581000417,None,805.8468528999947,806.4470720002428,806.4307428998873,808.4310555001721,None,1,0.6119946800172329,2.612195880152285,increament,0.6,15,standard,None,100,,,,,,,,f,18,212,fr,r,0,raw,2022-05-24_16h34.31.995,oddball,2022.1.2,59.73294594231815,
5,,,,,0,0,0,1,7,0,7,0,12,0,12,0,,,,,,,,,,,,,,,,,808.4477301998995,None,809.215362700168,809.9483290002681,809.9152643000707,811.9158617998473,None,0,0.7263328796252608,2.726911279838532,increament,0.72,16,oddball,j,120,,,,,,,,f,18,212,fr,r,0,raw,2022-05-24_16h34.31.995,oddball,2022.1.2,59.73294594231815,
5,,,,,0,0,0,1,7,0,7,0,13,0,13,0,,,,,,,,,,,,,,,,,811.9323618998751,None,812.5331061999314,813.1330153001472,813.1167317000218,815.1168345999904,None,1,0.6107422802597284,2.6107478803023696,increament,0.6,15,standard,None,100,,,,,,,,f,18,212,fr,r,0,raw,2022-05-24_16h34.31.995,oddball,2022.1.2,59.73294594231815,
5,,,,,0,0,0,1,7,0,7,0,14,0,14,0,,,,,,,,,,,,,,,,,815.133378200233,None,816.0006019002758,816.6012297999114,816.5846585999243,818.5852589998394,None,1,0.6105621797032654,2.6112096798606217,increament,0.6,15,standard,None,100,,,,,,,,f,18,212,fr,r,0,raw,2022-05-24_16h34.31.995,oddball,2022.1.2,59.73294594231815,
5,,,,,0,0,0,1,7,0,7,0,15,0,15,0,,,,,,,,,,,,,,,,,818.6023234999739,None,819.2689209999517,819.868855800014,819.852177800145,821.8528653001413,None,1,0.609637479763478,2.610284079797566,increament,0.6,15,standard,None,100,,,,,,,,f,18,212,fr,r,0,raw,2022-05-24_16h34.31.995,oddball,2022.1.2,59.73294594231815,
5,,,,,0,0,0,1,7,0,7,0,16,0,16,0,,,,,,,,,,,,,,,,,821.8695690999739,None,822.4697580002248,823.0701923999004,823.0536338998936,825.0539613999426,None,1,0.6127228797413409,2.6129786795936525,increament,0.6,15,standard,None,100,,,,,,,,f,18,212,fr,r,0,raw,2022-05-24_16h34.31.995,oddball,2022.1.2,59.73294594231815,
5,,,,,0,0,0,1,7,0,7,0,17,0,17,0,,,,,,,,,,,,,,,,,825.0708113000728,None,825.6044958001003,826.2045519999228,826.1881109001115,828.1888196002692,None,1,0.6129089798778296,2.6135956798680127,increament,0.6,15,standard,None,100,,,,,,,,f,18,212,fr,r,0,raw,2022-05-24_16h34.31.995,oddball,2022.1.2,59.73294594231815,
5,,,,,0,0,0,1,7,0,7,0,18,0,18,0,,,,,,,,,,,,,,,,,828.2055428000167,None,828.7555112000555,829.3557460000739,829.3389929998666,831.3397885998711,None,1,0.6129302801564336,2.6137143801897764,increament,0.6,15,standard,None,100,,,,,,,,f,18,212,fr,r,0,raw,2022-05-24_16h34.31.995,oddball,2022.1.2,59.73294594231815,
5,,,,,0,0,0,1,7,0,7,0,19,0,19,0,,,,,,,,,,,,,,,,,831.3563665002584,None,832.0729485000484,832.673106000293,832.6566192000173,834.6571797998622,None,1,0.6147167799063027,2.6152723799459636,increament,0.6,15,standard,None,100,,,,,,,,f,18,212,fr,r,0,raw,2022-05-24_16h34.31.995,oddball,2022.1.2,59.73294594231815,
5,,,,,0,0,0,1,7,0,7,0,20,0,20,0,,,,,,,,,,,,,,,,,834.6739272000268,None,835.2745456001721,835.874874799978,835.8582601998933,837.8591947001405,None,1,0.6133406800217927,2.614259379915893,increament,0.6,15,standard,None,100,,,,,,,,f,18,212,fr,r,0,raw,2022-05-24_16h34.31.995,oddball,2022.1.2,59.73294594231815,
5,,,,,0,0,0,1,7,0,7,0,21,0,21,0,,,,,,,,,,,,,,,,,837.8755163000897,None,838.4260402000509,839.3926651999354,839.3592912000604,841.3604498999193,j,1,0.9594309800304472,2.9606937803328037,increament,0.96,18,oddball,j,160,1.053165499586612,,,,,,,f,18,212,fr,r,0,raw,2022-05-24_16h34.31.995,oddball,2022.1.2,59.73294594231815,
5,,,,,0,0,0,1,7,0,7,0,22,0,22,0,,,,,,,,,,,,,,,,,841.3771326001734,None,842.0602466999553,842.6606121999212,842.6441485001706,844.6448293998837,None,1,0.6139525803737342,2.6146494802087545,increament,0.6,15,standard,None,100,,,,,,,,f,18,212,fr,r,0,raw,2022-05-24_16h34.31.995,oddball,2022.1.2,59.73294594231815,
5,,,,,0,0,0,1,7,0,7,0,23,0,23,0,,,,,,,,,,,,,,,,,844.6615440999158,None,845.2619329001755,845.8622627002187,845.8455226002261,847.8462688000873,None,1,0.6120161805301905,2.612732580397278,increament,0.6,15,standard,None,100,,,,,,,,f,18,212,fr,r,0,raw,2022-05-24_16h34.31.995,oddball,2022.1.2,59.73294594231815,
5,,,,,0,0,0,1,7,0,7,0,24,0,24,0,,,,,,,,,,,,,,,,,847.8628362002783,None,848.4297378999181,849.0297874002717,849.0132647999562,851.0140718999319,None,1,0.6105436799116433,2.6113474797457457,increament,0.6,15,standard,None,100,,,,,,,,f,18,212,fr,r,0,raw,2022-05-24_16h34.31.995,oddball,2022.1.2,59.73294594231815,
5,,,,,0,0,0,1,7,0,7,0,25,0,25,0,,,,,,,,,,,,,,,,,851.0308401999064,None,851.6471013999544,852.2478331001475,852.2311968002468,854.2319503999315,None,1,0.6150857801549137,2.6158545799553394,increament,0.6,15,standard,None,100,,,,,,,,f,18,212,fr,r,0,raw,2022-05-24_16h34.31.995,oddball,2022.1.2,59.73294594231815,
5,,,,,0,0,0,1,7,0,7,0,26,0,26,0,,,,,,,,,,,,,,,,,854.2486975998618,None,854.96546950005,855.5655640000477,855.5495429001749,857.5492686000653,None,1,0.6118033803068101,2.611570980399847,increament,0.6,15,standard,None,100,,,,,,,,f,18,212,fr,r,0,raw,2022-05-24_16h34.31.995,oddball,2022.1.2,59.73294594231815,
5,,,,,0,0,0,1,7,0,7,0,27,0,27,0,,,,,,,,,,,,,,,,,857.565950000193,None,858.2166312001646,858.8167826002464,858.8002237002365,860.800839100033,None,1,0.6131722801364958,2.613756679929793,increament,0.6,15,standard,None,100,,,,,,,,f,18,212,fr,r,0,raw,2022-05-24_16h34.31.995,oddball,2022.1.2,59.73294594231815,
5,,,,,0,0,0,1,7,0,7,0,28,0,28,0,,,,,,,,,,,,,,,,,860.8173878998496,None,861.5512426001951,862.1514714001678,862.1348414001986,864.1359402001835,None,1,0.612570779863745,2.613743380177766,increament,0.6,15,standard,None,100,,,,,,,,f,18,212,fr,r,0,raw,2022-05-24_16h34.31.995,oddball,2022.1.2,59.73294594231815,
5,,,,,0,0,0,1,7,0,7,0,29,0,29,0,,,,,,,,,,,,,,,,,864.1524971001782,None,864.7691076998599,865.3692029002123,865.352547599934,867.353575500194,None,1,0.6129956799559295,2.614062480162829,increament,0.6,15,standard,None,100,,,,,,,,f,18,212,fr,r,0,raw,2022-05-24_16h34.31.995,oddball,2022.1.2,59.73294594231815,
5,,,,,0,0,0,1,8,0,8,0,0,0,0,0,,,,,,,,,,,,,,,868.5064000999555,None,871.0381550998427,None,871.7051081000827,872.3051094003022,872.2889392999932,874.2891187001951,None,1,0.6122047803364694,2.6122936801984906,decreament,0.6,11,standard,None,100,,867.3705254001543,None,,,,,f,18,212,fr,r,0,raw,2022-05-24_16h34.31.995,oddball,2022.1.2,59.73294594231815,
5,,,,,0,0,0,1,8,0,8,0,1,0,1,0,,,,,,,,,,,,,,,,,874.305903899949,None,875.0395360998809,875.6398439002223,875.6234927000478,877.623890100047,None,1,0.6139400796964765,2.6143256798386574,decreament,0.6,11,standard,None,100,,,,,,,,f,18,212,fr,r,0,raw,2022-05-24_16h34.31.995,oddball,2022.1.2,59.73294594231815,
5,,,,,0,0,0,1,8,0,8,0,2,0,2,0,,,,,,,,,,,,,,,,,877.6410730001517,None,878.1746217999607,878.7745035998523,878.7576987002976,880.758397300262,None,1,0.6109699802473187,2.611677180044353,decreament,0.6,11,standard,None,100,,,,,,,,f,18,212,fr,r,0,raw,2022-05-24_16h34.31.995,oddball,2022.1.2,59.73294594231815,
5,,,,,0,0,0,1,8,0,8,0,3,0,3,0,,,,,,,,,,,,,,,,,880.7752331001684,None,881.5085926000029,882.109095599968,882.0927188000642,884.0933421002701,None,1,0.6139646801166236,2.614553680177778,decreament,0.6,11,standard,None,100,,,,,,,,f,18,212,fr,r,0,raw,2022-05-24_16h34.31.995,oddball,2022.1.2,59.73294594231815,
5,,,,,0,0,0,1,8,0,8,0,4,0,4,0,,,,,,,,,,,,,,,,,884.1098263999447,None,884.6766194999218,885.277013100218,885.2603370002471,887.2608329001814,None,1,0.6119633801281452,2.6124508804641664,decreament,0.6,11,standard,None,100,,,,,,,,f,18,212,fr,r,0,raw,2022-05-24_16h34.31.995,oddball,2022.1.2,59.73294594231815,
5,,,,,0,0,0,1,8,0,8,0,5,0,5,0,,,,,,,,,,,,,,,,,887.2777956002392,None,887.8112391000614,888.411457200069,888.3948548999615,890.3953110002913,None,1,0.6130319801159203,2.6134263798594475,decreament,0.6,11,standard,None,100,,,,,,,,f,18,212,fr,r,0,raw,2022-05-24_16h34.31.995,oddball,2022.1.2,59.73294594231815,
5,,,,,0,0,0,1,8,0,8,0,6,0,6,0,,,,,,,,,,,,,,,,,890.4121432001702,None,890.9790842998773,891.5793984001502,891.562555400189,893.5637091998942,None,1,0.6136711803264916,2.614860480185598,decreament,0.6,11,standard,None,100,,,,,,,,f,18,212,fr,r,0,raw,2022-05-24_16h34.31.995,oddball,2022.1.2,59.73294594231815,
5,,,,,0,0,0,1,8,0,8,0,7,0,7,0,,,,,,,,,,,,,,,,,893.579965100158,None,894.2634761999361,894.8638062002137,894.8472962998785,896.8477680999786,None,1,0.6134339799173176,2.6138965799473226,decreament,0.6,11,standard,None,100,,,,,,,,f,18,212,fr,r,0,raw,2022-05-24_16h34.31.995,oddball,2022.1.2,59.73294594231815,
5,,,,,0,0,0,1,8,0,8,0,8,0,8,0,,,,,,,,,,,,,,,,,896.8647730001248,None,897.5482927002013,898.148438599892,898.1318096001633,900.1328111002222,None,1,0.6107244803570211,2.6118171801790595,decreament,0.6,11,standard,None,100,,,,,,,,f,18,212,fr,r,0,raw,2022-05-24_16h34.31.995,oddball,2022.1.2,59.73294594231815,
5,,,,,0,0,0,1,8,0,8,0,9,0,9,0,,,,,,,,,,,,,,,,,900.1490938998759,None,900.7496362999082,901.3494146000594,901.3330999002792,903.3337134001777,None,1,0.6092485804110765,2.609860780183226,decreament,0.6,11,standard,None,100,,,,,,,,f,18,212,fr,r,0,raw,2022-05-24_16h34.31.995,oddball,2022.1.2,59.73294594231815,
5,,,,,0,0,0,1,8,0,8,0,10,0,10,0,,,,,,,,,,,,,,,,,903.3506603999995,None,903.9839897002093,904.5845344001427,904.567435100209,906.5681737000123,None,1,0.6131365802139044,2.6138435802422464,decreament,0.6,11,standard,None,100,,,,,,,,f,18,212,fr,r,0,raw,2022-05-24_16h34.31.995,oddball,2022.1.2,59.73294594231815,
5,,,,,0,0,0,1,8,0,8,0,11,0,11,0,,,,,,,,,,,,,,,,,906.5850404999219,None,907.2854861998931,907.5351493000053,907.5022673001513,909.5028487001546,j,1,0.24373958026990294,2.2442434802651405,decreament,0.24,12,oddball,j,40,0.5493643996305764,,,,,,,f,18,212,fr,r,0,raw,2022-05-24_16h34.31.995,oddball,2022.1.2,59.73294594231815,
5,,,,,0,0,0,1,8,0,8,0,12,0,12,0,,,,,,,,,,,,,,,,,909.5194863001816,None,910.2865035999566,910.886475500185,910.8698257999495,912.8704671002924,None,1,0.6118346801958978,2.612468280363828,decreament,0.6,11,standard,None,100,,,,,,,,f,18,212,fr,r,0,raw,2022-05-24_16h34.31.995,oddball,2022.1.2,59.73294594231815,
5,,,,,0,0,0,1,8,0,8,0,13,0,13,0,,,,,,,,,,,,,,,,,912.8873561001383,None,913.4707333999686,914.0710713001899,914.054639399983,916.0551375001669,None,1,0.6133024804294109,2.613806480076164,decreament,0.6,11,standard,None,100,,,,,,,,f,18,212,fr,r,0,raw,2022-05-24_16h34.31.995,oddball,2022.1.2,59.73294594231815,
5,,,,,0,0,0,1,8,0,8,0,14,0,14,0,,,,,,,,,,,,,,,,,916.0718026002869,None,916.7390883001499,917.3389790998772,917.3225782001391,919.3229032000527,None,1,0.6133429799228907,2.613624180201441,decreament,0.6,11,standard,None,100,,,,,,,,f,18,212,fr,r,0,raw,2022-05-24_16h34.31.995,oddball,2022.1.2,59.73294594231815,
5,,,,,0,0,0,1,8,0,8,0,15,0,15,0,,,,,,,,,,,,,,,,,919.3398179002106,None,919.9067303002812,920.5066714999266,920.4902979000472,922.4910046001896,None,1,0.610815679654479,2.611524079926312,decreament,0.6,11,standard,None,100,,,,,,,,f,18,212,fr,r,0,raw,2022-05-24_16h34.31.995,oddball,2022.1.2,59.73294594231815,
5,,,,,0,0,0,1,8,0,8,0,16,0,16,0,,,,,,,,,,,,,,,,,922.5078916000202,None,923.107918899972,923.7078145002015,923.6914152000099,925.6923575000837,None,1,0.6129969796165824,2.6139728794805706,decreament,0.6,11,standard,None,100,,,,,,,,f,18,212,fr,r,0,raw,2022-05-24_16h34.31.995,oddball,2022.1.2,59.73294594231815,
5,,,,,0,0,0,1,8,0,8,0,17,0,17,0,,,,,,,,,,,,,,,,,925.709131100215,None,926.5091177001595,927.1094495998695,927.0926739000715,929.0949619999155,None,1,0.6110214800573885,2.613362379837781,decreament,0.6,11,standard,None,100,,,,,,,,f,18,212,fr,r,0,raw,2022-05-24_16h34.31.995,oddball,2022.1.2,59.73294594231815,
5,,,,,0,0,0,1,8,0,8,0,18,0,18,0,,,,,,,,,,,,,,,,,929.1101608001627,None,929.6937384000048,930.2939960998483,930.2776063000783,932.2780388998799,None,1,0.6117230802774429,2.6121631800197065,decreament,0.6,11,standard,None,100,,,,,,,,f,18,212,fr,r,0,raw,2022-05-24_16h34.31.995,oddball,2022.1.2,59.73294594231815,
5,,,,,0,0,0,1,8,0,8,0,19,0,19,0,,,,,,,,,,,,,,,,,932.2945954999886,None,932.8448997000232,933.2117530000396,933.1785138999112,935.1789287999272,j,1,0.36148168053478,2.361856180243194,decreament,0.36,13,oddball,j,60,1.161404499784112,,,,,,,f,18,212,fr,r,0,raw,2022-05-24_16h34.31.995,oddball,2022.1.2,59.73294594231815,
5,,,,,0,0,0,1,8,0,8,0,20,0,20,0,,,,,,,,,,,,,,,,,935.1957491002977,None,935.7964377002791,936.396380700171,936.3795570000075,938.3802742999978,None,1,0.6123569798655808,2.6130016800016165,decreament,0.6,11,standard,None,100,,,,,,,,f,18,212,fr,r,0,raw,2022-05-24_16h34.31.995,oddball,2022.1.2,59.73294594231815,
5,,,,,0,0,0,1,8,0,8,0,21,0,21,0,,,,,,,,,,,,,,,,,938.3968994002789,None,939.080573500134,939.6813039002009,939.6644486999139,941.6649768999778,None,1,0.6136312796734273,2.6141359796747565,decreament,0.6,11,standard,None,100,,,,,,,,f,18,212,fr,r,0,raw,2022-05-24_16h34.31.995,oddball,2022.1.2,59.73294594231815,
5,,,,,0,0,0,1,8,0,8,0,22,0,22,0,,,,,,,,,,,,,,,,,941.6816500001587,None,942.4819581001066,943.082027700264,943.0655872998759,945.0663284999318,None,1,0.6128862802870572,2.613595680333674,decreament,0.6,11,standard,None,100,,,,,,,,f,18,212,fr,r,0,raw,2022-05-24_16h34.31.995,oddball,2022.1.2,59.73294594231815,
5,,,,,0,0,0,1,8,0,8,0,23,0,23,0,,,,,,,,,,,,,,,,,945.0828637001105,None,945.6165360999294,946.2166109001264,946.1998815000989,948.2012149998918,None,1,0.6114906799048185,2.612917580176145,decreament,0.6,11,standard,None,100,,,,,,,,f,18,212,fr,r,0,raw,2022-05-24_16h34.31.995,oddball,2022.1.2,59.73294594231815,
5,,,,,0,0,0,1,8,0,8,0,24,0,24,0,,,,,,,,,,,,,,,,,948.2185880001634,None,948.8842505002394,949.4849255001172,949.4682221999392,951.4687026999891,None,1,0.6133951800875366,2.6138481800444424,decreament,0.6,11,standard,None,100,,,,,,,,f,18,212,fr,r,0,raw,2022-05-24_16h34.31.995,oddball,2022.1.2,59.73294594231815,
5,,,,,0,0,0,1,8,0,8,0,25,0,25,0,,,,,,,,,,,,,,,,,951.485534499865,None,952.1355318999849,952.7355852001347,952.7191309998743,954.7200215999037,None,1,0.6131343794986606,2.614046179689467,decreament,0.6,11,standard,None,100,,,,,,,,f,18,212,fr,r,0,raw,2022-05-24_16h34.31.995,oddball,2022.1.2,59.73294594231815,
5,,,,,0,0,0,1,8,0,8,0,26,0,26,0,,,,,,,,,,,,,,,,,954.7365784002468,None,955.3702090000734,955.853441900108,955.8369057001546,957.8380466001108,None,0,0.49261767975986004,2.4938093801029027,decreament,0.48,14,oddball,j,80,,,,,,,,f,18,212,fr,r,0,raw,2022-05-24_16h34.31.995,oddball,2022.1.2,59.73294594231815,
5,,,,,0,0,0,1,8,0,8,0,27,0,27,0,,,,,,,,,,,,,,,,,957.8545908001252,None,958.4881524001248,959.0882347002625,959.0716583002359,961.0725849000737,None,1,0.6137440800666809,2.6147076804190874,decreament,0.6,11,standard,None,100,,,,,,,,f,18,212,fr,r,0,raw,2022-05-24_16h34.31.995,oddball,2022.1.2,59.73294594231815,
5,,,,,0,0,0,1,8,0,8,0,28,0,28,0,,,,,,,,,,,,,,,,,961.0890684998594,None,961.9057950000279,962.5063026999123,962.4895366001874,964.4902703003027,None,1,0.6135232797823846,2.614251180086285,decreament,0.6,11,standard,None,100,,,,,,,,f,18,212,fr,r,0,raw,2022-05-24_16h34.31.995,oddball,2022.1.2,59.73294594231815,
5,,,,,0,0,0,1,8,0,8,0,29,0,29,0,,,,,,,,,,,,,,,,,964.5069875000045,None,965.0571226002648,965.6578831002116,965.6410081000067,967.6413078000769,None,1,0.6115055801346898,2.6117178802378476,decreament,0.6,11,standard,None,100,,,,,,,,f,18,212,fr,r,0,raw,2022-05-24_16h34.31.995,oddball,2022.1.2,59.73294594231815,
5,,,,,0,0,0,1,9,0,9,0,0,0,0,0,,,,,,,,,,,,,,,974.8569137998857,None,976.2449198998511,None,976.8448528000154,977.4453376000747,977.4286095001735,979.429245499894,None,1,0.6121831797063351,2.612831379752606,increament,0.6,15,standard,None,100,,967.6582424999215,None,,,,,f,18,212,fr,r,0,raw,2022-05-24_16h34.31.995,oddball,2022.1.2,59.73294594231815,
5,,,,,0,0,0,1,9,0,9,0,1,0,1,0,,,,,,,,,,,,,,,,,979.4460130999796,None,980.0629314002581,980.6628756001592,980.6464526001364,982.6471315003,None,1,0.6125864796340466,2.613247179891914,increament,0.6,15,standard,None,100,,,,,,,,f,18,212,fr,r,0,raw,2022-05-24_16h34.31.995,oddball,2022.1.2,59.73294594231815,
5,,,,,0,0,0,1,9,0,9,0,2,0,2,0,,,,,,,,,,,,,,,,,982.6635211003013,None,983.2139317998663,983.8139730002731,983.7977034999058,985.7979947002605,None,1,0.6133855800144374,2.6136491796933115,increament,0.6,15,standard,None,100,,,,,,,,f,18,212,fr,r,0,raw,2022-05-24_16h34.31.995,oddball,2022.1.2,59.73294594231815,
5,,,,,0,0,0,1,9,0,9,0,3,0,3,0,,,,,,,,,,,,,,,,,985.8147050999105,None,986.5317450999282,987.1321304002777,987.1155129000545,989.1160528999753,None,1,0.6132872798480093,2.6137846801429987,increament,0.6,15,standard,None,100,,,,,,,,f,18,212,fr,r,0,raw,2022-05-24_16h34.31.995,oddball,2022.1.2,59.73294594231815,
5,,,,,0,0,0,1,9,0,9,0,4,0,4,0,,,,,,,,,,,,,,,,,989.1331286998466,None,989.6663772999309,990.2666207998991,990.2502283998765,992.2508755000308,None,1,0.609545580111444,2.610216780100018,increament,0.6,15,standard,None,100,,,,,,,,f,18,212,fr,r,0,raw,2022-05-24_16h34.31.995,oddball,2022.1.2,59.73294594231815,
5,,,,,0,0,0,1,9,0,9,0,5,0,5,0,,,,,,,,,,,,,,,,,992.2675399999134,None,992.8678212002851,993.4681386002339,993.4514120002277,995.4520264002495,None,1,0.6102187801152468,2.6108169802464545,increament,0.6,15,standard,None,100,,,,,,,,f,18,212,fr,r,0,raw,2022-05-24_16h34.31.995,oddball,2022.1.2,59.73294594231815,
5,,,,,0,0,0,1,9,0,9,0,6,0,6,0,,,,,,,,,,,,,,,,,995.4688893998973,None,996.0691597000696,996.669763199985,996.6525306999683,998.6530992998742,None,1,0.6115086800418794,2.612075579818338,increament,0.6,15,standard,None,100,,,,,,,,f,18,212,fr,r,0,raw,2022-05-24_16h34.31.995,oddball,2022.1.2,59.73294594231815,
5,,,,,0,0,0,1,9,0,9,0,7,0,7,0,,,,,,,,,,,,,,,,,998.6700633000582,None,999.3703534998931,999.9702558000572,999.953838000074,1001.9545404999517,None,1,0.6118394797667861,2.6126170796342194,increament,0.6,15,standard,None,100,,,,,,,,f,18,212,fr,r,0,raw,2022-05-24_16h34.31.995,oddball,2022.1.2,59.73294594231815,
5,,,,,0,0,0,1,9,0,9,0,8,0,8,0,,,,,,,,,,,,,,,,,1001.9717721999623,None,1002.8383257999085,1003.4385644001886,1003.4217598000541,1005.4222236000933,None,1,0.6105319801717997,2.610931579954922,increament,0.6,15,standard,None,100,,,,,,,,f,18,212,fr,r,0,raw,2022-05-24_16h34.31.995,oddball,2022.1.2,59.73294594231815,
5,,,,,0,0,0,1,9,0,9,0,9,0,9,0,,,,,,,,,,,,,,,,,1005.4388903002255,None,1006.0225158999674,1006.6228692000732,1006.6062023001723,1008.6074033002369,None,1,0.613791280426085,2.6150127802975476,increament,0.6,15,standard,None,100,,,,,,,,f,18,212,fr,r,0,raw,2022-05-24_16h34.31.995,oddball,2022.1.2,59.73294594231815,
5,,,,,0,0,0,1,9,0,9,0,10,0,10,0,,,,,,,,,,,,,,,,,1008.6235229000449,None,1009.2070758999325,1009.8076067999937,1009.7909280001186,1011.7915198002011,None,1,0.6097077806480229,2.6103272805921733,increament,0.6,15,standard,None,100,,,,,,,,f,18,212,fr,r,0,raw,2022-05-24_16h34.31.995,oddball,2022.1.2,59.73294594231815,
5,,,,,0,0,0,1,9,0,9,0,11,0,11,0,,,,,,,,,,,,,,,,,1011.808118800167,None,1012.5415779999457,1013.3920368999243,1013.3587030000053,1015.3597972998396,None,0,0.846895279828459,2.8480732799507678,increament,0.84,17,oddball,j,140,,,,,,,,f,18,212,fr,r,0,raw,2022-05-24_16h34.31.995,oddball,2022.1.2,59.73294594231815,
5,,,,,0,0,0,1,9,0,9,0,12,0,12,0,,,,,,,,,,,,,,,,,1015.3774760998785,None,1015.9598052999936,1016.5601637000218,1016.5431752000004,1018.5441216002218,None,1,0.6123121799901128,2.6132321800105274,increament,0.6,15,standard,None,100,,,,,,,,f,18,212,fr,r,0,raw,2022-05-24_16h34.31.995,oddball,2022.1.2,59.73294594231815,
5,,,,,0,0,0,1,9,0,9,0,13,0,13,0,,,,,,,,,,,,,,,,,1018.5609091999941,None,1019.2942332001403,1019.8947681002319,1019.877910700161,1021.8789037000388,j,0,0.6128964796662331,2.6139429793693125,increament,0.6,15,standard,None,100,1.2542368997819722,,,,,,,f,18,212,fr,r,0,raw,2022-05-24_16h34.31.995,oddball,2022.1.2,59.73294594231815,
5,,,,,0,0,0,1,9,0,9,0,14,0,14,0,,,,,,,,,,,,,,,,,1021.896433299873,None,1022.545815799851,1023.1455759000964,1023.1290660002269,1025.1298727001995,None,1,0.6109398799017072,2.611766779795289,increament,0.6,15,standard,None,100,,,,,,,,f,18,212,fr,r,0,raw,2022-05-24_16h34.31.995,oddball,2022.1.2,59.73294594231815,
5,,,,,0,0,0,1,9,0,9,0,15,0,15,0,,,,,,,,,,,,,,,,,1025.1466073002666,None,1025.7967503000982,1026.3971130000427,1026.3802674002945,1028.380859900266,None,1,0.6133276801556349,2.6138680800795555,increament,0.6,15,standard,None,100,,,,,,,,f,18,212,fr,r,0,raw,2022-05-24_16h34.31.995,oddball,2022.1.2,59.73294594231815,
5,,,,,0,0,0,1,9,0,9,0,16,0,16,0,,,,,,,,,,,,,,,,,1028.3976123002358,None,1029.16481210012,1029.7649920000695,1029.7482564002275,1031.7491000001319,None,1,0.6123391794972122,2.6131951794959605,increament,0.6,15,standard,None,100,,,,,,,,f,18,212,fr,r,0,raw,2022-05-24_16h34.31.995,oddball,2022.1.2,59.73294594231815,
5,,,,,0,0,0,1,9,0,9,0,17,0,17,0,,,,,,,,,,,,,,,,,1031.7659537000582,None,1032.3663260000758,1032.9660449000075,1032.9493807000108,1034.9504010002129,None,1,0.6124446797184646,2.6135393800213933,increament,0.6,15,standard,None,100,,,,,,,,f,18,212,fr,r,0,raw,2022-05-24_16h34.31.995,oddball,2022.1.2,59.73294594231815,
5,,,,,0,0,0,1,9,0,9,0,18,0,18,0,,,,,,,,,,,,,,,,,1034.9670369001105,None,1035.6504418998957,1036.2502851998433,1036.2336305999197,1038.2347874999978,None,1,0.6119542801752687,2.613178779836744,increament,0.6,15,standard,None,100,,,,,,,,f,18,212,fr,r,0,raw,2022-05-24_16h34.31.995,oddball,2022.1.2,59.73294594231815,
5,,,,,0,0,0,1,9,0,9,0,19,0,19,0,,,,,,,,,,,,,,,,,1038.2513933000155,None,1038.9014487001114,1039.5018846001476,1039.4853393998928,1041.486254800111,None,1,0.6141987796872854,2.615172979887575,increament,0.6,15,standard,None,100,,,,,,,,f,18,212,fr,r,0,raw,2022-05-24_16h34.31.995,oddball,2022.1.2,59.73294594231815,
5,,,,,0,0,0,1,9,0,9,0,20,0,20,0,,,,,,,,,,,,,,,,,1041.50272710016,None,1042.2033923002891,1042.8031466002576,1042.7867642999627,1044.7877104002982,None,1,0.6096644806675613,2.610658480320126,increament,0.6,15,standard,None,100,,,,,,,,f,18,212,fr,r,0,raw,2022-05-24_16h34.31.995,oddball,2022.1.2,59.73294594231815,
5,,,,,0,0,0,1,9,0,9,0,21,0,21,0,,,,,,,,,,,,,,,,,1044.8038972001523,None,1045.4041921999305,1046.371110000182,1046.3381464001723,1048.338445500005,None,0,0.9630402801558375,2.963310380000621,increament,0.96,18,oddball,j,160,,,,,,,,f,18,212,fr,r,0,raw,2022-05-24_16h34.31.995,oddball,2022.1.2,59.73294594231815,
5,,,,,0,0,0,1,9,0,9,0,22,0,22,0,,,,,,,,,,,,,,,,,1048.355284300167,None,1048.988869599998,1049.589030600153,1049.572539200075,1051.5736822001636,None,1,0.6122315800748765,2.6134181800298393,increament,0.6,15,standard,None,100,,,,,,,,f,18,212,fr,r,0,raw,2022-05-24_16h34.31.995,oddball,2022.1.2,59.73294594231815,
5,,,,,0,0,0,1,9,0,9,0,23,0,23,0,,,,,,,,,,,,,,,,,1051.5899509000592,None,1052.2569061000831,1052.8568175002001,1052.8403753000312,1054.8411185001023,None,1,0.6084535801783204,2.6091804802417755,increament,0.6,15,standard,None,100,,,,,,,,f,18,212,fr,r,0,raw,2022-05-24_16h34.31.995,oddball,2022.1.2,59.73294594231815,
5,,,,,0,0,0,1,9,0,9,0,24,0,24,0,,,,,,,,,,,,,,,,,1054.8577041998506,None,1055.5582595001906,1056.1584912003018,1056.1421344000846,1058.1425089999102,None,1,0.6107488800771534,2.611119579989463,increament,0.6,15,standard,None,100,,,,,,,,f,18,212,fr,r,0,raw,2022-05-24_16h34.31.995,oddball,2022.1.2,59.73294594231815,
5,,,,,0,0,0,1,9,0,9,0,25,0,25,0,,,,,,,,,,,,,,,,,1058.1591949001886,None,1058.809297800064,1059.409434299916,1059.392748599872,1061.3936673002318,None,1,0.6126177799887955,2.613553380127996,increament,0.6,15,standard,None,100,,,,,,,,f,18,212,fr,r,0,raw,2022-05-24_16h34.31.995,oddball,2022.1.2,59.73294594231815,
5,,,,,0,0,0,1,9,0,9,0,26,0,26,0,,,,,,,,,,,,,,,,,1061.4103256003,None,1061.943720200099,1062.5440533002838,1062.5274549000897,1064.5280673000962,j,0,0.6125108804553747,2.613091280218214,increament,0.6,15,standard,None,100,1.139304899610579,,,,,,,f,18,212,fr,r,0,raw,2022-05-24_16h34.31.995,oddball,2022.1.2,59.73294594231815,
5,,,,,0,0,0,1,9,0,9,0,27,0,27,0,,,,,,,,,,,,,,,,,1064.5447110999376,None,1065.2115207002498,1065.8118222998455,1065.7954001002945,1067.7957271998748,None,1,0.6129950797185302,2.6132676796987653,increament,0.6,15,standard,None,100,,,,,,,,f,18,212,fr,r,0,raw,2022-05-24_16h34.31.995,oddball,2022.1.2,59.73294594231815,
5,,,,,0,0,0,1,9,0,9,0,28,0,28,0,,,,,,,,,,,,,,,,,1067.8123699999414,None,1068.4962985999882,1069.0966574000195,1069.080102399923,1071.0813354998827,None,1,0.6139493798837066,2.6155805801972747,increament,0.6,15,standard,None,100,,,,,,,,f,18,212,fr,r,0,raw,2022-05-24_16h34.31.995,oddball,2022.1.2,59.73294594231815,
5,,,,,0,0,0,1,9,0,9,0,29,0,29,0,,,,,,,,,,,,,,,,,1071.0986764999107,None,1071.6474780999124,1072.3809052999131,1072.3478556000628,1074.3486461001448,None,0,0.7292300802655518,2.7300516800023615,increament,0.72,16,oddball,j,120,,,,,,,,f,18,212,fr,r,0,raw,2022-05-24_16h34.31.995,oddball,2022.1.2,59.73294594231815,
0,,,,,0,1,1,0,0,0,0,0,0,0,0,0,,,,,,,,,,,,,,,1323.6312140002847,None,1327.8443681001663,None,1328.4612552002072,1329.061677200254,1329.0450154002756,1331.0456294002943,None,1,0.6123331799171865,2.612950679846108,decreament,0.6,1,standard,None,100,,1254.4000208000652,None,1074.3884618999436,None,,,f,18,212,fr,r,0,raw,2022-05-24_16h34.31.995,oddball,2022.1.2,59.73294594231815,
0,,,,,0,1,1,0,0,0,0,0,1,0,1,0,,,,,,,,,,,,,,,,,1331.0625654999167,None,1331.646041000262,1332.2461862000637,1332.2294947002083,1334.2298226002604,None,1,0.6105797803029418,2.6108766803517938,decreament,0.6,1,standard,None,100,,,,,,,,f,18,212,fr,r,0,raw,2022-05-24_16h34.31.995,oddball,2022.1.2,59.73294594231815,
0,,,,,0,1,1,0,0,0,0,0,2,0,2,0,,,,,,,,,,,,,,,,,1334.2465376001783,None,1335.147172600031,1335.7472345000133,1335.730709800031,1337.7313234000467,None,1,0.6131472801789641,2.613755680155009,decreament,0.6,1,standard,None,100,,,,,,,,f,18,212,fr,r,0,raw,2022-05-24_16h34.31.995,oddball,2022.1.2,59.73294594231815,
0,,,,,0,1,1,0,0,0,0,0,3,0,3,0,,,,,,,,,,,,,,,,,1337.7481578001752,None,1338.3651331998408,1338.9654994001612,1338.9486350999214,1340.9496356002055,None,1,0.6117395800538361,2.612761380150914,decreament,0.6,1,standard,None,100,,,,,,,,f,18,212,fr,r,0,raw,2022-05-24_16h34.31.995,oddball,2022.1.2,59.73294594231815,
0,,,,,0,1,1,0,0,0,0,0,4,0,4,0,,,,,,,,,,,,,,,,,1340.9659784999676,None,1341.6498881001025,1342.2497482001781,1342.233065099921,1344.2342544998974,None,1,0.6119092805311084,2.6130991806276143,decreament,0.6,1,standard,None,100,,,,,,,,f,18,212,fr,r,0,raw,2022-05-24_16h34.31.995,oddball,2022.1.2,59.73294594231815,
0,,,,,0,1,1,0,0,0,0,0,5,0,5,0,,,,,,,,,,,,,,,,,1344.2506301002577,None,1344.8676125998609,1345.467917200178,1345.451204800047,1347.4518030001782,None,1,0.6131189800798893,2.6137096798047423,decreament,0.6,1,standard,None,100,,,,,,,,f,18,212,fr,r,0,raw,2022-05-24_16h34.31.995,oddball,2022.1.2,59.73294594231815,
0,,,,,0,1,1,0,0,0,0,0,6,0,6,0,,,,,,,,,,,,,,,,,1347.4685201002285,None,1348.1356248999946,1348.3856649002992,1348.3519911998883,1350.3529679998755,j,1,0.24519768031314015,2.2461858801543713,decreament,0.24,2,oddball,j,40,0.4426430999301374,,,,,,,f,18,212,fr,r,0,raw,2022-05-24_16h34.31.995,oddball,2022.1.2,59.73294594231815,
0,,,,,0,1,1,0,0,0,0,0,7,0,7,0,,,,,,,,,,,,,,,,,1350.3696441999637,None,1350.9535336000845,1351.5533830998465,1351.5369942001998,1353.5378115000203,None,1,0.6114130797795951,2.612149680033326,decreament,0.6,1,standard,None,100,,,,,,,,f,18,212,fr,r,0,raw,2022-05-24_16h34.31.995,oddball,2022.1.2,59.73294594231815,
0,,,,,0,1,1,0,0,0,0,0,8,0,8,0,,,,,,,,,,,,,,,,,1353.5542457001284,None,1354.1376938000321,1354.7378644999117,1354.7212078999728,1356.7220284002833,None,1,0.6126402798108757,2.6134519800543785,decreament,0.6,1,standard,None,100,,,,,,,,f,18,212,fr,r,0,raw,2022-05-24_16h34.31.995,oddball,2022.1.2,59.73294594231815,
0,,,,,0,1,1,0,0,0,0,0,9,0,9,0,,,,,,,,,,,,,,,,,1356.7387989000417,None,1357.4059274001047,1358.0060010002926,1357.98917610012,1359.9899804000743,None,1,0.6122598801739514,2.6130677801556885,decreament,0.6,1,standard,None,100,,,,,,,,f,18,212,fr,r,0,raw,2022-05-24_16h34.31.995,oddball,2022.1.2,59.73294594231815,
0,,,,,0,1,1,0,0,0,0,0,10,0,10,0,,,,,,,,,,,,,,,,,1360.00651249988,None,1360.6741654002108,1361.2742035998963,1361.2571546002291,1363.2577281999402,None,1,0.6096435799263418,2.6101915799081326,decreament,0.6,1,standard,None,100,,,,,,,,f,18,212,fr,r,0,raw,2022-05-24_16h34.31.995,oddball,2022.1.2,59.73294594231815,
0,,,,,0,1,1,0,0,0,0,0,11,0,11,0,,,,,,,,,,,,,,,,,1363.2744244001806,None,1363.8414925001562,1364.4414129001088,1364.4249185998924,1366.4258174998686,None,1,0.6121981800533831,2.6132082799449563,decreament,0.6,1,standard,None,100,,,,,,,,f,18,212,fr,r,0,raw,2022-05-24_16h34.31.995,oddball,2022.1.2,59.73294594231815,
0,,,,,0,1,1,0,0,0,0,0,12,0,12,0,,,,,,,,,,,,,,,,,1366.4422631002963,None,1367.1926811002195,1367.7928172000684,1367.7761225001886,1369.7772364001721,None,1,0.6121578798629344,2.613261479884386,decreament,0.6,1,standard,None,100,,,,,,,,f,18,212,fr,r,0,raw,2022-05-24_16h34.31.995,oddball,2022.1.2,59.73294594231815,
0,,,,,0,1,1,0,0,0,0,0,13,0,13,0,,,,,,,,,,,,,,,,,1369.79387280019,None,1370.427612300031,1371.0274906000122,1371.0108067998663,1373.0115073998459,None,1,0.611192679964006,2.6118695796467364,decreament,0.6,1,standard,None,100,,,,,,,,f,18,212,fr,r,0,raw,2022-05-24_16h34.31.995,oddball,2022.1.2,59.73294594231815,
0,,,,,0,1,1,0,0,0,0,0,14,0,14,0,,,,,,,,,,,,,,,,,1373.0282469000667,None,1373.6453658002429,1374.2454178002663,1374.2289943001233,1376.2294550002553,None,1,0.6120795798487961,2.612458179704845,decreament,0.6,1,standard,None,100,,,,,,,,f,18,212,fr,r,0,raw,2022-05-24_16h34.31.995,oddball,2022.1.2,59.73294594231815,
