grating_freq,blocks_prac.thisRepN,blocks_prac.thisTrialN,blocks_prac.thisN,blocks_prac.thisIndex,blocks.thisRepN,blocks.thisTrialN,blocks.thisN,blocks.thisIndex,repeat_freq.thisRepN,repeat_freq.thisTrialN,repeat_freq.thisN,repeat_freq.thisIndex,trials.thisRepN,trials.thisTrialN,trials.thisN,trials.thisIndex,break_loop.thisRepN,break_loop.thisTrialN,break_loop.thisN,break_loop.thisIndex,rest_loop.thisRepN,rest_loop.thisTrialN,rest_loop.thisN,rest_loop.thisIndex,instruct_prac_text.started,instruct_prac_text.stopped,b_instruct_text_2_.started,b_instruct_text_2_.stopped,prac_done_text.started,prac_done_text.stopped,instruct_text.started,instruct_text.stopped,fixation.started,fixation.stopped,grating.started,grating.stopped,blank.started,blank.stopped,resp.keys,resp.corr,resp.started,resp.stopped,direction,duration,trigger,stim_type,corr_ans,scaling,resp.rt,rest_text.started,rest_text.stopped,text_2.started,text_2.stopped,thx_txt.started,thx_txt.stopped,gender,age,participant,language,main_hand,nBlock_prac,file_suffix,date,expName,psychopyVersion,frameRate,
5,,,,,0,0,0,1,0,0,0,0,0,0,0,0,,,,,,,,,22.617870000191033,None,43.75916559994221,None,65.52439700020477,None,70.29258550005034,None,71.91949969995767,None,72.57351360004395,73.18643750017509,73.13669379986823,75.13759029982612,None,1,0.6116809598170221,2.6125974599272013,decreament,0.6,11,standard,None,100,,,,,,,,f,20,213,fr,l,0,raw,2022-05-25_10h38.55.509,oddball,2022.1.2,59.913030280493686,
5,,,,,0,0,0,1,0,0,0,0,1,0,1,0,,,,,,,,,,,,,,,,,75.15424080006778,None,75.87153339991346,76.47107100021094,76.45452130027115,78.45564729999751,None,1,0.6085404600016773,2.609745659865439,decreament,0.6,11,standard,None,100,,,,,,,,f,20,213,fr,l,0,raw,2022-05-25_10h38.55.509,oddball,2022.1.2,59.913030280493686,
5,,,,,0,0,0,1,0,0,0,0,2,0,2,0,,,,,,,,,,,,,,,,,78.47314519993961,None,79.03892360022292,79.63864659983665,79.622020999901,81.62329429993406,None,1,0.6121436599642038,2.613508759997785,decreament,0.6,11,standard,None,100,,,,,,,,f,20,213,fr,l,0,raw,2022-05-25_10h38.55.509,oddball,2022.1.2,59.913030280493686,
5,,,,,0,0,0,1,0,0,0,0,3,0,3,0,,,,,,,,,,,,,,,,,81.63978999992833,None,82.17375429999083,82.77391060022637,82.75727749988437,84.75763509981334,None,1,0.6086156591773033,2.6089719594456255,decreament,0.6,11,standard,None,100,,,,,,,,f,20,213,fr,l,0,raw,2022-05-25_10h38.55.509,oddball,2022.1.2,59.913030280493686,
5,,,,,0,0,0,1,0,0,0,0,4,0,4,0,,,,,,,,,,,,,,,,,84.77466250024736,None,85.45836010016501,86.05826870026067,86.04158980026841,88.04227790003642,None,1,0.6092386594973505,2.6099346596747637,decreament,0.6,11,standard,None,100,,,,,,,,f,20,213,fr,l,0,raw,2022-05-25_10h38.55.509,oddball,2022.1.2,59.913030280493686,
5,,,,,0,0,0,1,0,0,0,0,5,0,5,0,,,,,,,,,,,,,,,,,88.05911390017718,None,88.69279270013794,89.29263130016625,89.27602209988981,91.2768748998642,None,1,0.608778060413897,2.6096571600064635,decreament,0.6,11,standard,None,100,,,,,,,,f,20,213,fr,l,0,raw,2022-05-25_10h38.55.509,oddball,2022.1.2,59.913030280493686,
5,,,,,0,0,0,1,0,0,0,0,6,0,6,0,,,,,,,,,,,,,,,,,91.29368490027264,None,91.97725010011345,92.34421919984743,92.31075379997492,94.31156359985471,j,1,0.36318455962464213,2.364029459655285,decreament,0.36,13,oddball,j,60,0.6342075001448393,,,,,,,f,20,213,fr,l,0,raw,2022-05-25_10h38.55.509,oddball,2022.1.2,59.913030280493686,
5,,,,,0,0,0,1,0,0,0,0,7,0,7,0,,,,,,,,,,,,,,,,,94.3284950000234,None,95.11162250023335,95.71216929983348,95.69530470017344,97.69582730019465,None,1,0.6120879598893225,2.612701860256493,decreament,0.6,11,standard,None,100,,,,,,,,f,20,213,fr,l,0,raw,2022-05-25_10h38.55.509,oddball,2022.1.2,59.913030280493686,
5,,,,,0,0,0,1,0,0,0,0,8,0,8,0,,,,,,,,,,,,,,,,,97.71263349987566,None,98.31296900007874,98.91322180023417,98.89652989991009,100.89741600025445,None,1,0.6112606599926949,2.612180159892887,decreament,0.6,11,standard,None,100,,,,,,,,f,20,213,fr,l,0,raw,2022-05-25_10h38.55.509,oddball,2022.1.2,59.913030280493686,
5,,,,,0,0,0,1,0,0,0,0,9,0,9,0,,,,,,,,,,,,,,,,,100.91414120001718,None,101.66410059994087,102.26445659995079,102.24778519989923,104.24878469994292,None,1,0.6125251594930887,2.6135467598214746,decreament,0.6,11,standard,None,100,,,,,,,,f,20,213,fr,l,0,raw,2022-05-25_10h38.55.509,oddball,2022.1.2,59.913030280493686,
5,,,,,0,0,0,1,0,0,0,0,10,0,10,0,,,,,,,,,,,,,,,,,104.26532750017941,None,104.89862830005586,105.49943380011246,105.48279839986935,107.48290880024433,None,1,0.6149190594442189,2.614943159278482,decreament,0.6,11,standard,None,100,,,,,,,,f,20,213,fr,l,0,raw,2022-05-25_10h38.55.509,oddball,2022.1.2,59.913030280493686,
5,,,,,0,0,0,1,0,0,0,0,11,0,11,0,,,,,,,,,,,,,,,,,107.50008920021355,None,108.13349730009213,108.61693149991333,108.60020510014147,110.60088140005246,j,1,0.4929424594156444,2.49369635945186,decreament,0.48,14,oddball,j,80,1.0728659997694194,,,,,,,f,20,213,fr,l,0,raw,2022-05-25_10h38.55.509,oddball,2022.1.2,59.913030280493686,
5,,,,,0,0,0,1,0,0,0,0,12,0,12,0,,,,,,,,,,,,,,,,,110.61773810023442,None,111.26787090022117,111.86817569984123,111.85173750016838,113.85219130013138,None,1,0.6129651595838368,2.613422059454024,decreament,0.6,11,standard,None,100,,,,,,,,f,20,213,fr,l,0,raw,2022-05-25_10h38.55.509,oddball,2022.1.2,59.913030280493686,
5,,,,,0,0,0,1,0,0,0,0,13,0,13,0,,,,,,,,,,,,,,,,,113.86913659982383,None,114.53576700016856,115.13610089989379,115.11926069995388,117.12029500026256,None,1,0.6134731597267091,2.614488259423524,decreament,0.6,11,standard,None,100,,,,,,,,f,20,213,fr,l,0,raw,2022-05-25_10h38.55.509,oddball,2022.1.2,59.913030280493686,
5,,,,,0,0,0,1,0,0,0,0,14,0,14,0,,,,,,,,,,,,,,,,,117.13699480006471,None,117.73688369989395,118.33713559992611,118.32047889987007,120.32101469999179,None,1,0.6131113599985838,2.6136121600866318,decreament,0.6,11,standard,None,100,,,,,,,,f,20,213,fr,l,0,raw,2022-05-25_10h38.55.509,oddball,2022.1.2,59.913030280493686,
5,,,,,0,0,0,1,0,0,0,0,15,0,15,0,,,,,,,,,,,,,,,,,120.33787799999118,None,121.07153340009972,121.32146929996088,121.2885487000458,123.28895370010287,j,1,0.24487425945699215,2.24522165954113,decreament,0.24,12,oddball,j,40,0.792767200153321,,,,,,,f,20,213,fr,l,0,raw,2022-05-25_10h38.55.509,oddball,2022.1.2,59.913030280493686,
5,,,,,0,0,0,1,0,0,0,0,16,0,16,0,,,,,,,,,,,,,,,,,123.30592529987916,None,123.8727696002461,124.47308719996363,124.45653880015016,126.45687700016424,None,1,0.6115603595972061,2.611810759175569,decreament,0.6,11,standard,None,100,,,,,,,,f,20,213,fr,l,0,raw,2022-05-25_10h38.55.509,oddball,2022.1.2,59.913030280493686,
5,,,,,0,0,0,1,0,0,0,0,17,0,17,0,,,,,,,,,,,,,,,,,126.47361780004576,None,127.2238265001215,127.82404820015654,127.80737930024043,129.80856719985604,None,1,0.6127692596055567,2.6139916596002877,decreament,0.6,11,standard,None,100,,,,,,,,f,20,213,fr,l,0,raw,2022-05-25_10h38.55.509,oddball,2022.1.2,59.913030280493686,
5,,,,,0,0,0,1,0,0,0,0,18,0,18,0,,,,,,,,,,,,,,,,,129.8250644998625,None,130.47494379989803,131.07522779982537,131.05859210016206,133.05922489985824,None,1,0.6143436594866216,2.61497815977782,decreament,0.6,11,standard,None,100,,,,,,,,f,20,213,fr,l,0,raw,2022-05-25_10h38.55.509,oddball,2022.1.2,59.913030280493686,
5,,,,,0,0,0,1,0,0,0,0,19,0,19,0,,,,,,,,,,,,,,,,,133.0758998999372,None,133.79328350024298,134.39314239984378,134.37641290016472,136.37738420022652,None,1,0.6119386600330472,2.612931360024959,decreament,0.6,11,standard,None,100,,,,,,,,f,20,213,fr,l,0,raw,2022-05-25_10h38.55.509,oddball,2022.1.2,59.913030280493686,
5,,,,,0,0,0,1,0,0,0,0,20,0,20,0,,,,,,,,,,,,,,,,,136.39412750024348,None,137.14441459998488,137.74457739992067,137.72801179997623,139.7289356002584,None,1,0.6118016596883535,2.612727359868586,decreament,0.6,11,standard,None,100,,,,,,,,f,20,213,fr,l,0,raw,2022-05-25_10h38.55.509,oddball,2022.1.2,59.913030280493686,
5,,,,,0,0,0,1,0,0,0,0,21,0,21,0,,,,,,,,,,,,,,,,,139.7452703998424,None,140.31191880023107,140.9123231000267,140.89593710005283,142.89650040026754,None,1,0.6141803599894047,2.6147579601965845,decreament,0.6,11,standard,None,100,,,,,,,,f,20,213,fr,l,0,raw,2022-05-25_10h38.55.509,oddball,2022.1.2,59.913030280493686,
5,,,,,0,0,0,1,0,0,0,0,22,0,22,0,,,,,,,,,,,,,,,,,142.91324270004407,None,143.51369829988107,144.11367810005322,144.09696449991316,146.09765949985012,None,1,0.6102486602030694,2.6109644598327577,decreament,0.6,11,standard,None,100,,,,,,,,f,20,213,fr,l,0,raw,2022-05-25_10h38.55.509,oddball,2022.1.2,59.913030280493686,
5,,,,,0,0,0,1,0,0,0,0,23,0,23,0,,,,,,,,,,,,,,,,,146.1146583999507,None,146.7314456999302,147.33134690020233,147.31482970016077,149.3155228001997,None,1,0.6113600600510836,2.6120623601600528,decreament,0.6,11,standard,None,100,,,,,,,,f,20,213,fr,l,0,raw,2022-05-25_10h38.55.509,oddball,2022.1.2,59.913030280493686,
5,,,,,0,0,0,1,0,0,0,0,24,0,24,0,,,,,,,,,,,,,,,,,149.3321710000746,None,149.9830197999254,150.58273919997737,150.56591639993712,152.5669308998622,None,1,0.6118191597051919,2.6129087596200407,decreament,0.6,11,standard,None,100,,,,,,,,f,20,213,fr,l,0,raw,2022-05-25_10h38.55.509,oddball,2022.1.2,59.913030280493686,
5,,,,,0,0,0,1,0,0,0,0,25,0,25,0,,,,,,,,,,,,,,,,,152.58411779999733,None,153.30063989991322,153.90081499982625,153.88424530019984,155.8849849998951,None,1,0.6135344598442316,2.6142946598120034,decreament,0.6,11,standard,None,100,,,,,,,,f,20,213,fr,l,0,raw,2022-05-25_10h38.55.509,oddball,2022.1.2,59.913030280493686,
5,,,,,0,0,0,1,0,0,0,0,26,0,26,0,,,,,,,,,,,,,,,,,155.90221349988133,None,156.58518290007487,157.18508019996807,157.16845919983461,159.16954670008272,j,0,0.6111022597178817,2.6123625598847866,decreament,0.6,11,standard,None,100,1.0102987997233868,,,,,,,f,20,213,fr,l,0,raw,2022-05-25_10h38.55.509,oddball,2022.1.2,59.913030280493686,
5,,,,,0,0,0,1,0,0,0,0,27,0,27,0,,,,,,,,,,,,,,,,,159.18591800006106,None,159.8196919998154,160.41986390016973,160.40316680027172,162.40372910024598,None,1,0.6117021599784493,2.612269059754908,decreament,0.6,11,standard,None,100,,,,,,,,f,20,213,fr,l,0,raw,2022-05-25_10h38.55.509,oddball,2022.1.2,59.913030280493686,
5,,,,,0,0,0,1,0,0,0,0,28,0,28,0,,,,,,,,,,,,,,,,,162.42063189996406,None,163.13752119988203,163.73740850016475,163.72105679986998,165.72201550006866,None,1,0.6124591599218547,2.6134793595410883,decreament,0.6,11,standard,None,100,,,,,,,,f,20,213,fr,l,0,raw,2022-05-25_10h38.55.509,oddball,2022.1.2,59.913030280493686,
5,,,,,0,0,0,1,0,0,0,0,29,0,29,0,,,,,,,,,,,,,,,,,165.73863800009713,None,166.27206890005618,166.87245120014995,166.85538490023464,168.85638439981267,None,1,0.6117835598997772,2.612814959604293,decreament,0.6,11,standard,None,100,,,,,,,,f,20,213,fr,l,0,raw,2022-05-25_10h38.55.509,oddball,2022.1.2,59.913030280493686,
5,,,,,0,0,0,1,1,0,1,0,0,0,0,0,,,,,,,,,,,,,,,176.2399165998213,None,178.77662689983845,None,179.29374630004168,179.89411740005016,179.8771537002176,181.87809399981052,None,1,0.6098527600988746,2.6108549600467086,increament,0.6,15,standard,None,100,,168.8731145998463,None,,,,,f,20,213,fr,l,0,raw,2022-05-25_10h38.55.509,oddball,2022.1.2,59.913030280493686,
5,,,,,0,0,0,1,1,0,1,0,1,0,1,0,,,,,,,,,,,,,,,,,181.8969095000066,None,182.57846610015258,183.17825559992343,183.16165670007467,185.1626077000983,None,1,0.6115060597658157,2.612491259817034,increament,0.6,15,standard,None,100,,,,,,,,f,20,213,fr,l,0,raw,2022-05-25_10h38.55.509,oddball,2022.1.2,59.913030280493686,
5,,,,,0,0,0,1,1,0,1,0,2,0,2,0,,,,,,,,,,,,,,,,,185.17921019997448,None,185.81296950019896,186.41282980004326,186.39624080015346,188.3975832001306,None,1,0.6126400595530868,2.614049059804529,increament,0.6,15,standard,None,100,,,,,,,,f,20,213,fr,l,0,raw,2022-05-25_10h38.55.509,oddball,2022.1.2,59.913030280493686,
5,,,,,0,0,0,1,1,0,1,0,3,0,3,0,,,,,,,,,,,,,,,,,188.4135611001402,None,189.06415690016001,189.6640611998737,189.64764210022986,191.64856390003115,None,1,0.6103847599588335,2.611391860060394,increament,0.6,15,standard,None,100,,,,,,,,f,20,213,fr,l,0,raw,2022-05-25_10h38.55.509,oddball,2022.1.2,59.913030280493686,
5,,,,,0,0,0,1,1,0,1,0,4,0,4,0,,,,,,,,,,,,,,,,,191.66593030001968,None,192.4154511000961,193.01566709997132,192.99918550020084,194.9999192999676,None,1,0.6119607598520815,2.6126762595959008,increament,0.6,15,standard,None,100,,,,,,,,f,20,213,fr,l,0,raw,2022-05-25_10h38.55.509,oddball,2022.1.2,59.913030280493686,
5,,,,,0,0,0,1,1,0,1,0,5,0,5,0,,,,,,,,,,,,,,,,,195.01645360002294,None,195.53293540002778,196.13316000020131,196.1165179000236,198.11750830011442,None,1,0.6135684601031244,2.6145772598683834,increament,0.6,15,standard,None,100,,,,,,,,f,20,213,fr,l,0,raw,2022-05-25_10h38.55.509,oddball,2022.1.2,59.913030280493686,
5,,,,,0,0,0,1,1,0,1,0,6,0,6,0,,,,,,,,,,,,,,,,,198.1342130000703,None,198.85096090007573,199.45121170021594,199.4344252999872,201.43513230001554,None,1,0.6129434602335095,2.613640060182661,increament,0.6,15,standard,None,100,,,,,,,,f,20,213,fr,l,0,raw,2022-05-25_10h38.55.509,oddball,2022.1.2,59.913030280493686,
5,,,,,0,0,0,1,1,0,1,0,7,0,7,0,,,,,,,,,,,,,,,,,201.45169499982148,None,202.03562620002776,202.6356307999231,202.61895699985325,204.6200071000494,None,1,0.6123995599336922,2.6134477597661316,increament,0.6,15,standard,None,100,,,,,,,,f,20,213,fr,l,0,raw,2022-05-25_10h38.55.509,oddball,2022.1.2,59.913030280493686,
5,,,,,0,0,0,1,1,0,1,0,8,0,8,0,,,,,,,,,,,,,,,,,204.6365649001673,None,205.20353680010885,205.8036464001052,205.7873105998151,207.78771420009434,None,1,0.6108807600103319,2.6112229600548744,increament,0.6,15,standard,None,100,,,,,,,,f,20,213,fr,l,0,raw,2022-05-25_10h38.55.509,oddball,2022.1.2,59.913030280493686,
5,,,,,0,0,0,1,1,0,1,0,9,0,9,0,,,,,,,,,,,,,,,,,207.80455960007384,None,208.47178889997303,209.0716514000669,209.05479909991845,211.05592800024897,None,1,0.6078748600557446,2.6090308600105345,increament,0.6,15,standard,None,100,,,,,,,,f,20,213,fr,l,0,raw,2022-05-25_10h38.55.509,oddball,2022.1.2,59.913030280493686,
5,,,,,0,0,0,1,1,0,1,0,10,0,10,0,,,,,,,,,,,,,,,,,211.07245869981125,None,211.75589649984613,212.356008999981,212.33963430020958,214.3402808001265,None,1,0.6096799597144127,2.610422759782523,increament,0.6,15,standard,None,100,,,,,,,,f,20,213,fr,l,0,raw,2022-05-25_10h38.55.509,oddball,2022.1.2,59.913030280493686,
5,,,,,0,0,0,1,1,0,1,0,11,0,11,0,,,,,,,,,,,,,,,,,214.35709370020777,None,215.02374659990892,215.62410409981385,215.607472400181,217.60801859991625,None,1,0.6122823599725962,2.6128443595953286,increament,0.6,15,standard,None,100,,,,,,,,f,20,213,fr,l,0,raw,2022-05-25_10h38.55.509,oddball,2022.1.2,59.913030280493686,
5,,,,,0,0,0,1,1,0,1,0,12,0,12,0,,,,,,,,,,,,,,,,,217.62524389987811,None,218.30864020017907,218.90852669999003,218.89171899994835,220.89249669993296,None,1,0.6123289596289396,2.6131020593456924,increament,0.6,15,standard,None,100,,,,,,,,f,20,213,fr,l,0,raw,2022-05-25_10h38.55.509,oddball,2022.1.2,59.913030280493686,
5,,,,,0,0,0,1,1,0,1,0,13,0,13,0,,,,,,,,,,,,,,,,,220.90925440005958,None,221.44310060003772,222.04338489985093,222.02656130027026,224.02711760019884,None,1,0.6096952599473298,2.6102302600629628,increament,0.6,15,standard,None,100,,,,,,,,f,20,213,fr,l,0,raw,2022-05-25_10h38.55.509,oddball,2022.1.2,59.913030280493686,
5,,,,,0,0,0,1,1,0,1,0,14,0,14,0,,,,,,,,,,,,,,,,,224.0442599998787,None,224.59426619997248,225.19420319981873,225.17759199999273,227.17883680015802,None,1,0.6120558599941432,2.61340025998652,increament,0.6,15,standard,None,100,,,,,,,,f,20,213,fr,l,0,raw,2022-05-25_10h38.55.509,oddball,2022.1.2,59.913030280493686,
5,,,,,0,0,0,1,1,0,1,0,15,0,15,0,,,,,,,,,,,,,,,,,227.19501879997551,None,227.76246450003237,228.36211029998958,228.34536139992997,230.34648590022698,None,1,0.6090743602253497,2.610250160098076,increament,0.6,15,standard,None,100,,,,,,,,f,20,213,fr,l,0,raw,2022-05-25_10h38.55.509,oddball,2022.1.2,59.913030280493686,
5,,,,,0,0,0,1,1,0,1,0,16,0,16,0,,,,,,,,,,,,,,,,,230.36362309986725,None,230.9468554998748,231.91379120014608,231.88016040017828,233.8810441000387,j,1,0.9619427593424916,2.962903659325093,increament,0.96,18,oddball,j,160,0.5525200003758073,,,,,,,f,20,213,fr,l,0,raw,2022-05-25_10h38.55.509,oddball,2022.1.2,59.913030280493686,
5,,,,,0,0,0,1,1,0,1,0,17,0,17,0,,,,,,,,,,,,,,,,,233.8975797998719,None,234.43165649985895,235.031203399878,235.01505429996178,237.01566400006413,None,1,0.6125499592162669,2.6131681594997644,increament,0.6,15,standard,None,100,,,,,,,,f,20,213,fr,l,0,raw,2022-05-25_10h38.55.509,oddball,2022.1.2,59.913030280493686,
5,,,,,0,0,0,1,1,0,1,0,18,0,18,0,,,,,,,,,,,,,,,,,237.03223779983819,None,237.799113499932,238.39922899985686,238.3827547999099,240.3834072998725,None,1,0.6132477596402168,2.6139003597199917,increament,0.6,15,standard,None,100,,,,,,,,f,20,213,fr,l,0,raw,2022-05-25_10h38.55.509,oddball,2022.1.2,59.913030280493686,
5,,,,,0,0,0,1,1,0,1,0,19,0,19,0,,,,,,,,,,,,,,,,,240.4003511001356,None,241.0671302000992,241.66715969983488,241.6504668998532,243.6511941999197,None,1,0.6107314596883953,2.6114649595692754,increament,0.6,15,standard,None,100,,,,,,,,f,20,213,fr,l,0,raw,2022-05-25_10h38.55.509,oddball,2022.1.2,59.913030280493686,
5,,,,,0,0,0,1,1,0,1,0,20,0,20,0,,,,,,,,,,,,,,,,,243.6679209000431,None,244.38476590020582,244.985505099874,244.96871409984306,246.96920760022476,None,1,0.6136644594371319,2.6140982597135007,increament,0.6,15,standard,None,100,,,,,,,,f,20,213,fr,l,0,raw,2022-05-25_10h38.55.509,oddball,2022.1.2,59.913030280493686,
5,,,,,0,0,0,1,1,0,1,0,21,0,21,0,,,,,,,,,,,,,,,,,246.98579009994864,None,247.73614710010588,248.336586299818,248.32016390003264,250.3202011999674,None,1,0.6144729596562684,2.6144097596406937,increament,0.6,15,standard,None,100,,,,,,,,f,20,213,fr,l,0,raw,2022-05-25_10h38.55.509,oddball,2022.1.2,59.913030280493686,
5,,,,,0,0,0,1,1,0,1,0,22,0,22,0,,,,,,,,,,,,,,,,,250.33705200022087,None,251.0537073998712,251.65441479999572,251.637554500252,253.63834160007536,None,1,0.6148793599568307,2.615628459956497,increament,0.6,15,standard,None,100,,,,,,,,f,20,213,fr,l,0,raw,2022-05-25_10h38.55.509,oddball,2022.1.2,59.913030280493686,
5,,,,,0,0,0,1,1,0,1,0,23,0,23,0,,,,,,,,,,,,,,,,,253.65495890006423,None,254.25529030011967,255.10554679995403,255.07220809999853,257.07326520001516,None,0,0.8455220595933497,2.846633459441364,increament,0.84,17,oddball,j,140,,,,,,,,f,20,213,fr,l,0,raw,2022-05-25_10h38.55.509,oddball,2022.1.2,59.913030280493686,
5,,,,,0,0,0,1,1,0,1,0,24,0,24,0,,,,,,,,,,,,,,,,,257.0898011000827,None,257.69015080016106,258.29003569995984,258.27361280005425,260.27429059986025,None,1,0.610400059260428,2.611074859276414,increament,0.6,15,standard,None,100,,,,,,,,f,20,213,fr,l,0,raw,2022-05-25_10h38.55.509,oddball,2022.1.2,59.913030280493686,
5,,,,,0,0,0,1,1,0,1,0,25,0,25,0,,,,,,,,,,,,,,,,,260.2907409998588,None,261.0081609999761,261.60833729989827,261.59139840025455,263.59219110012054,None,1,0.6122347596101463,2.6130183595232666,increament,0.6,15,standard,None,100,,,,,,,,f,20,213,fr,l,0,raw,2022-05-25_10h38.55.509,oddball,2022.1.2,59.913030280493686,
5,,,,,0,0,0,1,1,0,1,0,26,0,26,0,,,,,,,,,,,,,,,,,263.6087744999677,None,264.12554890010506,264.72634400008246,264.7093012998812,266.7098890999332,None,1,0.6133926599286497,2.613956659566611,increament,0.6,15,standard,None,100,,,,,,,,f,20,213,fr,l,0,raw,2022-05-25_10h38.55.509,oddball,2022.1.2,59.913030280493686,
5,,,,,0,0,0,1,1,0,1,0,27,0,27,0,,,,,,,,,,,,,,,,,266.7270161998458,None,267.3269652999006,268.06073490018025,268.02771160006523,270.0281026000157,None,0,0.7296936600469053,2.730059760157019,increament,0.72,16,oddball,j,120,,,,,,,,f,20,213,fr,l,0,raw,2022-05-25_10h38.55.509,oddball,2022.1.2,59.913030280493686,
5,,,,,0,0,0,1,1,0,1,0,28,0,28,0,,,,,,,,,,,,,,,,,270.0448397002183,None,270.61159220011905,271.2118604001589,271.1950759999454,273.19623599993065,None,1,0.6122627598233521,2.613519359380007,increament,0.6,15,standard,None,100,,,,,,,,f,20,213,fr,l,0,raw,2022-05-25_10h38.55.509,oddball,2022.1.2,59.913030280493686,
5,,,,,0,0,0,1,1,0,1,0,29,0,29,0,,,,,,,,,,,,,,,,,273.2122788000852,None,273.81259230012074,274.4127103998326,274.39630160015076,276.39715960016474,None,1,0.6135432599112391,2.6144104599952698,increament,0.6,15,standard,None,100,,,,,,,,f,20,213,fr,l,0,raw,2022-05-25_10h38.55.509,oddball,2022.1.2,59.913030280493686,
5,,,,,0,0,0,1,2,0,2,0,0,0,0,0,,,,,,,,,,,,,,,279.42119840020314,None,280.9321424001828,None,281.532230200246,282.132805199828,282.1159493001178,284.1166129000485,None,1,0.611875259783119,2.6125104599632323,decreament,0.6,11,standard,None,100,,276.41421109996736,None,,,,,f,20,213,fr,l,0,raw,2022-05-25_10h38.55.509,oddball,2022.1.2,59.913030280493686,
5,,,,,0,0,0,1,2,0,2,0,1,0,1,0,,,,,,,,,,,,,,,,,284.13316280022264,None,284.71691820025444,285.31692390004173,285.30047950008884,287.30096800019965,None,1,0.6119955596514046,2.612481559626758,decreament,0.6,11,standard,None,100,,,,,,,,f,20,213,fr,l,0,raw,2022-05-25_10h38.55.509,oddball,2022.1.2,59.913030280493686,
5,,,,,0,0,0,1,2,0,2,0,2,0,2,0,,,,,,,,,,,,,,,,,287.3178925998509,None,288.1355544999242,288.73499319981784,288.7183488002047,290.7198169999756,None,1,0.6077632601372898,2.6093742600642145,decreament,0.6,11,standard,None,100,,,,,,,,f,20,213,fr,l,0,raw,2022-05-25_10h38.55.509,oddball,2022.1.2,59.913030280493686,
5,,,,,0,0,0,1,2,0,2,0,3,0,3,0,,,,,,,,,,,,,,,,,290.7356858002022,None,291.53650330007076,292.1362362001091,292.11973559996113,294.1202763998881,None,1,0.6092146602459252,2.6097532603889704,decreament,0.6,11,standard,None,100,,,,,,,,f,20,213,fr,l,0,raw,2022-05-25_10h38.55.509,oddball,2022.1.2,59.913030280493686,
5,,,,,0,0,0,1,2,0,2,0,4,0,4,0,,,,,,,,,,,,,,,,,294.137222699821,None,294.704020800069,295.30397089989856,295.28728260006756,297.28797519998625,None,1,0.6128572602756321,2.61354636028409,decreament,0.6,11,standard,None,100,,,,,,,,f,20,213,fr,l,0,raw,2022-05-25_10h38.55.509,oddball,2022.1.2,59.913030280493686,
5,,,,,0,0,0,1,2,0,2,0,5,0,5,0,,,,,,,,,,,,,,,,,297.30468610022217,None,297.9218343999237,298.5220845998265,298.50530009996146,300.506010199897,None,1,0.6126360599882901,2.613369659986347,decreament,0.6,11,standard,None,100,,,,,,,,f,20,213,fr,l,0,raw,2022-05-25_10h38.55.509,oddball,2022.1.2,59.913030280493686,
5,,,,,0,0,0,1,2,0,2,0,6,0,6,0,,,,,,,,,,,,,,,,,300.52290600026026,None,301.1231827000156,301.72338270023465,301.7065984001383,303.7071998999454,None,1,0.6126745603978634,2.6132592600770295,decreament,0.6,11,standard,None,100,,,,,,,,f,20,213,fr,l,0,raw,2022-05-25_10h38.55.509,oddball,2022.1.2,59.913030280493686,
5,,,,,0,0,0,1,2,0,2,0,7,0,7,0,,,,,,,,,,,,,,,,,303.7240928998217,None,304.3908481998369,304.8747784001753,304.85802150005475,306.8588535999879,None,0,0.49574815947562456,2.496594859752804,decreament,0.48,14,oddball,j,80,,,,,,,,f,20,213,fr,l,0,raw,2022-05-25_10h38.55.509,oddball,2022.1.2,59.913030280493686,
5,,,,,0,0,0,1,2,0,2,0,8,0,8,0,,,,,,,,,,,,,,,,,306.8752982998267,None,307.5258551998995,308.1259118001908,308.1093705999665,310.11001530010253,None,1,0.6095633595250547,2.6101924595423043,decreament,0.6,11,standard,None,100,,,,,,,,f,20,213,fr,l,0,raw,2022-05-25_10h38.55.509,oddball,2022.1.2,59.913030280493686,
5,,,,,0,0,0,1,2,0,2,0,9,0,9,0,,,,,,,,,,,,,,,,,310.12660029996186,None,310.7602190999314,311.3599005001597,311.34327429998666,313.34486840013415,None,1,0.6121984594501555,2.6138825598172843,decreament,0.6,11,standard,None,100,,,,,,,,f,20,213,fr,l,0,raw,2022-05-25_10h38.55.509,oddball,2022.1.2,59.913030280493686,
5,,,,,0,0,0,1,2,0,2,0,10,0,10,0,,,,,,,,,,,,,,,,,313.3610944999382,None,313.96127820014954,314.5613855002448,314.54511820012704,316.5455706999637,None,1,0.612016059923917,2.6124703595414758,decreament,0.6,11,standard,None,100,,,,,,,,f,20,213,fr,l,0,raw,2022-05-25_10h38.55.509,oddball,2022.1.2,59.913030280493686,
5,,,,,0,0,0,1,2,0,2,0,11,0,11,0,,,,,,,,,,,,,,,,,316.5624057999812,None,317.11265010014176,317.7125575998798,317.6959294001572,319.6969212000258,None,1,0.6120419600047171,2.6131304600276053,decreament,0.6,11,standard,None,100,,,,,,,,f,20,213,fr,l,0,raw,2022-05-25_10h38.55.509,oddball,2022.1.2,59.913030280493686,
5,,,,,0,0,0,1,2,0,2,0,12,0,12,0,,,,,,,,,,,,,,,,,319.7134822998196,None,320.2808956000954,320.880362899974,320.86371110007167,322.86436229990795,j,0,0.6113646598532796,2.611982859671116,decreament,0.6,11,standard,None,100,0.8881359999068081,,,,,,,f,20,213,fr,l,0,raw,2022-05-25_10h38.55.509,oddball,2022.1.2,59.913030280493686,
5,,,,,0,0,0,1,2,0,2,0,13,0,13,0,,,,,,,,,,,,,,,,,322.8812040002085,None,323.53175229998305,324.1321093002334,324.1150989001617,326.11582309985533,None,1,0.6123839598149061,2.613054759800434,decreament,0.6,11,standard,None,100,,,,,,,,f,20,213,fr,l,0,raw,2022-05-25_10h38.55.509,oddball,2022.1.2,59.913030280493686,
5,,,,,0,0,0,1,2,0,2,0,14,0,14,0,,,,,,,,,,,,,,,,,326.13269119989127,None,326.766144500114,327.36628190008923,327.35002950020134,329.3505012001842,None,1,0.6122051598504186,2.61265855981037,decreament,0.6,11,standard,None,100,,,,,,,,f,20,213,fr,l,0,raw,2022-05-25_10h38.55.509,oddball,2022.1.2,59.913030280493686,
5,,,,,0,0,0,1,2,0,2,0,15,0,15,0,,,,,,,,,,,,,,,,,329.3671031999402,None,329.9840301000513,330.5840957001783,330.5677314000204,332.56784459995106,None,1,0.6128889601677656,2.6129400599747896,decreament,0.6,11,standard,None,100,,,,,,,,f,20,213,fr,l,0,raw,2022-05-25_10h38.55.509,oddball,2022.1.2,59.913030280493686,
5,,,,,0,0,0,1,2,0,2,0,16,0,16,0,,,,,,,,,,,,,,,,,332.5845488999039,None,333.2185062998906,333.8189377998933,333.8025430999696,335.8029756001197,None,1,0.6117617595009506,2.612171159591526,decreament,0.6,11,standard,None,100,,,,,,,,f,20,213,fr,l,0,raw,2022-05-25_10h38.55.509,oddball,2022.1.2,59.913030280493686,
5,,,,,0,0,0,1,2,0,2,0,17,0,17,0,,,,,,,,,,,,,,,,,335.81923640007153,None,336.5364904999733,336.78649369999766,336.7532398002222,338.7536833002232,j,1,0.24682945990934968,2.24724886007607,decreament,0.24,12,oddball,j,40,0.727659999858588,,,,,,,f,20,213,fr,l,0,raw,2022-05-25_10h38.55.509,oddball,2022.1.2,59.913030280493686,
5,,,,,0,0,0,1,2,0,2,0,18,0,18,0,,,,,,,,,,,,,,,,,338.77063440019265,None,339.4206344000995,340.02104619983584,340.004525099881,342.0053329002112,None,1,0.6112345596775413,2.612091059796512,decreament,0.6,11,standard,None,100,,,,,,,,f,20,213,fr,l,0,raw,2022-05-25_10h38.55.509,oddball,2022.1.2,59.913030280493686,
5,,,,,0,0,0,1,2,0,2,0,19,0,19,0,,,,,,,,,,,,,,,,,342.02278160024434,None,342.8053680998273,343.4056815998629,343.38890070002526,345.3898159000091,None,1,0.6143082599155605,2.615231960080564,decreament,0.6,11,standard,None,100,,,,,,,,f,20,213,fr,l,0,raw,2022-05-25_10h38.55.509,oddball,2022.1.2,59.913030280493686,
5,,,,,0,0,0,1,2,0,2,0,20,0,20,0,,,,,,,,,,,,,,,,,345.4067569002509,None,345.94016140000895,346.54019640013576,346.52386859990656,348.52431959984824,None,1,0.6126205595210195,2.6129974597133696,decreament,0.6,11,standard,None,100,,,,,,,,f,20,213,fr,l,0,raw,2022-05-25_10h38.55.509,oddball,2022.1.2,59.913030280493686,
5,,,,,0,0,0,1,2,0,2,0,21,0,21,0,,,,,,,,,,,,,,,,,348.5409287000075,None,349.14111470011994,349.7417005999014,349.72506210021675,351.7257098001428,None,1,0.6144878594204783,2.6150848595425487,decreament,0.6,11,standard,None,100,,,,,,,,f,20,213,fr,l,0,raw,2022-05-25_10h38.55.509,oddball,2022.1.2,59.913030280493686,
5,,,,,0,0,0,1,2,0,2,0,22,0,22,0,,,,,,,,,,,,,,,,,351.74225680017844,None,352.6593761998229,353.2595763001591,353.24279800010845,355.24375319993123,None,1,0.6132222595624626,2.6142348595894873,decreament,0.6,11,standard,None,100,,,,,,,,f,20,213,fr,l,0,raw,2022-05-25_10h38.55.509,oddball,2022.1.2,59.913030280493686,
5,,,,,0,0,0,1,2,0,2,0,23,0,23,0,,,,,,,,,,,,,,,,,355.26006740005687,None,355.94405810022727,356.54431889997795,356.5274101998657,358.5287277000025,None,1,0.6100270599126816,2.6114307600073516,decreament,0.6,11,standard,None,100,,,,,,,,f,20,213,fr,l,0,raw,2022-05-25_10h38.55.509,oddball,2022.1.2,59.913030280493686,
5,,,,,0,0,0,1,2,0,2,0,24,0,24,0,,,,,,,,,,,,,,,,,358.545763600152,None,359.07815119996667,359.6783743002452,359.6620153998956,361.66276689991355,j,0,0.6142951599322259,2.6151039600372314,decreament,0.6,11,standard,None,100,1.3856047000735998,,,,,,,f,20,213,fr,l,0,raw,2022-05-25_10h38.55.509,oddball,2022.1.2,59.913030280493686,
5,,,,,0,0,0,1,2,0,2,0,25,0,25,0,,,,,,,,,,,,,,,,,361.6792498999275,None,362.31296200025827,362.91301200026646,362.8962509999983,364.89755629980937,None,1,0.6121580596081913,2.6135687599889934,decreament,0.6,11,standard,None,100,,,,,,,,f,20,213,fr,l,0,raw,2022-05-25_10h38.55.509,oddball,2022.1.2,59.913030280493686,
5,,,,,0,0,0,1,2,0,2,0,26,0,26,0,,,,,,,,,,,,,,,,,364.9144044998102,None,365.6811263002455,366.28098420007154,366.26465420005843,368.2653156998567,None,1,0.6124177598394454,2.6130304597318172,decreament,0.6,11,standard,None,100,,,,,,,,f,20,213,fr,l,0,raw,2022-05-25_10h38.55.509,oddball,2022.1.2,59.913030280493686,
5,,,,,0,0,0,1,2,0,2,0,27,0,27,0,,,,,,,,,,,,,,,,,368.2818342000246,None,368.898638300132,369.2654539998621,369.2324442001991,371.23317199992016,j,1,0.3629140593111515,2.3636057595722377,decreament,0.36,13,oddball,j,60,0.5515364003367722,,,,,,,f,20,213,fr,l,0,raw,2022-05-25_10h38.55.509,oddball,2022.1.2,59.913030280493686,
5,,,,,0,0,0,1,2,0,2,0,28,0,28,0,,,,,,,,,,,,,,,,,371.2496587000787,None,371.9663113998249,372.56703040003777,372.5506615000777,374.5509750000201,None,1,0.6151248598471284,2.61539895972237,decreament,0.6,11,standard,None,100,,,,,,,,f,20,213,fr,l,0,raw,2022-05-25_10h38.55.509,oddball,2022.1.2,59.913030280493686,
5,,,,,0,0,0,1,2,0,2,0,29,0,29,0,,,,,,,,,,,,,,,,,374.56750589981675,None,375.10124860005453,375.701473900117,375.6851154998876,377.6855191998184,None,1,0.6126262601464987,2.6129785599187016,decreament,0.6,11,standard,None,100,,,,,,,,f,20,213,fr,l,0,raw,2022-05-25_10h38.55.509,oddball,2022.1.2,59.913030280493686,
5,,,,,0,0,0,1,3,0,3,0,0,0,0,0,,,,,,,,,,,,,,,384.91597899980843,None,386.60570590011775,None,387.27257200004533,387.8728625001386,387.85593149997294,389.8569876002148,None,1,0.6121461596339941,2.6131662596017122,increament,0.6,15,standard,None,100,,377.7033421001397,None,,,,,f,20,213,fr,l,0,raw,2022-05-25_10h38.55.509,oddball,2022.1.2,59.913030280493686,
5,,,,,0,0,0,1,3,0,3,0,1,0,1,0,,,,,,,,,,,,,,,,,389.8732087998651,None,390.4068831000477,391.00722640007734,390.99072120012715,392.9909485001117,None,1,0.6118377596139908,2.61198975937441,increament,0.6,15,standard,None,100,,,,,,,,f,20,213,fr,l,0,raw,2022-05-25_10h38.55.509,oddball,2022.1.2,59.913030280493686,
5,,,,,0,0,0,1,3,0,3,0,2,0,2,0,,,,,,,,,,,,,,,,,393.00759320007637,None,393.5249544000253,394.1251592999324,394.10856059985235,396.1091554001905,None,1,0.6126882596872747,2.6132897594943643,increament,0.6,15,standard,None,100,,,,,,,,f,20,213,fr,l,0,raw,2022-05-25_10h38.55.509,oddball,2022.1.2,59.913030280493686,
5,,,,,0,0,0,1,3,0,3,0,3,0,3,0,,,,,,,,,,,,,,,,,396.12583289993927,None,396.8261303999461,397.42643229989335,397.40951779996976,399.4103989000432,None,1,0.6125079598277807,2.6134298597462475,increament,0.6,15,standard,None,100,,,,,,,,f,20,213,fr,l,0,raw,2022-05-25_10h38.55.509,oddball,2022.1.2,59.913030280493686,
5,,,,,0,0,0,1,3,0,3,0,4,0,4,0,,,,,,,,,,,,,,,,,399.4271994000301,None,399.9772283998318,400.57771230023354,400.56102789985016,402.5617192001082,None,1,0.6130997599102557,2.613798659760505,increament,0.6,15,standard,None,100,,,,,,,,f,20,213,fr,l,0,raw,2022-05-25_10h38.55.509,oddball,2022.1.2,59.913030280493686,
5,,,,,0,0,0,1,3,0,3,0,5,0,5,0,,,,,,,,,,,,,,,,,402.5781626999378,None,403.19504310004413,403.7954835998826,403.7790441000834,405.7798099000938,None,1,0.6129163596779108,2.6136803599074483,increament,0.6,15,standard,None,100,,,,,,,,f,20,213,fr,l,0,raw,2022-05-25_10h38.55.509,oddball,2022.1.2,59.913030280493686,
5,,,,,0,0,0,1,3,0,3,0,6,0,6,0,,,,,,,,,,,,,,,,,405.7968164002523,None,406.5798940998502,407.180138300173,407.1631017001346,409.16432060021907,None,1,0.613535659853369,2.614839759655297,increament,0.6,15,standard,None,100,,,,,,,,f,20,213,fr,l,0,raw,2022-05-25_10h38.55.509,oddball,2022.1.2,59.913030280493686,
5,,,,,0,0,0,1,3,0,3,0,7,0,7,0,,,,,,,,,,,,,,,,,409.1812133002095,None,409.78075860021636,410.38118010014296,410.36472700024024,412.3651773999445,None,1,0.6124972593970597,2.612884459551424,increament,0.6,15,standard,None,100,,,,,,,,f,20,213,fr,l,0,raw,2022-05-25_10h38.55.509,oddball,2022.1.2,59.913030280493686,
5,,,,,0,0,0,1,3,0,3,0,8,0,8,0,,,,,,,,,,,,,,,,,412.38180450024083,None,412.98218319984153,413.582837600261,413.56588640017435,415.5665195998736,None,1,0.6126697598956525,2.6132884598337114,increament,0.6,15,standard,None,100,,,,,,,,f,20,213,fr,l,0,raw,2022-05-25_10h38.55.509,oddball,2022.1.2,59.913030280493686,
5,,,,,0,0,0,1,3,0,3,0,9,0,9,0,,,,,,,,,,,,,,,,,415.5832171998918,None,416.3666284000501,416.96686499984935,416.9501487999223,418.950915500056,None,1,0.6141116600483656,2.6148714600130916,increament,0.6,15,standard,None,100,,,,,,,,f,20,213,fr,l,0,raw,2022-05-25_10h38.55.509,oddball,2022.1.2,59.913030280493686,
5,,,,,0,0,0,1,3,0,3,0,10,0,10,0,,,,,,,,,,,,,,,,,418.9675786998123,None,419.65125689981505,420.25142960017547,420.2354211998172,422.2357357000001,None,1,0.6131279594264925,2.6134204594418406,increament,0.6,15,standard,None,100,,,,,,,,f,20,213,fr,l,0,raw,2022-05-25_10h38.55.509,oddball,2022.1.2,59.913030280493686,
5,,,,,0,0,0,1,3,0,3,0,11,0,11,0,,,,,,,,,,,,,,,,,422.25263909995556,None,422.8697513998486,423.4693436999805,423.4525607000105,425.45331849996,None,1,0.6110935597680509,2.6118432600051165,increament,0.6,15,standard,None,100,,,,,,,,f,20,213,fr,l,0,raw,2022-05-25_10h38.55.509,oddball,2022.1.2,59.913030280493686,
5,,,,,0,0,0,1,3,0,3,0,12,0,12,0,,,,,,,,,,,,,,,,,425.47021020017564,None,426.0374886998907,426.63744590012357,426.62062089983374,428.62162610003725,None,1,0.6092908596619964,2.6102708596736193,increament,0.6,15,standard,None,100,,,,,,,,f,20,213,fr,l,0,raw,2022-05-25_10h38.55.509,oddball,2022.1.2,59.913030280493686,
5,,,,,0,0,0,1,3,0,3,0,13,0,13,0,,,,,,,,,,,,,,,,,428.6380618000403,None,429.2882802998647,429.88851589988917,429.8720876998268,431.8725248002447,None,1,0.610517059918493,2.610931859817356,increament,0.6,15,standard,None,100,,,,,,,,f,20,213,fr,l,0,raw,2022-05-25_10h38.55.509,oddball,2022.1.2,59.913030280493686,
5,,,,,0,0,0,1,3,0,3,0,14,0,14,0,,,,,,,,,,,,,,,,,431.88937909994274,None,432.63975349999964,433.2397504001856,433.22316850023344,435.22402200009674,None,1,0.6103657600469887,2.6112598599866033,increament,0.6,15,standard,None,100,,,,,,,,f,20,213,fr,l,0,raw,2022-05-25_10h38.55.509,oddball,2022.1.2,59.913030280493686,
5,,,,,0,0,0,1,3,0,3,0,15,0,15,0,,,,,,,,,,,,,,,,,435.2410766999237,None,435.87426640000194,436.47423639986664,436.45815580012277,438.45861690025777,None,1,0.6126172598451376,2.613311759661883,increament,0.6,15,standard,None,100,,,,,,,,f,20,213,fr,l,0,raw,2022-05-25_10h38.55.509,oddball,2022.1.2,59.913030280493686,
5,,,,,0,0,0,1,3,0,3,0,16,0,16,0,,,,,,,,,,,,,,,,,438.4751439001411,None,439.0921938000247,439.94237369997427,439.9092097999528,441.909460300114,None,0,0.8449493595398962,2.845122459344566,increament,0.84,17,oddball,j,140,,,,,,,,f,20,213,fr,l,0,raw,2022-05-25_10h38.55.509,oddball,2022.1.2,59.913030280493686,
5,,,,,0,0,0,1,3,0,3,0,17,0,17,0,,,,,,,,,,,,,,,,,441.92616009991616,None,442.64331539999694,443.2435368001461,443.2269554999657,445.22767340019345,None,1,0.6124184601940215,2.613148760050535,increament,0.6,15,standard,None,100,,,,,,,,f,20,213,fr,l,0,raw,2022-05-25_10h38.55.509,oddball,2022.1.2,59.913030280493686,
5,,,,,0,0,0,1,3,0,3,0,18,0,18,0,,,,,,,,,,,,,,,,,445.24431899981573,None,445.861738699954,446.4615839999169,446.4449276998639,448.4453686000779,None,1,0.6095411605201662,2.6099412604235113,increament,0.6,15,standard,None,100,,,,,,,,f,20,213,fr,l,0,raw,2022-05-25_10h38.55.509,oddball,2022.1.2,59.913030280493686,
5,,,,,0,0,0,1,3,0,3,0,19,0,19,0,,,,,,,,,,,,,,,,,448.4622897999361,None,449.12955129984766,449.7293834001757,449.7129911002703,451.71348820021376,None,1,0.6117292600683868,2.6122192600741982,increament,0.6,15,standard,None,100,,,,,,,,f,20,213,fr,l,0,raw,2022-05-25_10h38.55.509,oddball,2022.1.2,59.913030280493686,
5,,,,,0,0,0,1,3,0,3,0,20,0,20,0,,,,,,,,,,,,,,,,,451.73027889989316,None,452.41394290002063,453.01386609999463,452.99731400003657,454.99835130013525,None,1,0.6088914601132274,2.609981060028076,increament,0.6,15,standard,None,100,,,,,,,,f,20,213,fr,l,0,raw,2022-05-25_10h38.55.509,oddball,2022.1.2,59.913030280493686,
5,,,,,0,0,0,1,3,0,3,0,21,0,21,0,,,,,,,,,,,,,,,,,455.0146802002564,None,455.54819309990853,456.14825760014355,456.1316349999979,458.13276770012453,None,1,0.6131142601370811,2.6143474597483873,increament,0.6,15,standard,None,100,,,,,,,,f,20,213,fr,l,0,raw,2022-05-25_10h38.55.509,oddball,2022.1.2,59.913030280493686,
5,,,,,0,0,0,1,3,0,3,0,22,0,22,0,,,,,,,,,,,,,,,,,458.15055230027065,None,458.83302639983594,459.4327889000997,459.41630120016634,461.41704760026187,None,1,0.6090707597322762,2.609850859735161,increament,0.6,15,standard,None,100,,,,,,,,f,20,213,fr,l,0,raw,2022-05-25_10h38.55.509,oddball,2022.1.2,59.913030280493686,
5,,,,,0,0,0,1,3,0,3,0,23,0,23,0,,,,,,,,,,,,,,,,,461.43393999990076,None,462.10102109983563,462.70103379990906,462.6843051998876,464.68526840023696,None,1,0.6106477598659694,2.611685659736395,increament,0.6,15,standard,None,100,,,,,,,,f,20,213,fr,l,0,raw,2022-05-25_10h38.55.509,oddball,2022.1.2,59.913030280493686,
5,,,,,0,0,0,1,3,0,3,0,24,0,24,0,,,,,,,,,,,,,,,,,464.70182859990746,None,465.2521302001551,465.9856865000911,465.95247309980914,467.9532591998577,None,0,0.7248097597621381,2.725736659951508,increament,0.72,16,oddball,j,120,,,,,,,,f,20,213,fr,l,0,raw,2022-05-25_10h38.55.509,oddball,2022.1.2,59.913030280493686,
5,,,,,0,0,0,1,3,0,3,0,25,0,25,0,,,,,,,,,,,,,,,,,467.9702913002111,None,468.7367194001563,469.33668280020356,469.3205483998172,471.3207982000895,None,1,0.6116660595871508,2.61183805949986,increament,0.6,15,standard,None,100,,,,,,,,f,20,213,fr,l,0,raw,2022-05-25_10h38.55.509,oddball,2022.1.2,59.913030280493686,
5,,,,,0,0,0,1,3,0,3,0,26,0,26,0,,,,,,,,,,,,,,,,,471.33740819990635,None,472.12125759990886,472.7216023998335,472.7051729001105,474.70561730023474,None,1,0.6134748598560691,2.6139094596728683,increament,0.6,15,standard,None,100,,,,,,,,f,20,213,fr,l,0,raw,2022-05-25_10h38.55.509,oddball,2022.1.2,59.913030280493686,
5,,,,,0,0,0,1,3,0,3,0,27,0,27,0,,,,,,,,,,,,,,,,,474.7223831000738,None,475.52258019987494,476.12274930020794,476.105881200172,478.1065599001013,None,1,0.6106348601169884,2.611297960393131,increament,0.6,15,standard,None,100,,,,,,,,f,20,213,fr,l,0,raw,2022-05-25_10h38.55.509,oddball,2022.1.2,59.913030280493686,
5,,,,,0,0,0,1,3,0,3,0,28,0,28,0,,,,,,,,,,,,,,,,,478.12338240025565,None,478.89067430002615,479.85782880010083,479.82462720014155,481.82496070023626,None,0,0.9626043601892889,2.962949660141021,increament,0.96,18,oddball,j,160,,,,,,,,f,20,213,fr,l,0,raw,2022-05-25_10h38.55.509,oddball,2022.1.2,59.913030280493686,
5,,,,,0,0,0,1,3,0,3,0,29,0,29,0,,,,,,,,,,,,,,,,,481.8425348000601,None,482.4919821000658,483.0921255000867,483.0753859002143,485.0764613999054,None,1,0.6096753594465554,2.6107843592762947,increament,0.6,15,standard,None,100,,,,,,,,f,20,213,fr,l,0,raw,2022-05-25_10h38.55.509,oddball,2022.1.2,59.913030280493686,
5,,,,,0,0,0,1,4,0,4,0,0,0,0,0,,,,,,,,,,,,,,,495.508054099977,None,496.7806124002673,None,497.547663200181,498.14774479996413,498.1313001001254,500.13185429992154,None,1,0.6117731593549252,2.612341159489006,decreament,0.6,11,standard,None,100,,485.0943252998404,None,,,,,f,20,213,fr,l,0,raw,2022-05-25_10h38.55.509,oddball,2022.1.2,59.913030280493686,
5,,,,,0,0,0,1,4,0,4,0,1,0,1,0,,,,,,,,,,,,,,,,,500.1488327002153,None,500.83230949984863,501.43236370012164,501.41612840024754,503.4163660001941,None,1,0.6117167598567903,2.6118946596980095,decreament,0.6,11,standard,None,100,,,,,,,,f,20,213,fr,l,0,raw,2022-05-25_10h38.55.509,oddball,2022.1.2,59.913030280493686,
5,,,,,0,0,0,1,4,0,4,0,2,0,2,0,,,,,,,,,,,,,,,,,503.4332114998251,None,504.1002783998847,504.7002822002396,504.6836824999191,506.68449970008805,None,1,0.611267960164696,2.6121211601421237,decreament,0.6,11,standard,None,100,,,,,,,,f,20,213,fr,l,0,raw,2022-05-25_10h38.55.509,oddball,2022.1.2,59.913030280493686,
5,,,,,0,0,0,1,4,0,4,0,3,0,3,0,,,,,,,,,,,,,,,,,506.7015776000917,None,507.58466840023175,508.1847894000821,508.16813339991495,510.1688617998734,None,1,0.6097499602474272,2.610504560172558,decreament,0.6,11,standard,None,100,,,,,,,,f,20,213,fr,l,0,raw,2022-05-25_10h38.55.509,oddball,2022.1.2,59.913030280493686,
5,,,,,0,0,0,1,4,0,4,0,4,0,4,0,,,,,,,,,,,,,,,,,510.18574750004336,None,510.8025513999164,511.4027005000971,511.3861169000156,513.3872219999321,None,1,0.6127148596569896,2.61388295982033,decreament,0.6,11,standard,None,100,,,,,,,,f,20,213,fr,l,0,raw,2022-05-25_10h38.55.509,oddball,2022.1.2,59.913030280493686,
5,,,,,0,0,0,1,4,0,4,0,5,0,5,0,,,,,,,,,,,,,,,,,513.4055786998942,None,513.9211419001222,514.5207377001643,514.5041159000248,516.5049072001129,None,1,0.6093308599665761,2.6101336600258946,decreament,0.6,11,standard,None,100,,,,,,,,f,20,213,fr,l,0,raw,2022-05-25_10h38.55.509,oddball,2022.1.2,59.913030280493686,
5,,,,,0,0,0,1,4,0,4,0,6,0,6,0,,,,,,,,,,,,,,,,,516.5214316998608,None,517.0552412001416,517.6549566998146,517.6383584002033,519.6393475998193,None,1,0.6095013599842787,2.6105225598439574,decreament,0.6,11,standard,None,100,,,,,,,,f,20,213,fr,l,0,raw,2022-05-25_10h38.55.509,oddball,2022.1.2,59.913030280493686,
5,,,,,0,0,0,1,4,0,4,0,7,0,7,0,,,,,,,,,,,,,,,,,519.6560184000991,None,520.3561634998769,520.8397682001814,520.8232192001306,522.8235126002692,None,0,0.4956306600943208,2.4958811597898602,decreament,0.48,14,oddball,j,80,,,,,,,,f,20,213,fr,l,0,raw,2022-05-25_10h38.55.509,oddball,2022.1.2,59.913030280493686,
5,,,,,0,0,0,1,4,0,4,0,8,0,8,0,,,,,,,,,,,,,,,,,522.8401949000545,None,523.5241557001136,524.1239808001556,524.1075329999439,526.1082907002419,None,1,0.6121961595490575,2.6129735596477985,decreament,0.6,11,standard,None,100,,,,,,,,f,20,213,fr,l,0,raw,2022-05-25_10h38.55.509,oddball,2022.1.2,59.913030280493686,
5,,,,,0,0,0,1,4,0,4,0,9,0,9,0,,,,,,,,,,,,,,,,,526.1249013999477,None,527.0585854002275,527.6589016001672,527.6425394001417,529.6427616002038,None,1,0.6136007597669959,2.613793959841132,decreament,0.6,11,standard,None,100,,,,,,,,f,20,213,fr,l,0,raw,2022-05-25_10h38.55.509,oddball,2022.1.2,59.913030280493686,
5,,,,,0,0,0,1,4,0,4,0,10,0,10,0,,,,,,,,,,,,,,,,,529.6596595002338,None,530.3597089000978,530.9600541000254,530.9434922002256,532.944297700189,None,1,0.6133308601565659,2.6141980602405965,decreament,0.6,11,standard,None,100,,,,,,,,f,20,213,fr,l,0,raw,2022-05-25_10h38.55.509,oddball,2022.1.2,59.913030280493686,
5,,,,,0,0,0,1,4,0,4,0,11,0,11,0,,,,,,,,,,,,,,,,,532.9608733998612,None,533.5779555002227,534.1781040001661,534.1613468998112,536.1618689000607,None,1,0.6118341595865786,2.612366059795022,decreament,0.6,11,standard,None,100,,,,,,,,f,20,213,fr,l,0,raw,2022-05-25_10h38.55.509,oddball,2022.1.2,59.913030280493686,
5,,,,,0,0,0,1,4,0,4,0,12,0,12,0,,,,,,,,,,,,,,,,,536.178730300162,None,536.7290596999228,537.3293506000191,537.3129381998442,539.3135696002282,None,1,0.6131716598756611,2.613736560102552,decreament,0.6,11,standard,None,100,,,,,,,,f,20,213,fr,l,0,raw,2022-05-25_10h38.55.509,oddball,2022.1.2,59.913030280493686,
5,,,,,0,0,0,1,4,0,4,0,13,0,13,0,,,,,,,,,,,,,,,,,539.3298849002458,None,540.0134013001807,540.6137104001828,540.597095400095,542.5977517999709,None,1,0.6121656596660614,2.612837259657681,decreament,0.6,11,standard,None,100,,,,,,,,f,20,213,fr,l,0,raw,2022-05-25_10h38.55.509,oddball,2022.1.2,59.913030280493686,
5,,,,,0,0,0,1,4,0,4,0,14,0,14,0,,,,,,,,,,,,,,,,,542.6147109000012,None,543.2479954999872,543.8480516998097,543.8314400999807,545.8325984999537,None,1,0.6123652597889304,2.61361105972901,decreament,0.6,11,standard,None,100,,,,,,,,f,20,213,fr,l,0,raw,2022-05-25_10h38.55.509,oddball,2022.1.2,59.913030280493686,
5,,,,,0,0,0,1,4,0,4,0,15,0,15,0,,,,,,,,,,,,,,,,,545.8503159000538,None,546.3829692001455,546.9828420998529,546.9662268999964,548.9668737999164,None,1,0.6096402597613633,2.610343659762293,decreament,0.6,11,standard,None,100,,,,,,,,f,20,213,fr,l,0,raw,2022-05-25_10h38.55.509,oddball,2022.1.2,59.913030280493686,
5,,,,,0,0,0,1,4,0,4,0,16,0,16,0,,,,,,,,,,,,,,,,,548.9838974000886,None,549.717255000025,550.3173548998311,550.3007644000463,552.3013662002049,None,1,0.6132793598808348,2.6138626597821712,decreament,0.6,11,standard,None,100,,,,,,,,f,20,213,fr,l,0,raw,2022-05-25_10h38.55.509,oddball,2022.1.2,59.913030280493686,
5,,,,,0,0,0,1,4,0,4,0,17,0,17,0,,,,,,,,,,,,,,,,,552.3181386999786,None,552.934758100193,553.5354977999814,553.518689500168,555.5194896999747,None,1,0.6147528598085046,2.6155731598846614,decreament,0.6,11,standard,None,100,,,,,,,,f,20,213,fr,l,0,raw,2022-05-25_10h38.55.509,oddball,2022.1.2,59.913030280493686,
5,,,,,0,0,0,1,4,0,4,0,18,0,18,0,,,,,,,,,,,,,,,,,555.5363576998934,None,556.2195085999556,556.820034599863,556.8036410999484,558.8039647000842,None,1,0.6129475594498217,2.613231659401208,decreament,0.6,11,standard,None,100,,,,,,,,f,20,213,fr,l,0,raw,2022-05-25_10h38.55.509,oddball,2022.1.2,59.913030280493686,
5,,,,,0,0,0,1,4,0,4,0,19,0,19,0,,,,,,,,,,,,,,,,,558.8208016999997,None,559.4376095999032,560.038107899949,560.0212443000637,562.0219211000949,None,1,0.613166959490627,2.613805959932506,decreament,0.6,11,standard,None,100,,,,,,,,f,20,213,fr,l,0,raw,2022-05-25_10h38.55.509,oddball,2022.1.2,59.913030280493686,
5,,,,,0,0,0,1,4,0,4,0,20,0,20,0,,,,,,,,,,,,,,,,,562.0384893999435,None,562.6551177999936,563.2558504999615,563.2392485998571,565.2398427999578,None,1,0.614945060107857,2.615491659846157,decreament,0.6,11,standard,None,100,,,,,,,,f,20,213,fr,l,0,raw,2022-05-25_10h38.55.509,oddball,2022.1.2,59.913030280493686,
5,,,,,0,0,0,1,4,0,4,0,21,0,21,0,,,,,,,,,,,,,,,,,565.2564818998799,None,565.8898756001145,566.4901078999974,566.4736950998195,568.474910300225,None,1,0.6140244598500431,2.6152964597567916,decreament,0.6,11,standard,None,100,,,,,,,,f,20,213,fr,l,0,raw,2022-05-25_10h38.55.509,oddball,2022.1.2,59.913030280493686,
5,,,,,0,0,0,1,4,0,4,0,22,0,22,0,,,,,,,,,,,,,,,,,568.4918746999465,None,569.0916960998438,569.3415632001124,569.307852299884,571.308760299813,j,1,0.24198556039482355,2.242894560098648,decreament,0.24,12,oddball,j,40,0.5707788998261094,,,,,,,f,20,213,fr,l,0,raw,2022-05-25_10h38.55.509,oddball,2022.1.2,59.913030280493686,
5,,,,,0,0,0,1,4,0,4,0,23,0,23,0,,,,,,,,,,,,,,,,,571.3256550999358,None,571.9759864001535,572.5760440002196,572.5590129001066,574.5597437000833,None,1,0.6092144595459104,2.6099503599107265,decreament,0.6,11,standard,None,100,,,,,,,,f,20,213,fr,l,0,raw,2022-05-25_10h38.55.509,oddball,2022.1.2,59.913030280493686,
5,,,,,0,0,0,1,4,0,4,0,24,0,24,0,,,,,,,,,,,,,,,,,574.5765630002134,None,575.1101611000486,575.7104107998312,575.6937747001648,577.694837000221,None,1,0.6114097596146166,2.6125251594930887,decreament,0.6,11,standard,None,100,,,,,,,,f,20,213,fr,l,0,raw,2022-05-25_10h38.55.509,oddball,2022.1.2,59.913030280493686,
5,,,,,0,0,0,1,4,0,4,0,25,0,25,0,,,,,,,,,,,,,,,,,577.7113474002108,None,578.2949688001536,578.8951269998215,578.8783026998863,580.8793891002424,None,1,0.6091100601479411,2.6103053600527346,decreament,0.6,11,standard,None,100,,,,,,,,f,20,213,fr,l,0,raw,2022-05-25_10h38.55.509,oddball,2022.1.2,59.913030280493686,
5,,,,,0,0,0,1,4,0,4,0,26,0,26,0,,,,,,,,,,,,,,,,,580.8961221999489,None,581.662769400049,582.2627531001344,582.2463759998791,584.2468097000383,None,1,0.6114176595583558,2.611804159823805,decreament,0.6,11,standard,None,100,,,,,,,,f,20,213,fr,l,0,raw,2022-05-25_10h38.55.509,oddball,2022.1.2,59.913030280493686,
5,,,,,0,0,0,1,4,0,4,0,27,0,27,0,,,,,,,,,,,,,,,,,584.2637049998157,None,584.9474756000564,585.3137981998734,585.2808538000099,587.2817800999619,j,1,0.3595033595338464,2.360510059632361,decreament,0.36,13,oddball,j,60,1.4472954999655485,,,,,,,f,20,213,fr,l,0,raw,2022-05-25_10h38.55.509,oddball,2022.1.2,59.913030280493686,
5,,,,,0,0,0,1,4,0,4,0,28,0,28,0,,,,,,,,,,,,,,,,,587.2983019999228,None,588.1484738998115,588.7486093998887,588.7322141001932,590.7328062001616,None,1,0.609003059566021,2.60962935956195,decreament,0.6,11,standard,None,100,,,,,,,,f,20,213,fr,l,0,raw,2022-05-25_10h38.55.509,oddball,2022.1.2,59.913030280493686,
5,,,,,0,0,0,1,4,0,4,0,29,0,29,0,,,,,,,,,,,,,,,,,590.7492673001252,None,591.5333251999691,592.133130799979,592.1166026000865,594.1173899001442,None,1,0.6080825598910451,2.6089422600343823,decreament,0.6,11,standard,None,100,,,,,,,,f,20,213,fr,l,0,raw,2022-05-25_10h38.55.509,oddball,2022.1.2,59.913030280493686,
5,,,,,0,0,0,1,5,0,5,0,0,0,0,0,,,,,,,,,,,,,,,604.7625207002275,None,608.2728733001277,None,608.9898292999715,609.5903965998441,609.5737192002125,611.5739128999412,None,1,0.6122668595053256,2.612381259445101,increament,0.6,15,standard,None,100,,594.1342666000128,None,,,,,f,20,213,fr,l,0,raw,2022-05-25_10h38.55.509,oddball,2022.1.2,59.913030280493686,
5,,,,,0,0,0,1,5,0,5,0,1,0,1,0,,,,,,,,,,,,,,,,,611.5907020000741,None,612.2409164002165,612.8411289001815,612.8244269001298,614.8251958000474,None,1,0.61212995974347,2.612885059788823,increament,0.6,15,standard,None,100,,,,,,,,f,20,213,fr,l,0,raw,2022-05-25_10h38.55.509,oddball,2022.1.2,59.913030280493686,
5,,,,,0,0,0,1,5,0,5,0,2,0,2,0,,,,,,,,,,,,,,,,,614.8418133002706,None,615.4924105000682,616.0924232001416,616.0757201001979,618.0764366001822,None,1,0.6117029599845409,2.6124051599763334,increament,0.6,15,standard,None,100,,,,,,,,f,20,213,fr,l,0,raw,2022-05-25_10h38.55.509,oddball,2022.1.2,59.913030280493686,
5,,,,,0,0,0,1,5,0,5,0,3,0,3,0,,,,,,,,,,,,,,,,,618.093144599814,None,618.7933312999085,619.3935309001245,619.376809200272,621.3776871999726,None,1,0.6088478597812355,2.609747959766537,increament,0.6,15,standard,None,100,,,,,,,,f,20,213,fr,l,0,raw,2022-05-25_10h38.55.509,oddball,2022.1.2,59.913030280493686,
5,,,,,0,0,0,1,5,0,5,0,4,0,4,0,,,,,,,,,,,,,,,,,621.3945531998761,None,621.9114080998115,622.5116375000216,622.4948072000407,624.4958048998378,None,1,0.612450959160924,2.61348605947569,increament,0.6,15,standard,None,100,,,,,,,,f,20,213,fr,l,0,raw,2022-05-25_10h38.55.509,oddball,2022.1.2,59.913030280493686,
5,,,,,0,0,0,1,5,0,5,0,5,0,5,0,,,,,,,,,,,,,,,,,624.512238400057,None,625.0461009000428,625.6460902001709,625.6293065999635,627.630467900075,None,1,0.6096676597371697,2.6108652600087225,increament,0.6,15,standard,None,100,,,,,,,,f,20,213,fr,l,0,raw,2022-05-25_10h38.55.509,oddball,2022.1.2,59.913030280493686,
5,,,,,0,0,0,1,5,0,5,0,6,0,6,0,,,,,,,,,,,,,,,,,627.6473348001018,None,628.3304551998153,628.9304554001428,628.9138747001998,630.9149632002227,None,1,0.6096261600032449,2.6108134598471224,increament,0.6,15,standard,None,100,,,,,,,,f,20,213,fr,l,0,raw,2022-05-25_10h38.55.509,oddball,2022.1.2,59.913030280493686,
5,,,,,0,0,0,1,5,0,5,0,7,0,7,0,,,,,,,,,,,,,,,,,630.9318571998738,None,631.5320540000685,632.1312890001573,632.1146741001867,634.115671900101,None,1,0.6089127603918314,2.60994886001572,increament,0.6,15,standard,None,100,,,,,,,,f,20,213,fr,l,0,raw,2022-05-25_10h38.55.509,oddball,2022.1.2,59.913030280493686,
5,,,,,0,0,0,1,5,0,5,0,8,0,8,0,,,,,,,,,,,,,,,,,634.1326250000857,None,634.8664078000002,635.4663645001128,635.4500640998594,637.4507340001874,None,1,0.6084473598748446,2.609117059968412,increament,0.6,15,standard,None,100,,,,,,,,f,20,213,fr,l,0,raw,2022-05-25_10h38.55.509,oddball,2022.1.2,59.913030280493686,
5,,,,,0,0,0,1,5,0,5,0,9,0,9,0,,,,,,,,,,,,,,,,,637.4670776999556,None,638.1843289001845,638.9174362998456,638.8846769998781,640.885081499815,None,0,0.727672359906137,2.7280244599096477,increament,0.72,16,oddball,j,120,,,,,,,,f,20,213,fr,l,0,raw,2022-05-25_10h38.55.509,oddball,2022.1.2,59.913030280493686,
5,,,,,0,0,0,1,5,0,5,0,10,0,10,0,,,,,,,,,,,,,,,,,640.9018653002568,None,641.4352501998655,642.0355553999543,642.0193235999905,644.0195996998809,None,1,0.6109588597901165,2.611061959993094,increament,0.6,15,standard,None,100,,,,,,,,f,20,213,fr,l,0,raw,2022-05-25_10h38.55.509,oddball,2022.1.2,59.913030280493686,
5,,,,,0,0,0,1,5,0,5,0,11,0,11,0,,,,,,,,,,,,,,,,,644.0361545998603,None,644.7699132999405,645.3699441002682,645.3532290998846,647.354134300258,None,1,0.6124813598580658,2.6133658601902425,increament,0.6,15,standard,None,100,,,,,,,,f,20,213,fr,l,0,raw,2022-05-25_10h38.55.509,oddball,2022.1.2,59.913030280493686,
5,,,,,0,0,0,1,5,0,5,0,12,0,12,0,,,,,,,,,,,,,,,,,647.3706605001353,None,648.1044923998415,648.7047600001097,648.6882070000283,650.6887070001103,None,1,0.6117828600108624,2.6122331600636244,increament,0.6,15,standard,None,100,,,,,,,,f,20,213,fr,l,0,raw,2022-05-25_10h38.55.509,oddball,2022.1.2,59.913030280493686,
5,,,,,0,0,0,1,5,0,5,0,13,0,13,0,,,,,,,,,,,,,,,,,650.7054264000617,None,651.289439599961,651.8893145001493,651.8729258002713,653.8733303002082,None,1,0.6098112594336271,2.6102099595591426,increament,0.6,15,standard,None,100,,,,,,,,f,20,213,fr,l,0,raw,2022-05-25_10h38.55.509,oddball,2022.1.2,59.913030280493686,
5,,,,,0,0,0,1,5,0,5,0,14,0,14,0,,,,,,,,,,,,,,,,,653.8900256999768,None,654.6401975001208,655.2404978000559,655.2239053002559,657.2247553002089,None,1,0.6121687600389123,2.6130363601259887,increament,0.6,15,standard,None,100,,,,,,,,f,20,213,fr,l,0,raw,2022-05-25_10h38.55.509,oddball,2022.1.2,59.913030280493686,
5,,,,,0,0,0,1,5,0,5,0,15,0,15,0,,,,,,,,,,,,,,,,,657.2414998998865,None,657.8253791001625,658.4250989998691,658.4082547998987,660.4093904001638,None,1,0.6093166600912809,2.610523759853095,increament,0.6,15,standard,None,100,,,,,,,,f,20,213,fr,l,0,raw,2022-05-25_10h38.55.509,oddball,2022.1.2,59.913030280493686,
5,,,,,0,0,0,1,5,0,5,0,16,0,16,0,,,,,,,,,,,,,,,,,660.4261766998097,None,661.0096574001946,661.6095414999872,661.5929908999242,663.5938873998821,None,1,0.6118451599031687,2.6127887601032853,increament,0.6,15,standard,None,100,,,,,,,,f,20,213,fr,l,0,raw,2022-05-25_10h38.55.509,oddball,2022.1.2,59.913030280493686,
5,,,,,0,0,0,1,5,0,5,0,17,0,17,0,,,,,,,,,,,,,,,,,663.6107561001554,None,664.2609331998974,664.8605943000875,664.8441603998654,666.8450945001096,None,1,0.6123672593384981,2.6133438595570624,increament,0.6,15,standard,None,100,,,,,,,,f,20,213,fr,l,0,raw,2022-05-25_10h38.55.509,oddball,2022.1.2,59.913030280493686,
5,,,,,0,0,0,1,5,0,5,0,18,0,18,0,,,,,,,,,,,,,,,,,666.8616868001409,None,667.561822200194,668.1618814002723,668.1461570998654,670.14654480014,None,1,0.612930559553206,2.6133029595948756,increament,0.6,15,standard,None,100,,,,,,,,f,20,213,fr,l,0,raw,2022-05-25_10h38.55.509,oddball,2022.1.2,59.913030280493686,
5,,,,,0,0,0,1,5,0,5,0,19,0,19,0,,,,,,,,,,,,,,,,,670.1631020000204,None,670.679581000004,671.2802446000278,671.2631505001336,673.2638411000371,None,1,0.6118424599990249,2.612506560049951,increament,0.6,15,standard,None,100,,,,,,,,f,20,213,fr,l,0,raw,2022-05-25_10h38.55.509,oddball,2022.1.2,59.913030280493686,
5,,,,,0,0,0,1,5,0,5,0,20,0,20,0,,,,,,,,,,,,,,,,,673.280619900208,None,673.9809272000566,674.8311147000641,674.7982339002192,676.7984707001597,j,1,0.8470013602636755,2.8471567602828145,increament,0.84,17,oddball,j,140,0.873218699824065,,,,,,,f,20,213,fr,l,0,raw,2022-05-25_10h38.55.509,oddball,2022.1.2,59.913030280493686,
5,,,,,0,0,0,1,5,0,5,0,21,0,21,0,,,,,,,,,,,,,,,,,676.8151604998857,None,677.4489279999398,678.0492275999859,678.0324426000006,680.0331735000946,None,1,0.6077722599729896,2.608479860238731,increament,0.6,15,standard,None,100,,,,,,,,f,20,213,fr,l,0,raw,2022-05-25_10h38.55.509,oddball,2022.1.2,59.913030280493686,
5,,,,,0,0,0,1,5,0,5,0,22,0,22,0,,,,,,,,,,,,,,,,,680.0499582998455,None,680.7168056000955,681.3167973002419,681.3000536998734,683.3009327999316,None,1,0.6073638596571982,2.6082772598601878,increament,0.6,15,standard,None,100,,,,,,,,f,20,213,fr,l,0,raw,2022-05-25_10h38.55.509,oddball,2022.1.2,59.913030280493686,
5,,,,,0,0,0,1,5,0,5,0,23,0,23,0,,,,,,,,,,,,,,,,,683.3180649001151,None,684.0011709998362,684.6015205001459,684.5848401002586,686.58593450021,None,1,0.6142465597949922,2.615392659790814,increament,0.6,15,standard,None,100,,,,,,,,f,20,213,fr,l,0,raw,2022-05-25_10h38.55.509,oddball,2022.1.2,59.913030280493686,
5,,,,,0,0,0,1,5,0,5,0,24,0,24,0,,,,,,,,,,,,,,,,,686.6029798998497,None,687.1693183002062,687.7695705001242,687.7528590001166,689.7535995999351,None,1,0.6139836595393717,2.6146903596818447,increament,0.6,15,standard,None,100,,,,,,,,f,20,213,fr,l,0,raw,2022-05-25_10h38.55.509,oddball,2022.1.2,59.913030280493686,
5,,,,,0,0,0,1,5,0,5,0,25,0,25,0,,,,,,,,,,,,,,,,,689.7705280999653,None,690.3207948999479,690.9206066001207,690.9042751998641,692.9048036998138,None,1,0.6104962597601116,2.6110295597463846,increament,0.6,15,standard,None,100,,,,,,,,f,20,213,fr,l,0,raw,2022-05-25_10h38.55.509,oddball,2022.1.2,59.913030280493686,
5,,,,,0,0,0,1,5,0,5,0,26,0,26,0,,,,,,,,,,,,,,,,,692.9214066001587,None,693.6881764000282,694.2885424001142,694.272290199995,696.2725827000104,None,1,0.6141218598932028,2.6143590598367155,increament,0.6,15,standard,None,100,,,,,,,,f,20,213,fr,l,0,raw,2022-05-25_10h38.55.509,oddball,2022.1.2,59.913030280493686,
5,,,,,0,0,0,1,5,0,5,0,27,0,27,0,,,,,,,,,,,,,,,,,696.2892738999799,None,697.1231078002602,698.0902146999724,698.0568005000241,700.057911099866,None,0,0.9623926598578691,2.9635650599375367,increament,0.96,18,oddball,j,160,,,,,,,,f,20,213,fr,l,0,raw,2022-05-25_10h38.55.509,oddball,2022.1.2,59.913030280493686,
5,,,,,0,0,0,1,5,0,5,0,28,0,28,0,,,,,,,,,,,,,,,,,700.0750341000967,None,700.774440899957,701.3746890998445,701.3579778000712,703.3587159998715,None,1,0.6134165599942207,2.614151060115546,increament,0.6,15,standard,None,100,,,,,,,,f,20,213,fr,l,0,raw,2022-05-25_10h38.55.509,oddball,2022.1.2,59.913030280493686,
5,,,,,0,0,0,1,5,0,5,0,29,0,29,0,,,,,,,,,,,,,,,,,703.3754936000332,None,704.0423045000061,704.6426710002124,704.626226299908,706.6266020000912,None,1,0.6121587599627674,2.6124660596251488,increament,0.6,15,standard,None,100,,,,,,,,f,20,213,fr,l,0,raw,2022-05-25_10h38.55.509,oddball,2022.1.2,59.913030280493686,
5,,,,,0,0,0,1,6,0,6,0,0,0,0,0,,,,,,,,,,,,,,,729.1294753998518,None,730.5524269999005,None,731.2359913000837,731.8360040001571,731.8197294999845,733.8198534999974,None,1,0.6124209598638117,2.612522159703076,decreament,0.6,11,standard,None,100,,706.6437484999187,None,,,,,f,20,213,fr,l,0,raw,2022-05-25_10h38.55.509,oddball,2022.1.2,59.913030280493686,
5,,,,,0,0,0,1,6,0,6,0,1,0,1,0,,,,,,,,,,,,,,,,,733.8365552998148,None,734.3536378000863,734.9539871001616,734.937356099952,736.9380700001493,None,1,0.6132517596706748,2.6139267599210143,decreament,0.6,11,standard,None,100,,,,,,,,f,20,213,fr,l,0,raw,2022-05-25_10h38.55.509,oddball,2022.1.2,59.913030280493686,
5,,,,,0,0,0,1,6,0,6,0,2,0,2,0,,,,,,,,,,,,,,,,,736.9547272999771,None,737.6884360001422,738.2889795000665,738.272012299858,740.2729237000458,None,1,0.6124962596222758,2.6133989598602057,decreament,0.6,11,standard,None,100,,,,,,,,f,20,213,fr,l,0,raw,2022-05-25_10h38.55.509,oddball,2022.1.2,59.913030280493686,
5,,,,,0,0,0,1,6,0,6,0,3,0,3,0,,,,,,,,,,,,,,,,,740.2893395000137,None,740.9064044002444,741.5062490999699,741.4896173998713,743.4908064999618,None,1,0.6122983600944281,2.6135551598854363,decreament,0.6,11,standard,None,100,,,,,,,,f,20,213,fr,l,0,raw,2022-05-25_10h38.55.509,oddball,2022.1.2,59.913030280493686,
5,,,,,0,0,0,1,6,0,6,0,4,0,4,0,,,,,,,,,,,,,,,,,743.5072344001383,None,744.1742954999208,744.7743958001956,744.7577371001244,746.7584620001726,None,1,0.6112662595696747,2.6119822594337165,decreament,0.6,11,standard,None,100,,,,,,,,f,20,213,fr,l,0,raw,2022-05-25_10h38.55.509,oddball,2022.1.2,59.913030280493686,
5,,,,,0,0,0,1,6,0,6,0,5,0,5,0,,,,,,,,,,,,,,,,,746.7752219000831,None,747.4257995998487,747.6758665000089,747.6421814998612,749.6428439998999,j,1,0.2442629598081112,2.2449365598149598,decreament,0.24,12,oddball,j,40,0.588977700099349,,,,,,,f,20,213,fr,l,0,raw,2022-05-25_10h38.55.509,oddball,2022.1.2,59.913030280493686,
5,,,,,0,0,0,1,6,0,6,0,6,0,6,0,,,,,,,,,,,,,,,,,749.6598394000903,None,750.4769923998974,751.0765748000704,751.0601515001617,753.0610346002504,None,1,0.6117629599757493,2.6127035599201918,decreament,0.6,11,standard,None,100,,,,,,,,f,20,213,fr,l,0,raw,2022-05-25_10h38.55.509,oddball,2022.1.2,59.913030280493686,
5,,,,,0,0,0,1,6,0,6,0,7,0,7,0,,,,,,,,,,,,,,,,,753.0777063998394,None,753.644627599977,754.2448391001672,754.2281725001521,756.2286208998412,None,1,0.6129523594863713,2.6133957598358393,decreament,0.6,11,standard,None,100,,,,,,,,f,20,213,fr,l,0,raw,2022-05-25_10h38.55.509,oddball,2022.1.2,59.913030280493686,
5,,,,,0,0,0,1,6,0,6,0,8,0,8,0,,,,,,,,,,,,,,,,,756.2455700002611,None,756.8625874002464,757.4626813000068,757.4457519999705,759.4465689999051,None,1,0.6111302599310875,2.6119401599280536,decreament,0.6,11,standard,None,100,,,,,,,,f,20,213,fr,l,0,raw,2022-05-25_10h38.55.509,oddball,2022.1.2,59.913030280493686,
5,,,,,0,0,0,1,6,0,6,0,9,0,9,0,,,,,,,,,,,,,,,,,759.4630883000791,None,760.08074640017,760.6804058998823,760.6639157999307,762.6645766999573,None,1,0.6097274599596858,2.6103533604182303,decreament,0.6,11,standard,None,100,,,,,,,,f,20,213,fr,l,0,raw,2022-05-25_10h38.55.509,oddball,2022.1.2,59.913030280493686,
5,,,,,0,0,0,1,6,0,6,0,10,0,10,0,,,,,,,,,,,,,,,,,762.6813586000353,None,763.281558800023,763.8818565001711,763.8652270999737,765.86580590019,None,1,0.6134319598786533,2.613972360268235,decreament,0.6,11,standard,None,100,,,,,,,,f,20,213,fr,l,0,raw,2022-05-25_10h38.55.509,oddball,2022.1.2,59.913030280493686,
5,,,,,0,0,0,1,6,0,6,0,11,0,11,0,,,,,,,,,,,,,,,,,765.8823727001436,None,766.565959200263,767.1660046000034,767.1495544002391,769.1501679001376,None,1,0.6135219600982964,2.6141475602053106,decreament,0.6,11,standard,None,100,,,,,,,,f,20,213,fr,l,0,raw,2022-05-25_10h38.55.509,oddball,2022.1.2,59.913030280493686,
5,,,,,0,0,0,1,6,0,6,0,12,0,12,0,,,,,,,,,,,,,,,,,769.1669665998779,None,769.8007204998285,770.4008602001704,770.3842501998879,772.3847731999122,None,1,0.6125280596315861,2.61307206004858,decreament,0.6,11,standard,None,100,,,,,,,,f,20,213,fr,l,0,raw,2022-05-25_10h38.55.509,oddball,2022.1.2,59.913030280493686,
5,,,,,0,0,0,1,6,0,6,0,13,0,13,0,,,,,,,,,,,,,,,,,772.4016040000133,None,773.285465199966,773.8853054000065,773.869084500242,775.8694239002652,None,1,0.6119102598167956,2.612245459575206,decreament,0.6,11,standard,None,100,,,,,,,,f,20,213,fr,l,0,raw,2022-05-25_10h38.55.509,oddball,2022.1.2,59.913030280493686,
5,,,,,0,0,0,1,6,0,6,0,14,0,14,0,,,,,,,,,,,,,,,,,775.8861559000798,None,776.519677599892,777.1205176999792,777.1036360999569,779.1039681998082,None,1,0.612724659498781,2.6129741594195366,decreament,0.6,11,standard,None,100,,,,,,,,f,20,213,fr,l,0,raw,2022-05-25_10h38.55.509,oddball,2022.1.2,59.913030280493686,
5,,,,,0,0,0,1,6,0,6,0,15,0,15,0,,,,,,,,,,,,,,,,,779.1206121002324,None,779.7043816000223,780.304414300248,780.2878467999399,782.2889820002019,None,1,0.6129683596082032,2.614156959578395,decreament,0.6,11,standard,None,100,,,,,,,,f,20,213,fr,l,0,raw,2022-05-25_10h38.55.509,oddball,2022.1.2,59.913030280493686,
5,,,,,0,0,0,1,6,0,6,0,16,0,16,0,,,,,,,,,,,,,,,,,782.305447100196,None,783.088910299819,783.6890292000026,783.672676499933,785.6737325000577,None,1,0.6123555595986545,2.6134906597435474,decreament,0.6,11,standard,None,100,,,,,,,,f,20,213,fr,l,0,raw,2022-05-25_10h38.55.509,oddball,2022.1.2,59.913030280493686,
5,,,,,0,0,0,1,6,0,6,0,17,0,17,0,,,,,,,,,,,,,,,,,785.6908705998212,None,786.3069922002032,786.9075303999707,786.8909750999883,788.8918314999901,None,1,0.611907459795475,2.6129231597296894,decreament,0.6,11,standard,None,100,,,,,,,,f,20,213,fr,l,0,raw,2022-05-25_10h38.55.509,oddball,2022.1.2,59.913030280493686,
5,,,,,0,0,0,1,6,0,6,0,18,0,18,0,,,,,,,,,,,,,,,,,788.908265999984,None,789.5251064999029,790.0081449998543,789.991561899893,791.9922850998119,j,1,0.4939274596981704,2.4946604599244893,decreament,0.48,14,oddball,j,80,0.639187500346452,,,,,,,f,20,213,fr,l,0,raw,2022-05-25_10h38.55.509,oddball,2022.1.2,59.913030280493686,
5,,,,,0,0,0,1,6,0,6,0,19,0,19,0,,,,,,,,,,,,,,,,,792.0089981998317,None,792.6924673002213,793.2926829000935,793.2761339000426,795.2767118001357,None,1,0.6125395596027374,2.613154459744692,decreament,0.6,11,standard,None,100,,,,,,,,f,20,213,fr,l,0,raw,2022-05-25_10h38.55.509,oddball,2022.1.2,59.913030280493686,
5,,,,,0,0,0,1,6,0,6,0,20,0,20,0,,,,,,,,,,,,,,,,,795.2934647002257,None,795.8937272001058,796.4938516002148,796.4774078000337,798.4780514999293,None,1,0.6117618591524661,2.6124030593782663,decreament,0.6,11,standard,None,100,,,,,,,,f,20,213,fr,l,0,raw,2022-05-25_10h38.55.509,oddball,2022.1.2,59.913030280493686,
5,,,,,0,0,0,1,6,0,6,0,21,0,21,0,,,,,,,,,,,,,,,,,798.4946265998296,None,799.2618188001215,799.8618847001344,799.845320600085,801.8459986001253,None,1,0.6129490598104894,2.613644859753549,decreament,0.6,11,standard,None,100,,,,,,,,f,20,213,fr,l,0,raw,2022-05-25_10h38.55.509,oddball,2022.1.2,59.913030280493686,
5,,,,,0,0,0,1,6,0,6,0,22,0,22,0,,,,,,,,,,,,,,,,,801.8627594001591,None,802.5295581999235,803.1299911001697,803.1132963998243,805.1139560998417,None,1,0.6093738600611687,2.6100586601532996,decreament,0.6,11,standard,None,100,,,,,,,,f,20,213,fr,l,0,raw,2022-05-25_10h38.55.509,oddball,2022.1.2,59.913030280493686,
5,,,,,0,0,0,1,6,0,6,0,23,0,23,0,,,,,,,,,,,,,,,,,805.13054500008,None,805.7641981001943,806.3644782998599,806.3479933999479,808.348319100216,None,1,0.6124526597559452,2.6127324593253434,decreament,0.6,11,standard,None,100,,,,,,,,f,20,213,fr,l,0,raw,2022-05-25_10h38.55.509,oddball,2022.1.2,59.913030280493686,
5,,,,,0,0,0,1,6,0,6,0,24,0,24,0,,,,,,,,,,,,,,,,,808.3652520999312,None,808.9321917998604,809.5321728000417,809.5157849001698,811.5162527998909,None,1,0.6135350596159697,2.6139744599349797,decreament,0.6,11,standard,None,100,,,,,,,,f,20,213,fr,l,0,raw,2022-05-25_10h38.55.509,oddball,2022.1.2,59.913030280493686,
5,,,,,0,0,0,1,6,0,6,0,25,0,25,0,,,,,,,,,,,,,,,,,811.5331522999331,None,812.2832448999397,812.6501734000631,812.6167701999657,814.6173117002472,j,1,0.3633827595040202,2.3639086596667767,decreament,0.36,13,oddball,j,60,0.9489104999229312,,,,,,,f,20,213,fr,l,0,raw,2022-05-25_10h38.55.509,oddball,2022.1.2,59.913030280493686,
5,,,,,0,0,0,1,6,0,6,0,26,0,26,0,,,,,,,,,,,,,,,,,814.6340552000329,None,815.2342961002141,815.8345894999802,815.8187170000747,817.8188009001315,None,1,0.6139235598966479,2.6139502595178783,decreament,0.6,11,standard,None,100,,,,,,,,f,20,213,fr,l,0,raw,2022-05-25_10h38.55.509,oddball,2022.1.2,59.913030280493686,
5,,,,,0,0,0,1,6,0,6,0,27,0,27,0,,,,,,,,,,,,,,,,,817.835627600085,None,818.5026898998767,819.1027453998104,819.0858483999036,821.0869316998869,None,1,0.6117063597775996,2.6128464597277343,decreament,0.6,11,standard,None,100,,,,,,,,f,20,213,fr,l,0,raw,2022-05-25_10h38.55.509,oddball,2022.1.2,59.913030280493686,
5,,,,,0,0,0,1,6,0,6,0,28,0,28,0,,,,,,,,,,,,,,,,,821.1038128002547,None,821.7038302002475,822.3042516000569,822.2872085999697,824.2876551998779,None,1,0.6090296600013971,2.6094452599063516,decreament,0.6,11,standard,None,100,,,,,,,,f,20,213,fr,l,0,raw,2022-05-25_10h38.55.509,oddball,2022.1.2,59.913030280493686,
5,,,,,0,0,0,1,6,0,6,0,29,0,29,0,,,,,,,,,,,,,,,,,824.3044063998386,None,824.9383002002724,825.538407499902,825.5216784998775,827.5226292000152,None,1,0.6112291594035923,2.6121997595764697,decreament,0.6,11,standard,None,100,,,,,,,,f,20,213,fr,l,0,raw,2022-05-25_10h38.55.509,oddball,2022.1.2,59.913030280493686,
5,,,,,0,0,0,1,7,0,7,0,0,0,0,0,,,,,,,,,,,,,,,833.9580830000341,None,835.8757369001396,None,836.4759291000664,837.0760615002364,837.0593059998937,839.0604190002196,None,1,0.6103245601989329,2.611441360320896,increament,0.6,15,standard,None,100,,827.5396509999409,None,,,,,f,20,213,fr,l,0,raw,2022-05-25_10h38.55.509,oddball,2022.1.2,59.913030280493686,
5,,,,,0,0,0,1,7,0,7,0,1,0,1,0,,,,,,,,,,,,,,,,,839.0768021000549,None,839.7438933001831,840.3439664999023,840.3272354998626,842.328036500141,None,1,0.6089796600863338,2.6098375599831343,increament,0.6,15,standard,None,100,,,,,,,,f,20,213,fr,l,0,raw,2022-05-25_10h38.55.509,oddball,2022.1.2,59.913030280493686,
5,,,,,0,0,0,1,7,0,7,0,2,0,2,0,,,,,,,,,,,,,,,,,842.3447770001367,None,842.9781110999174,843.5786292999983,843.5618135002442,845.562738200184,None,1,0.6146936598233879,2.6156424600631,increament,0.6,15,standard,None,100,,,,,,,,f,20,213,fr,l,0,raw,2022-05-25_10h38.55.509,oddball,2022.1.2,59.913030280493686,
5,,,,,0,0,0,1,7,0,7,0,3,0,3,0,,,,,,,,,,,,,,,,,845.5792292999104,None,846.379695800133,846.9804169000126,846.9634895999916,848.9637261000462,None,1,0.6127960602752864,2.61287956032902,increament,0.6,15,standard,None,100,,,,,,,,f,20,213,fr,l,0,raw,2022-05-25_10h38.55.509,oddball,2022.1.2,59.913030280493686,
5,,,,,0,0,0,1,7,0,7,0,4,0,4,0,,,,,,,,,,,,,,,,,848.9806356001645,None,849.5307721002027,850.1310330000706,850.1144281001762,852.1154232998379,None,1,0.6127030593343079,2.6137751592323184,increament,0.6,15,standard,None,100,,,,,,,,f,20,213,fr,l,0,raw,2022-05-25_10h38.55.509,oddball,2022.1.2,59.913030280493686,
5,,,,,0,0,0,1,7,0,7,0,5,0,5,0,,,,,,,,,,,,,,,,,852.1332221999764,None,852.748746600002,853.3485566000454,853.3320462000556,855.3328754999675,None,1,0.6109896595589817,2.6118605597876012,increament,0.6,15,standard,None,100,,,,,,,,f,20,213,fr,l,0,raw,2022-05-25_10h38.55.509,oddball,2022.1.2,59.913030280493686,
5,,,,,0,0,0,1,7,0,7,0,6,0,6,0,,,,,,,,,,,,,,,,,855.3498205998912,None,856.1170306000859,857.0837443000637,857.050494399853,859.0514877000824,None,0,0.9599937601014972,2.961042759940028,increament,0.96,18,oddball,j,160,,,,,,,,f,20,213,fr,l,0,raw,2022-05-25_10h38.55.509,oddball,2022.1.2,59.913030280493686,
5,,,,,0,0,0,1,7,0,7,0,7,0,7,0,,,,,,,,,,,,,,,,,859.0685060000978,None,859.7346982001327,860.3347060000524,860.31808729982,862.3188728000969,None,1,0.6113662598654628,2.612145559862256,increament,0.6,15,standard,None,100,,,,,,,,f,20,213,fr,l,0,raw,2022-05-25_10h38.55.509,oddball,2022.1.2,59.913030280493686,
5,,,,,0,0,0,1,7,0,7,0,8,0,8,0,,,,,,,,,,,,,,,,,862.3356935000047,None,863.0362191000022,863.635914800223,863.6193273002282,865.6202242001891,None,1,0.6103633600287139,2.611273859627545,increament,0.6,15,standard,None,100,,,,,,,,f,20,213,fr,l,0,raw,2022-05-25_10h38.55.509,oddball,2022.1.2,59.913030280493686,
5,,,,,0,0,0,1,7,0,7,0,9,0,9,0,,,,,,,,,,,,,,,,,865.6368362000212,None,866.2040444999002,866.8039237000048,866.7872529998422,868.7882052999921,None,1,0.6087915599346161,2.609766560140997,increament,0.6,15,standard,None,100,,,,,,,,f,20,213,fr,l,0,raw,2022-05-25_10h38.55.509,oddball,2022.1.2,59.913030280493686,
5,,,,,0,0,0,1,7,0,7,0,10,0,10,0,,,,,,,,,,,,,,,,,868.8046464999206,None,869.4050234998576,870.0053909001872,869.9886003998108,871.9891333002597,None,1,0.6128712599165738,2.613357959780842,increament,0.6,15,standard,None,100,,,,,,,,f,20,213,fr,l,0,raw,2022-05-25_10h38.55.509,oddball,2022.1.2,59.913030280493686,
5,,,,,0,0,0,1,7,0,7,0,11,0,11,0,,,,,,,,,,,,,,,,,872.0057200998999,None,872.5225650998764,873.1229699999094,873.1061916002072,875.107549900189,None,1,0.6139037599787116,2.615333159919828,increament,0.6,15,standard,None,100,,,,,,,,f,20,213,fr,l,0,raw,2022-05-25_10h38.55.509,oddball,2022.1.2,59.913030280493686,
5,,,,,0,0,0,1,7,0,7,0,12,0,12,0,,,,,,,,,,,,,,,,,875.1243178001605,None,875.6739873001352,876.2741454001516,876.2575244000182,878.258209799882,None,1,0.6130712600424886,2.613768159877509,increament,0.6,15,standard,None,100,,,,,,,,f,20,213,fr,l,0,raw,2022-05-25_10h38.55.509,oddball,2022.1.2,59.913030280493686,
5,,,,,0,0,0,1,7,0,7,0,13,0,13,0,,,,,,,,,,,,,,,,,878.275019899942,None,878.9920310000889,879.5919603998773,879.5754299000837,881.5764995999634,None,1,0.6094796597026289,2.610587759874761,increament,0.6,15,standard,None,100,,,,,,,,f,20,213,fr,l,0,raw,2022-05-25_10h38.55.509,oddball,2022.1.2,59.913030280493686,
5,,,,,0,0,0,1,7,0,7,0,14,0,14,0,,,,,,,,,,,,,,,,,881.5929800001904,None,882.2433098000474,882.8432813002728,882.8266739998944,884.8274233001284,None,1,0.6122203599661589,2.61315286019817,increament,0.6,15,standard,None,100,,,,,,,,f,20,213,fr,l,0,raw,2022-05-25_10h38.55.509,oddball,2022.1.2,59.913030280493686,
5,,,,,0,0,0,1,7,0,7,0,15,0,15,0,,,,,,,,,,,,,,,,,884.8442524001002,None,885.4611247000284,886.0613388000056,886.0445701000281,888.0451779998839,None,1,0.6135536599904299,2.614135359879583,increament,0.6,15,standard,None,100,,,,,,,,f,20,213,fr,l,0,raw,2022-05-25_10h38.55.509,oddball,2022.1.2,59.913030280493686,
5,,,,,0,0,0,1,7,0,7,0,16,0,16,0,,,,,,,,,,,,,,,,,888.0620010001585,None,888.7622659001499,889.3626735000871,889.3458877000958,891.3469523000531,None,1,0.6127593601122499,2.6139157600700855,increament,0.6,15,standard,None,100,,,,,,,,f,20,213,fr,l,0,raw,2022-05-25_10h38.55.509,oddball,2022.1.2,59.913030280493686,
5,,,,,0,0,0,1,7,0,7,0,17,0,17,0,,,,,,,,,,,,,,,,,891.3632005001418,None,892.0304196998477,892.630448400043,892.6137322001159,894.6148001998663,None,1,0.6118237599730492,2.612952559720725,increament,0.6,15,standard,None,100,,,,,,,,f,20,213,fr,l,0,raw,2022-05-25_10h38.55.509,oddball,2022.1.2,59.913030280493686,
5,,,,,0,0,0,1,7,0,7,0,18,0,18,0,,,,,,,,,,,,,,,,,894.6312676998787,None,895.2649115999229,895.9983820999041,895.9650917998515,897.9661604999565,None,0,0.7274410598911345,2.728565359953791,increament,0.72,16,oddball,j,120,,,,,,,,f,20,213,fr,l,0,raw,2022-05-25_10h38.55.509,oddball,2022.1.2,59.913030280493686,
5,,,,,0,0,0,1,7,0,7,0,19,0,19,0,,,,,,,,,,,,,,,,,897.9827216998674,None,898.749365999829,899.3496602000669,899.3328773998655,901.3336653998122,None,1,0.6125016598962247,2.6131790596991777,increament,0.6,15,standard,None,100,,,,,,,,f,20,213,fr,l,0,raw,2022-05-25_10h38.55.509,oddball,2022.1.2,59.913030280493686,
5,,,,,0,0,0,1,7,0,7,0,20,0,20,0,,,,,,,,,,,,,,,,,901.3503235001117,None,901.9005960999057,902.5009185001254,902.4842912000604,904.4848539000377,None,1,0.6136288596317172,2.6142062596045434,increament,0.6,15,standard,None,100,,,,,,,,f,20,213,fr,l,0,raw,2022-05-25_10h38.55.509,oddball,2022.1.2,59.913030280493686,
5,,,,,0,0,0,1,7,0,7,0,21,0,21,0,,,,,,,,,,,,,,,,,904.5016673998907,None,905.0517429001629,905.6517010000534,905.6350853000768,907.6363421999849,None,1,0.6122639598324895,2.6136003602296114,increament,0.6,15,standard,None,100,,,,,,,,f,20,213,fr,l,0,raw,2022-05-25_10h38.55.509,oddball,2022.1.2,59.913030280493686,
5,,,,,0,0,0,1,7,0,7,0,22,0,22,0,,,,,,,,,,,,,,,,,907.6528385998681,None,908.2536281999201,908.8532385998406,908.836613399908,910.8377884998918,None,1,0.609908259473741,2.6111028594896197,increament,0.6,15,standard,None,100,,,,,,,,f,20,213,fr,l,0,raw,2022-05-25_10h38.55.509,oddball,2022.1.2,59.913030280493686,
5,,,,,0,0,0,1,7,0,7,0,23,0,23,0,,,,,,,,,,,,,,,,,910.8544638999738,None,911.6378609999083,912.2379363002256,912.2211881000549,914.2218197002076,None,1,0.609347459860146,2.6099305599927902,increament,0.6,15,standard,None,100,,,,,,,,f,20,213,fr,l,0,raw,2022-05-25_10h38.55.509,oddball,2022.1.2,59.913030280493686,
5,,,,,0,0,0,1,7,0,7,0,24,0,24,0,,,,,,,,,,,,,,,,,914.2384434998967,None,914.8720998000354,915.4722385001369,915.4554873998277,917.4563066000119,None,1,0.6120928595773876,2.61291665956378,increament,0.6,15,standard,None,100,,,,,,,,f,20,213,fr,l,0,raw,2022-05-25_10h38.55.509,oddball,2022.1.2,59.913030280493686,
5,,,,,0,0,0,1,7,0,7,0,25,0,25,0,,,,,,,,,,,,,,,,,917.472946099937,None,918.0902578998357,918.6904923999682,918.6741686002351,920.674277599901,j,0,0.6114586601033807,2.611449860036373,increament,0.6,15,standard,None,100,0.8119985000230372,,,,,,,f,20,213,fr,l,0,raw,2022-05-25_10h38.55.509,oddball,2022.1.2,59.913030280493686,
5,,,,,0,0,0,1,7,0,7,0,26,0,26,0,,,,,,,,,,,,,,,,,920.6909139002673,None,921.2245885999873,922.0749929002486,922.0415591001511,924.0421551000327,None,0,0.8456307598389685,2.846179559826851,increament,0.84,17,oddball,j,140,,,,,,,,f,20,213,fr,l,0,raw,2022-05-25_10h38.55.509,oddball,2022.1.2,59.913030280493686,
5,,,,,0,0,0,1,7,0,7,0,27,0,27,0,,,,,,,,,,,,,,,,,924.0590854999609,None,924.7922693998553,925.392863899935,925.3763473001309,927.3767134998925,None,1,0.6140125598758459,2.6143031595274806,increament,0.6,15,standard,None,100,,,,,,,,f,20,213,fr,l,0,raw,2022-05-25_10h38.55.509,oddball,2022.1.2,59.913030280493686,
5,,,,,0,0,0,1,7,0,7,0,28,0,28,0,,,,,,,,,,,,,,,,,927.393462699838,None,928.0603085001931,928.6607845001854,928.6441226000898,930.6450205999427,None,1,0.6132918600924313,2.6141943600960076,increament,0.6,15,standard,None,100,,,,,,,,f,20,213,fr,l,0,raw,2022-05-25_10h38.55.509,oddball,2022.1.2,59.913030280493686,
5,,,,,0,0,0,1,7,0,7,0,29,0,29,0,,,,,,,,,,,,,,,,,930.6613941001706,None,931.4285038001835,932.0284473998472,932.0121732000262,934.0125969001092,None,1,0.612221559509635,2.6126153599470854,increament,0.6,15,standard,None,100,,,,,,,,f,20,213,fr,l,0,raw,2022-05-25_10h38.55.509,oddball,2022.1.2,59.913030280493686,
5,,,,,0,0,0,1,8,0,8,0,0,0,0,0,,,,,,,,,,,,,,,937.1187847000547,None,938.1807821998373,None,938.8810804001987,939.4817778002471,939.4649367001839,941.4654612001032,None,1,0.6116005596704781,2.6121204597875476,decreament,0.6,11,standard,None,100,,934.02940580016,None,,,,,f,20,213,fr,l,0,raw,2022-05-25_10h38.55.509,oddball,2022.1.2,59.913030280493686,
5,,,,,0,0,0,1,8,0,8,0,1,0,1,0,,,,,,,,,,,,,,,,,941.4822978000157,None,942.198950599879,942.7992644002661,942.7826677998528,944.7833958999254,None,1,0.6123483604751527,2.613085560500622,decreament,0.6,11,standard,None,100,,,,,,,,f,20,213,fr,l,0,raw,2022-05-25_10h38.55.509,oddball,2022.1.2,59.913030280493686,
5,,,,,0,0,0,1,8,0,8,0,2,0,2,0,,,,,,,,,,,,,,,,,944.8001411999576,None,945.3840390001424,945.983958600089,945.9671765002422,947.9681966002099,None,1,0.611858659889549,2.6129182600416243,decreament,0.6,11,standard,None,100,,,,,,,,f,20,213,fr,l,0,raw,2022-05-25_10h38.55.509,oddball,2022.1.2,59.913030280493686,
5,,,,,0,0,0,1,8,0,8,0,3,0,3,0,,,,,,,,,,,,,,,,,947.9850675999187,None,948.6849670000374,949.2855906002223,949.2688219002448,951.2693076999858,None,1,0.612794459797442,2.6132634598761797,decreament,0.6,11,standard,None,100,,,,,,,,f,20,213,fr,l,0,raw,2022-05-25_10h38.55.509,oddball,2022.1.2,59.913030280493686,
5,,,,,0,0,0,1,8,0,8,0,4,0,4,0,,,,,,,,,,,,,,,,,951.2863091998734,None,951.9866074002348,952.5867351000197,952.5700016999617,954.5709889000282,None,1,0.6108744596131146,2.611860259901732,decreament,0.6,11,standard,None,100,,,,,,,,f,20,213,fr,l,0,raw,2022-05-25_10h38.55.509,oddball,2022.1.2,59.913030280493686,
5,,,,,0,0,0,1,8,0,8,0,5,0,5,0,,,,,,,,,,,,,,,,,954.5879915002733,None,955.1541658998467,955.7544936998747,955.7380078001879,957.7385881999508,None,1,0.6126440595835447,2.6131727597676218,decreament,0.6,11,standard,None,100,,,,,,,,f,20,213,fr,l,0,raw,2022-05-25_10h38.55.509,oddball,2022.1.2,59.913030280493686,
5,,,,,0,0,0,1,8,0,8,0,6,0,6,0,,,,,,,,,,,,,,,,,957.754996499978,None,958.3219162998721,958.9220508001745,958.9057130999863,960.906517200172,None,1,0.6132355602458119,2.6141179599799216,decreament,0.6,11,standard,None,100,,,,,,,,f,20,213,fr,l,0,raw,2022-05-25_10h38.55.509,oddball,2022.1.2,59.913030280493686,
5,,,,,0,0,0,1,8,0,8,0,7,0,7,0,,,,,,,,,,,,,,,,,960.9234879999422,None,961.473400699906,962.0738357999362,962.0568192000501,964.0574888000265,None,1,0.6111102597787976,2.6117368596605957,decreament,0.6,11,standard,None,100,,,,,,,,f,20,213,fr,l,0,raw,2022-05-25_10h38.55.509,oddball,2022.1.2,59.913030280493686,
5,,,,,0,0,0,1,8,0,8,0,8,0,8,0,,,,,,,,,,,,,,,,,964.0741683999076,None,964.6575095001608,965.2579659000039,965.2414084998891,967.2423764998093,None,1,0.6136901597492397,2.614774259738624,decreament,0.6,11,standard,None,100,,,,,,,,f,20,213,fr,l,0,raw,2022-05-25_10h38.55.509,oddball,2022.1.2,59.913030280493686,
5,,,,,0,0,0,1,8,0,8,0,9,0,9,0,,,,,,,,,,,,,,,,,967.2586270002648,None,967.909029699862,968.5090625998564,968.4927890999243,970.4930183002725,None,1,0.6138614597730339,2.61405295971781,decreament,0.6,11,standard,None,100,,,,,,,,f,20,213,fr,l,0,raw,2022-05-25_10h38.55.509,oddball,2022.1.2,59.913030280493686,
5,,,,,0,0,0,1,8,0,8,0,10,0,10,0,,,,,,,,,,,,,,,,,970.5097399000078,None,971.0936070000753,971.4601354999468,971.4268944002688,973.427846999839,j,1,0.35991596011444926,2.3609279599040747,decreament,0.36,13,oddball,j,60,0.7472985996864736,,,,,,,f,20,213,fr,l,0,raw,2022-05-25_10h38.55.509,oddball,2022.1.2,59.913030280493686,
5,,,,,0,0,0,1,8,0,8,0,11,0,11,0,,,,,,,,,,,,,,,,,973.4464306998998,None,974.0113452998921,974.6114349002019,974.5948375002481,976.5955631001852,None,1,0.6124974596314132,2.6132303597405553,decreament,0.6,11,standard,None,100,,,,,,,,f,20,213,fr,l,0,raw,2022-05-25_10h38.55.509,oddball,2022.1.2,59.913030280493686,
5,,,,,0,0,0,1,8,0,8,0,12,0,12,0,,,,,,,,,,,,,,,,,976.6122249001637,None,977.2961647999473,977.8963460000232,977.8795298999175,979.8799680001102,None,1,0.6123229595832527,2.6127075599506497,decreament,0.6,11,standard,None,100,,,,,,,,f,20,213,fr,l,0,raw,2022-05-25_10h38.55.509,oddball,2022.1.2,59.913030280493686,
5,,,,,0,0,0,1,8,0,8,0,13,0,13,0,,,,,,,,,,,,,,,,,979.8968321001157,None,980.5303452000953,981.1305256998166,981.1146134999581,983.1146992002614,j,0,0.6130476598627865,2.613063059747219,decreament,0.6,11,standard,None,100,1.1070079002529383,,,,,,,f,20,213,fr,l,0,raw,2022-05-25_10h38.55.509,oddball,2022.1.2,59.913030280493686,
5,,,,,0,0,0,1,8,0,8,0,14,0,14,0,,,,,,,,,,,,,,,,,983.131994899828,None,983.914833100047,984.165006400086,984.1316722999327,986.132559900172,j,1,0.24788015987724066,2.2487435596995056,decreament,0.24,12,oddball,j,40,0.8100022999569774,,,,,,,f,20,213,fr,l,0,raw,2022-05-25_10h38.55.509,oddball,2022.1.2,59.913030280493686,
5,,,,,0,0,0,1,8,0,8,0,15,0,15,0,,,,,,,,,,,,,,,,,986.1493959999643,None,986.7831617002375,987.3830798999406,987.3664159998298,989.3669047001749,None,1,0.6097678602673113,2.6102207601070404,decreament,0.6,11,standard,None,100,,,,,,,,f,20,213,fr,l,0,raw,2022-05-25_10h38.55.509,oddball,2022.1.2,59.913030280493686,
5,,,,,0,0,0,1,8,0,8,0,16,0,16,0,,,,,,,,,,,,,,,,,989.3838423998095,None,990.0338526000269,990.6341082002036,990.6175505002029,992.618096599821,None,1,0.6129247597418725,2.613498059567064,decreament,0.6,11,standard,None,100,,,,,,,,f,20,213,fr,l,0,raw,2022-05-25_10h38.55.509,oddball,2022.1.2,59.913030280493686,
5,,,,,0,0,0,1,8,0,8,0,17,0,17,0,,,,,,,,,,,,,,,,,992.6349149001762,None,993.5519795999862,994.1520016998984,994.1355914999731,996.1359983999282,None,1,0.6078396602533758,2.608262659981847,decreament,0.6,11,standard,None,100,,,,,,,,f,20,213,fr,l,0,raw,2022-05-25_10h38.55.509,oddball,2022.1.2,59.913030280493686,
5,,,,,0,0,0,1,8,0,8,0,18,0,18,0,,,,,,,,,,,,,,,,,996.1526242000982,None,996.8537098001689,997.4540421999991,997.4370436999016,999.4376448998228,None,1,0.6110040596686304,2.6115875598043203,decreament,0.6,11,standard,None,100,,,,,,,,f,20,213,fr,l,0,raw,2022-05-25_10h38.55.509,oddball,2022.1.2,59.913030280493686,
5,,,,,0,0,0,1,8,0,8,0,19,0,19,0,,,,,,,,,,,,,,,,,999.4543806002475,None,999.9881688002497,1000.5881178998388,1000.5712771001272,1002.5720350001939,j,0,0.6105702593922615,2.611336859408766,decreament,0.6,11,standard,None,100,1.2824554000981152,,,,,,,f,20,213,fr,l,0,raw,2022-05-25_10h38.55.509,oddball,2022.1.2,59.913030280493686,
5,,,,,0,0,0,1,8,0,8,0,20,0,20,0,,,,,,,,,,,,,,,,,1002.5888296999037,None,1003.3057641000487,1003.905789299868,1003.8893578001298,1005.8900298001245,None,1,0.6122167594730854,2.612871759571135,decreament,0.6,11,standard,None,100,,,,,,,,f,20,213,fr,l,0,raw,2022-05-25_10h38.55.509,oddball,2022.1.2,59.913030280493686,
5,,,,,0,0,0,1,8,0,8,0,21,0,21,0,,,,,,,,,,,,,,,,,1005.9067917000502,None,1006.5903218002059,1007.1906306999736,1007.173714000266,1009.1745921000838,None,1,0.6123994598165154,2.613270659931004,decreament,0.6,11,standard,None,100,,,,,,,,f,20,213,fr,l,0,raw,2022-05-25_10h38.55.509,oddball,2022.1.2,59.913030280493686,
5,,,,,0,0,0,1,8,0,8,0,22,0,22,0,,,,,,,,,,,,,,,,,1009.1911863000132,None,1009.7913246001117,1010.3917577001266,1010.3754849000834,1012.3758100001141,None,1,0.6128642596304417,2.613112159539014,decreament,0.6,11,standard,None,100,,,,,,,,f,20,213,fr,l,0,raw,2022-05-25_10h38.55.509,oddball,2022.1.2,59.913030280493686,
5,,,,,0,0,0,1,8,0,8,0,23,0,23,0,,,,,,,,,,,,,,,,,1012.3922986001708,None,1012.9593118000776,1013.5594323999248,1013.5429026000202,1015.5435279002413,None,1,0.6121513596735895,2.612804459873587,decreament,0.6,11,standard,None,100,,,,,,,,f,20,213,fr,l,0,raw,2022-05-25_10h38.55.509,oddball,2022.1.2,59.913030280493686,
5,,,,,0,0,0,1,8,0,8,0,24,0,24,0,,,,,,,,,,,,,,,,,1015.5603653998114,None,1016.2105473000556,1016.6942436001264,1016.6778934998438,1018.6783524001949,None,0,0.49438125966116786,2.494838859885931,decreament,0.48,14,oddball,j,80,,,,,,,,f,20,213,fr,l,0,raw,2022-05-25_10h38.55.509,oddball,2022.1.2,59.913030280493686,
5,,,,,0,0,0,1,8,0,8,0,25,0,25,0,,,,,,,,,,,,,,,,,1018.6950142998248,None,1019.3618232998997,1019.9617861998267,1019.9450662001036,1021.9459446002729,None,1,0.6119397599250078,2.6128441598266363,decreament,0.6,11,standard,None,100,,,,,,,,f,20,213,fr,l,0,raw,2022-05-25_10h38.55.509,oddball,2022.1.2,59.913030280493686,
5,,,,,0,0,0,1,8,0,8,0,26,0,26,0,,,,,,,,,,,,,,,,,1021.9629718000069,None,1022.6299272999167,1023.2301178998314,1023.2131775999442,1025.2137378999032,None,1,0.6120616598054767,2.6125977598130703,decreament,0.6,11,standard,None,100,,,,,,,,f,20,213,fr,l,0,raw,2022-05-25_10h38.55.509,oddball,2022.1.2,59.913030280493686,
5,,,,,0,0,0,1,8,0,8,0,27,0,27,0,,,,,,,,,,,,,,,,,1025.230658300221,None,1025.8143354002386,1026.4145439001732,1026.3977836002596,1028.3985907998867,None,1,0.6107564601115882,2.6115569598041475,decreament,0.6,11,standard,None,100,,,,,,,,f,20,213,fr,l,0,raw,2022-05-25_10h38.55.509,oddball,2022.1.2,59.913030280493686,
5,,,,,0,0,0,1,8,0,8,0,28,0,28,0,,,,,,,,,,,,,,,,,1028.415072900243,None,1029.0990836001001,1029.6988992001861,1029.6822716998868,1031.6830735001713,None,1,0.608278859872371,2.6090769600123167,decreament,0.6,11,standard,None,100,,,,,,,,f,20,213,fr,l,0,raw,2022-05-25_10h38.55.509,oddball,2022.1.2,59.913030280493686,
5,,,,,0,0,0,1,8,0,8,0,29,0,29,0,,,,,,,,,,,,,,,,,1031.6998287001625,None,1032.4005074999295,1033.0004536001943,1032.9841193999164,1034.9841466001235,None,1,0.6125015602447093,2.612456860486418,decreament,0.6,11,standard,None,100,,,,,,,,f,20,213,fr,l,0,raw,2022-05-25_10h38.55.509,oddball,2022.1.2,59.913030280493686,
5,,,,,0,0,0,1,9,0,9,0,0,0,0,0,,,,,,,,,,,,,,,1044.5900526000187,None,1046.9559002998285,None,1047.5563063998707,1048.155901900027,1048.1394859999418,1050.1402925001457,None,1,0.6091196592897177,2.609962759539485,increament,0.6,15,standard,None,100,,1035.0012091998942,None,,,,,f,20,213,fr,l,0,raw,2022-05-25_10h38.55.509,oddball,2022.1.2,59.913030280493686,
5,,,,,0,0,0,1,9,0,9,0,1,0,1,0,,,,,,,,,,,,,,,,,1050.1567679001018,None,1050.8739225999452,1051.474125499837,1051.457196299918,1053.4582564001903,None,1,0.6116562597453594,2.612770459614694,increament,0.6,15,standard,None,100,,,,,,,,f,20,213,fr,l,0,raw,2022-05-25_10h38.55.509,oddball,2022.1.2,59.913030280493686,
5,,,,,0,0,0,1,9,0,9,0,2,0,2,0,,,,,,,,,,,,,,,,,1053.4750745999627,None,1054.0581430001184,1054.65850230027,1054.6416417998262,1056.6428316999227,None,1,0.6139888595789671,2.615239859558642,increament,0.6,15,standard,None,100,,,,,,,,f,20,213,fr,l,0,raw,2022-05-25_10h38.55.509,oddball,2022.1.2,59.913030280493686,
5,,,,,0,0,0,1,9,0,9,0,3,0,3,0,,,,,,,,,,,,,,,,,1056.6600807001814,None,1057.4761860999279,1058.0764939999208,1058.0603009001352,1060.0607706001028,None,1,0.6129118595272303,2.6133521595038474,increament,0.6,15,standard,None,100,,,,,,,,f,20,213,fr,l,0,raw,2022-05-25_10h38.55.509,oddball,2022.1.2,59.913030280493686,
5,,,,,0,0,0,1,9,0,9,0,4,0,4,0,,,,,,,,,,,,,,,,,1060.0774460001849,None,1060.8443721001968,1061.4444995000958,1061.4279750999995,1063.428431800101,None,1,0.6119546596892178,2.61231825966388,increament,0.6,15,standard,None,100,,,,,,,,f,20,213,fr,l,0,raw,2022-05-25_10h38.55.509,oddball,2022.1.2,59.913030280493686,
5,,,,,0,0,0,1,9,0,9,0,5,0,5,0,,,,,,,,,,,,,,,,,1063.4451931999065,None,1064.1290474999696,1065.0957999001257,1065.0624843002297,1067.0632350002415,None,0,0.9607335603795946,2.961442060302943,increament,0.96,18,oddball,j,160,,,,,,,,f,20,213,fr,l,0,raw,2022-05-25_10h38.55.509,oddball,2022.1.2,59.913030280493686,
5,,,,,0,0,0,1,9,0,9,0,6,0,6,0,,,,,,,,,,,,,,,,,1067.0796417002566,None,1067.6632476001978,1068.263762800023,1068.2468272000551,1070.2475347002037,None,1,0.6102093602530658,2.610934460069984,increament,0.6,15,standard,None,100,,,,,,,,f,20,213,fr,l,0,raw,2022-05-25_10h38.55.509,oddball,2022.1.2,59.913030280493686,
5,,,,,0,0,0,1,9,0,9,0,7,0,7,0,,,,,,,,,,,,,,,,,1070.2646321002394,None,1071.1146491002291,1071.714927200228,1071.6985975001007,1073.6992020001635,None,1,0.6121522597968578,2.612721459940076,increament,0.6,15,standard,None,100,,,,,,,,f,20,213,fr,l,0,raw,2022-05-25_10h38.55.509,oddball,2022.1.2,59.913030280493686,
5,,,,,0,0,0,1,9,0,9,0,8,0,8,0,,,,,,,,,,,,,,,,,1073.7156870001927,None,1074.532406900078,1075.1327395001426,1075.1164596001618,1077.1169369998388,None,1,0.6141568594612181,2.614663959480822,increament,0.6,15,standard,None,100,,,,,,,,f,20,213,fr,l,0,raw,2022-05-25_10h38.55.509,oddball,2022.1.2,59.913030280493686,
5,,,,,0,0,0,1,9,0,9,0,9,0,9,0,,,,,,,,,,,,,,,,,1077.1335550001822,None,1077.8173843999393,1078.417446800042,1078.4008883000351,1080.401718699839,None,1,0.6111479597166181,2.612026460003108,increament,0.6,15,standard,None,100,,,,,,,,f,20,213,fr,l,0,raw,2022-05-25_10h38.55.509,oddball,2022.1.2,59.913030280493686,
5,,,,,0,0,0,1,9,0,9,0,10,0,10,0,,,,,,,,,,,,,,,,,1080.4191401000135,None,1081.0351860998198,1081.635426899884,1081.618611200247,1083.619570599869,None,1,0.6119897603057325,2.612972460221499,increament,0.6,15,standard,None,100,,,,,,,,f,20,213,fr,l,0,raw,2022-05-25_10h38.55.509,oddball,2022.1.2,59.913030280493686,
5,,,,,0,0,0,1,9,0,9,0,11,0,11,0,,,,,,,,,,,,,,,,,1083.6362300999463,None,1084.186532900203,1084.7865281999111,1084.7699039001018,1086.7704501999542,None,1,0.6090025599114597,2.6095332601107657,increament,0.6,15,standard,None,100,,,,,,,,f,20,213,fr,l,0,raw,2022-05-25_10h38.55.509,oddball,2022.1.2,59.913030280493686,
5,,,,,0,0,0,1,9,0,9,0,12,0,12,0,,,,,,,,,,,,,,,,,1086.7874369998462,None,1087.4542133002542,1088.0544497999363,1088.037669800222,1090.0387118998915,None,1,0.6125599597580731,2.613691359758377,increament,0.6,15,standard,None,100,,,,,,,,f,20,213,fr,l,0,raw,2022-05-25_10h38.55.509,oddball,2022.1.2,59.913030280493686,
5,,,,,0,0,0,1,9,0,9,0,13,0,13,0,,,,,,,,,,,,,,,,,1090.055585199967,None,1090.6391988000832,1091.2387911998667,1091.2223629001528,1093.2229316001758,None,1,0.6094244602136314,2.6100091603584588,increament,0.6,15,standard,None,100,,,,,,,,f,20,213,fr,l,0,raw,2022-05-25_10h38.55.509,oddball,2022.1.2,59.913030280493686,
5,,,,,0,0,0,1,9,0,9,0,14,0,14,0,,,,,,,,,,,,,,,,,1093.2397539000958,None,1093.8065240001306,1094.4068808001466,1094.3902607001364,1096.3905348000117,None,1,0.613106660079211,2.613325759768486,increament,0.6,15,standard,None,100,,,,,,,,f,20,213,fr,l,0,raw,2022-05-25_10h38.55.509,oddball,2022.1.2,59.913030280493686,
5,,,,,0,0,0,1,9,0,9,0,15,0,15,0,,,,,,,,,,,,,,,,,1096.4072602000087,None,1097.1745866998099,1097.7749863001518,1097.7583074001595,1099.7590486002155,None,1,0.6128870598040521,2.613688060082495,increament,0.6,15,standard,None,100,,,,,,,,f,20,213,fr,l,0,raw,2022-05-25_10h38.55.509,oddball,2022.1.2,59.913030280493686,
5,,,,,0,0,0,1,9,0,9,0,16,0,16,0,,,,,,,,,,,,,,,,,1099.7756973002106,None,1100.3595961001702,1100.9596100999042,1100.9430581000634,1102.9434918002225,None,1,0.6128975595347583,2.613503759726882,increament,0.6,15,standard,None,100,,,,,,,,f,20,213,fr,l,0,raw,2022-05-25_10h38.55.509,oddball,2022.1.2,59.913030280493686,
5,,,,,0,0,0,1,9,0,9,0,17,0,17,0,,,,,,,,,,,,,,,,,1102.9602359998971,None,1103.5603828001767,1104.160452300217,1104.1439495999366,1106.1442648000084,None,1,0.6129101598635316,2.6131691597402096,increament,0.6,15,standard,None,100,,,,,,,,f,20,213,fr,l,0,raw,2022-05-25_10h38.55.509,oddball,2022.1.2,59.913030280493686,
5,,,,,0,0,0,1,9,0,9,0,18,0,18,0,,,,,,,,,,,,,,,,,1106.1609144001268,None,1106.7452203999273,1107.3452456002124,1107.3283425001428,1109.3293117000721,None,1,0.6111440602689981,2.6121340598911047,increament,0.6,15,standard,None,100,,,,,,,,f,20,213,fr,l,0,raw,2022-05-25_10h38.55.509,oddball,2022.1.2,59.913030280493686,
5,,,,,0,0,0,1,9,0,9,0,19,0,19,0,,,,,,,,,,,,,,,,,1109.3457239000127,None,1109.929520800244,1110.5295715001412,1110.513117800001,1112.5135638001375,j,0,0.6116913598962128,2.6120935599319637,increament,0.6,15,standard,None,100,0.677228800021112,,,,,,,f,20,213,fr,l,0,raw,2022-05-25_10h38.55.509,oddball,2022.1.2,59.913030280493686,
5,,,,,0,0,0,1,9,0,9,0,20,0,20,0,,,,,,,,,,,,,,,,,1112.5303859999403,None,1113.3474083002657,1113.9474864001386,1113.930981699843,1115.9318115999922,None,1,0.6099757603369653,2.6107700602151453,increament,0.6,15,standard,None,100,,,,,,,,f,20,213,fr,l,0,raw,2022-05-25_10h38.55.509,oddball,2022.1.2,59.913030280493686,
5,,,,,0,0,0,1,9,0,9,0,21,0,21,0,,,,,,,,,,,,,,,,,1115.9484081999399,None,1116.5487235998735,1117.3989082998596,1117.3656795001589,1119.3665045001544,j,1,0.8435416594147682,2.8444175594486296,increament,0.84,17,oddball,j,140,0.5670811999589205,,,,,,,f,20,213,fr,l,0,raw,2022-05-25_10h38.55.509,oddball,2022.1.2,59.913030280493686,
5,,,,,0,0,0,1,9,0,9,0,22,0,22,0,,,,,,,,,,,,,,,,,1119.3831799002364,None,1120.0497602000833,1120.6502709002234,1120.6336667002179,1122.6343787000515,None,1,0.6127829602919519,2.61345206014812,increament,0.6,15,standard,None,100,,,,,,,,f,20,213,fr,l,0,raw,2022-05-25_10h38.55.509,oddball,2022.1.2,59.913030280493686,
5,,,,,0,0,0,1,9,0,9,0,23,0,23,0,,,,,,,,,,,,,,,,,1122.6510334000923,None,1123.2176502998918,1123.8181997002102,1123.8019432998262,1125.8020580001175,None,1,0.6141208596527576,2.6142175598070025,increament,0.6,15,standard,None,100,,,,,,,,f,20,213,fr,l,0,raw,2022-05-25_10h38.55.509,oddball,2022.1.2,59.913030280493686,
5,,,,,0,0,0,1,9,0,9,0,24,0,24,0,,,,,,,,,,,,,,,,,1125.8190457001328,None,1126.6526258001104,1127.2527943998575,1127.2360053001903,1129.2366701001301,None,1,0.613416759762913,2.6140784597955644,increament,0.6,15,standard,None,100,,,,,,,,f,20,213,fr,l,0,raw,2022-05-25_10h38.55.509,oddball,2022.1.2,59.913030280493686,
5,,,,,0,0,0,1,9,0,9,0,25,0,25,0,,,,,,,,,,,,,,,,,1129.2535568000749,None,1129.887333100196,1130.4871533000842,1130.470986200031,1132.4710494000465,None,1,0.6109797596000135,2.6109635597094893,increament,0.6,15,standard,None,100,,,,,,,,f,20,213,fr,l,0,raw,2022-05-25_10h38.55.509,oddball,2022.1.2,59.913030280493686,
5,,,,,0,0,0,1,9,0,9,0,26,0,26,0,,,,,,,,,,,,,,,,,1132.4880432998762,None,1133.071673899889,1133.8051722999662,1133.7717834999785,1135.772372300271,None,0,0.7281101602129638,2.7286498602479696,increament,0.72,16,oddball,j,120,,,,,,,,f,20,213,fr,l,0,raw,2022-05-25_10h38.55.509,oddball,2022.1.2,59.913030280493686,
5,,,,,0,0,0,1,9,0,9,0,27,0,27,0,,,,,,,,,,,,,,,,,1135.7891277000308,None,1136.456204299815,1137.0564792999066,1137.039540400263,1139.040690400172,None,1,0.6120201596058905,2.6132163596339524,increament,0.6,15,standard,None,100,,,,,,,,f,20,213,fr,l,0,raw,2022-05-25_10h38.55.509,oddball,2022.1.2,59.913030280493686,
5,,,,,0,0,0,1,9,0,9,0,28,0,28,0,,,,,,,,,,,,,,,,,1139.0570566998795,None,1139.757870499976,1140.3575463001616,1140.34113480011,1142.3417775002308,None,1,0.6093317596241832,2.6099667600356042,increament,0.6,15,standard,None,100,,,,,,,,f,20,213,fr,l,0,raw,2022-05-25_10h38.55.509,oddball,2022.1.2,59.913030280493686,
5,,,,,0,0,0,1,9,0,9,0,29,0,29,0,,,,,,,,,,,,,,,,,1142.3585006999783,None,1143.0753051000647,1143.6754767000675,1143.6591531001031,1145.6596344001591,None,1,0.6124668600969017,2.6129863602109253,increament,0.6,15,standard,None,100,,,,,,,,f,20,213,fr,l,0,raw,2022-05-25_10h38.55.509,oddball,2022.1.2,59.913030280493686,
0,,,,,0,1,1,0,0,0,0,0,0,0,0,0,,,,,,,,,,,,,,,1328.5364291002043,None,1332.047027700115,None,1332.6640424998477,1333.264150999952,1333.2472832999192,1335.2482782998122,None,1,0.6078854599036276,2.6089076600037515,decreament,0.6,1,standard,None,100,,1325.7111370000057,None,1145.6977340001613,None,,,f,20,213,fr,l,0,raw,2022-05-25_10h38.55.509,oddball,2022.1.2,59.913030280493686,
0,,,,,0,1,1,0,0,0,0,0,1,0,1,0,,,,,,,,,,,,,,,,,1335.2647616998293,None,1335.898474900052,1336.4987123999745,1336.4823261001147,1338.48266360024,None,1,0.6118062599562109,2.6120337597094476,decreament,0.6,1,standard,None,100,,,,,,,,f,20,213,fr,l,0,raw,2022-05-25_10h38.55.509,oddball,2022.1.2,59.913030280493686,
0,,,,,0,1,1,0,0,0,0,0,2,0,2,0,,,,,,,,,,,,,,,,,1338.4992650998756,None,1339.0998511998914,1339.699852900114,1339.683322200086,1341.6840208000503,None,1,0.6115303598344326,2.6121656596660614,decreament,0.6,1,standard,None,100,,,,,,,,f,20,213,fr,l,0,raw,2022-05-25_10h38.55.509,oddball,2022.1.2,59.913030280493686,
0,,,,,0,1,1,0,0,0,0,0,3,0,3,0,,,,,,,,,,,,,,,,,1341.7004038002342,None,1342.3678453001194,1342.9677281002514,1342.9510246999562,1344.951583799906,None,1,0.6095298598520458,2.6101170601323247,decreament,0.6,1,standard,None,100,,,,,,,,f,20,213,fr,l,0,raw,2022-05-25_10h38.55.509,oddball,2022.1.2,59.913030280493686,
0,,,,,0,1,1,0,0,0,0,0,4,0,4,0,,,,,,,,,,,,,,,,,1344.9683818998747,None,1345.6186518999748,1346.2187446001917,1346.2021603998728,1348.2028490998782,None,1,0.6127583598718047,2.6134348600171506,decreament,0.6,1,standard,None,100,,,,,,,,f,20,213,fr,l,0,raw,2022-05-25_10h38.55.509,oddball,2022.1.2,59.913030280493686,
0,,,,,0,1,1,0,0,0,0,0,5,0,5,0,,,,,,,,,,,,,,,,,1348.2198280999437,None,1348.970063299872,1349.5706226001494,1349.5536817000248,1351.5547298998572,None,1,0.6095355600118637,2.6106516597792506,decreament,0.6,1,standard,None,100,,,,,,,,f,20,213,fr,l,0,raw,2022-05-25_10h38.55.509,oddball,2022.1.2,59.913030280493686,
0,,,,,0,1,1,0,0,0,0,0,6,0,6,0,,,,,,,,,,,,,,,,,1351.5721101001836,None,1352.3379247002304,1352.9380151000805,1352.9212429998443,1354.922025800217,None,1,0.609614759683609,2.610410759691149,decreament,0.6,1,standard,None,100,,,,,,,,f,20,213,fr,l,0,raw,2022-05-25_10h38.55.509,oddball,2022.1.2,59.913030280493686,
0,,,,,0,1,1,0,0,0,0,0,7,0,7,0,,,,,,,,,,,,,,,,,1354.9390579001047,None,1355.6061566001736,1355.8559842002578,1355.8224361999892,1357.8233107998967,j,1,0.24358796002343297,2.244497159961611,decreament,0.24,2,oddball,j,40,1.190006600227207,,,,,,,f,20,213,fr,l,0,raw,2022-05-25_10h38.55.509,oddball,2022.1.2,59.913030280493686,
0,,,,,0,1,1,0,0,0,0,0,8,0,8,0,,,,,,,,,,,,,,,,,1357.8401183001697,None,1358.4736373000778,1359.0736508001573,1359.057270700112,1361.0578757999465,None,1,0.610752759501338,2.611334859393537,decreament,0.6,1,standard,None,100,,,,,,,,f,20,213,fr,l,0,raw,2022-05-25_10h38.55.509,oddball,2022.1.2,59.913030280493686,
0,,,,,0,1,1,0,0,0,0,0,9,0,9,0,,,,,,,,,,,,,,,,,1361.0744068999775,None,1361.6419167998247,1362.2414763001725,1362.2251043999568,1364.22607279988,None,1,0.6124981590546668,2.613565359264612,decreament,0.6,1,standard,None,100,,,,,,,,f,20,213,fr,l,0,raw,2022-05-25_10h38.55.509,oddball,2022.1.2,59.913030280493686,
0,,,,,0,1,1,0,0,0,0,0,10,0,10,0,,,,,,,,,,,,,,,,,1364.243914999999,None,1364.8761650999077,1365.4761828999035,1365.4593529999256,1367.460212300066,None,1,0.611631159670651,2.612499559763819,decreament,0.6,1,standard,None,100,,,,,,,,f,20,213,fr,l,0,raw,2022-05-25_10h38.55.509,oddball,2022.1.2,59.913030280493686,
0,,,,,0,1,1,0,0,0,0,0,11,0,11,0,,,,,,,,,,,,,,,,,1367.4769834000617,None,1368.1107294000685,1368.7105871001258,1368.6942257001065,1370.6949122999795,None,1,0.6118511599488556,2.612471059896052,decreament,0.6,1,standard,None,100,,,,,,,,f,20,213,fr,l,0,raw,2022-05-25_10h38.55.509,oddball,2022.1.2,59.913030280493686,
0,,,,,0,1,1,0,0,0,0,0,12,0,12,0,,,,,,,,,,,,,,,,,1370.711806599982,None,1371.4450536002405,1372.0454760999419,1372.0287021002732,1374.0298597998917,None,1,0.6141264601610601,2.615304060280323,decreament,0.6,1,standard,None,100,,,,,,,,f,20,213,fr,l,0,raw,2022-05-25_10h38.55.509,oddball,2022.1.2,59.913030280493686,
0,,,,,0,1,1,0,0,0,0,0,13,0,13,0,,,,,,,,,,,,,,,,,1374.0466603999957,None,1374.579581900034,1375.1800013999455,1375.163759100251,1377.1639951998368,None,1,0.6136570600792766,2.613817260134965,decreament,0.6,1,standard,None,100,,,,,,,,f,20,213,fr,l,0,raw,2022-05-25_10h38.55.509,oddball,2022.1.2,59.913030280493686,
