grating_freq,blocks_prac.thisRepN,blocks_prac.thisTrialN,blocks_prac.thisN,blocks_prac.thisIndex,blocks.thisRepN,blocks.thisTrialN,blocks.thisN,blocks.thisIndex,repeat_freq.thisRepN,repeat_freq.thisTrialN,repeat_freq.thisN,repeat_freq.thisIndex,trials.thisRepN,trials.thisTrialN,trials.thisN,trials.thisIndex,break_loop.thisRepN,break_loop.thisTrialN,break_loop.thisN,break_loop.thisIndex,rest_loop.thisRepN,rest_loop.thisTrialN,rest_loop.thisN,rest_loop.thisIndex,instruct_prac_text.started,instruct_prac_text.stopped,b_instruct_text_2_.started,b_instruct_text_2_.stopped,prac_done_text.started,prac_done_text.stopped,instruct_text.started,instruct_text.stopped,fixation.started,fixation.stopped,grating.started,grating.stopped,blank.started,blank.stopped,resp.keys,resp.corr,resp.started,resp.stopped,direction,duration,trigger,stim_type,corr_ans,scaling,resp.rt,rest_text.started,rest_text.stopped,text_2.started,text_2.stopped,thx_txt.started,thx_txt.stopped,gender,age,participant,language,main_hand,nBlock_prac,file_suffix,date,expName,psychopyVersion,frameRate,
5,,,,,0,0,0,1,0,0,0,0,0,0,0,0,,,,,,,,,20.35934039996937,None,43.0803396999836,None,45.50333289988339,None,70.79921900015324,None,74.79205420007929,None,75.39794120006263,76.00913699995726,75.95915140025318,77.95959010021761,None,1,0.609394300263375,2.609838900156319,decreament,0.6,11,standard,None,100,,,,,,,,m,22,215,fr,r,0,raw,2022-05-30_10h27.45.466,oddball,2022.1.2,59.83502298369197,
5,,,,,0,0,0,1,0,0,0,0,1,0,1,0,,,,,,,,,,,,,,,,,77.9764779000543,None,78.70982290012762,79.3101125000976,79.29381190007553,81.29432820016518,None,1,0.6123455003835261,2.613102000206709,decreament,0.6,11,standard,None,100,,,,,,,,m,22,215,fr,r,0,raw,2022-05-30_10h27.45.466,oddball,2022.1.2,59.83502298369197,
5,,,,,0,0,0,1,0,0,0,0,2,0,2,0,,,,,,,,,,,,,,,,,81.3110823999159,None,81.94444980006665,82.54473170032725,82.52833250025287,84.52902640029788,None,1,0.6122368001379073,2.612945199944079,decreament,0.6,11,standard,None,100,,,,,,,,m,22,215,fr,r,0,raw,2022-05-30_10h27.45.466,oddball,2022.1.2,59.83502298369197,
5,,,,,0,0,0,1,0,0,0,0,3,0,3,0,,,,,,,,,,,,,,,,,84.54543679999188,None,85.09595189988613,85.69571090023965,85.67937050014734,87.67987029999495,None,1,0.6127636996097863,2.613211799878627,decreament,0.6,11,standard,None,100,,,,,,,,m,22,215,fr,r,0,raw,2022-05-30_10h27.45.466,oddball,2022.1.2,59.83502298369197,
5,,,,,0,0,0,1,0,0,0,0,4,0,4,0,,,,,,,,,,,,,,,,,87.69651400018483,None,88.33059719996527,88.9308299003169,88.91405030013993,90.91466350015253,None,1,0.6122448998503387,2.61281989980489,decreament,0.6,11,standard,None,100,,,,,,,,m,22,215,fr,r,0,raw,2022-05-30_10h27.45.466,oddball,2022.1.2,59.83502298369197,
5,,,,,0,0,0,1,0,0,0,0,5,0,5,0,,,,,,,,,,,,,,,,,90.93109210021794,None,91.53171120025218,92.01517900032923,91.9985556001775,93.99928680015728,None,0,0.49198529962450266,2.49268989963457,decreament,0.48,14,oddball,j,80,,,,,,,,m,22,215,fr,r,0,raw,2022-05-30_10h27.45.466,oddball,2022.1.2,59.83502298369197,
5,,,,,0,0,0,1,0,0,0,0,6,0,6,0,,,,,,,,,,,,,,,,,94.01575140003115,None,94.66608479991555,95.26629780000076,95.2495046001859,97.25014090025797,None,1,0.6122078998014331,2.6128654000349343,decreament,0.6,11,standard,None,100,,,,,,,,m,22,215,fr,r,0,raw,2022-05-30_10h27.45.466,oddball,2022.1.2,59.83502298369197,
5,,,,,0,0,0,1,0,0,0,0,7,0,7,0,,,,,,,,,,,,,,,,,97.26699470030144,None,97.88395800022408,98.48403890011832,98.46747069992125,100.46805790020153,None,1,0.6093617002479732,2.60994190024212,decreament,0.6,11,standard,None,100,,,,,,,,m,22,215,fr,r,0,raw,2022-05-30_10h27.45.466,oddball,2022.1.2,59.83502298369197,
5,,,,,0,0,0,1,0,0,0,0,8,0,8,0,,,,,,,,,,,,,,,,,100.48503570025787,None,101.05198589991778,101.6519355000928,101.63552440004423,103.63619309989735,None,1,0.6115420004352927,2.612127900123596,decreament,0.6,11,standard,None,100,,,,,,,,m,22,215,fr,r,0,raw,2022-05-30_10h27.45.466,oddball,2022.1.2,59.83502298369197,
5,,,,,0,0,0,1,0,0,0,0,9,0,9,0,,,,,,,,,,,,,,,,,103.65281639993191,None,104.31996069988236,104.56969750020653,104.53626439999789,106.53707730025053,j,1,0.2431488004513085,2.2439418002031744,decreament,0.24,12,oddball,j,40,0.6311378004029393,,,,,,,m,22,215,fr,r,0,raw,2022-05-30_10h27.45.466,oddball,2022.1.2,59.83502298369197,
5,,,,,0,0,0,1,0,0,0,0,10,0,10,0,,,,,,,,,,,,,,,,,106.55398559989408,None,107.27078140014783,107.87078770017251,107.85431660013273,109.8553889002651,None,1,0.611686899792403,2.61278979992494,decreament,0.6,11,standard,None,100,,,,,,,,m,22,215,fr,r,0,raw,2022-05-30_10h27.45.466,oddball,2022.1.2,59.83502298369197,
5,,,,,0,0,0,1,0,0,0,0,11,0,11,0,,,,,,,,,,,,,,,,,109.87178680021316,None,110.40527760004625,111.00525420019403,110.98903230018914,112.98985109990463,None,1,0.6097002997994423,2.6105978996492922,decreament,0.6,11,standard,None,100,,,,,,,,m,22,215,fr,r,0,raw,2022-05-30_10h27.45.466,oddball,2022.1.2,59.83502298369197,
5,,,,,0,0,0,1,0,0,0,0,12,0,12,0,,,,,,,,,,,,,,,,,113.00632059993222,None,113.67357840016484,114.27334529999644,114.25721390033141,116.25746410014108,None,1,0.6129331002011895,2.613061100244522,decreament,0.6,11,standard,None,100,,,,,,,,m,22,215,fr,r,0,raw,2022-05-30_10h27.45.466,oddball,2022.1.2,59.83502298369197,
5,,,,,0,0,0,1,0,0,0,0,13,0,13,0,,,,,,,,,,,,,,,,,116.2742049000226,None,116.97466679988429,117.57459510024637,117.55785540025681,119.55878899991512,None,1,0.6124494997784495,2.613411400001496,decreament,0.6,11,standard,None,100,,,,,,,,m,22,215,fr,r,0,raw,2022-05-30_10h27.45.466,oddball,2022.1.2,59.83502298369197,
5,,,,,0,0,0,1,0,0,0,0,14,0,14,0,,,,,,,,,,,,,,,,,119.5753474002704,None,120.32560370024294,120.92548680026084,120.90888640005141,122.91034279996529,None,1,0.6125018000602722,2.6140876999124885,decreament,0.6,11,standard,None,100,,,,,,,,m,22,215,fr,r,0,raw,2022-05-30_10h27.45.466,oddball,2022.1.2,59.83502298369197,
5,,,,,0,0,0,1,0,0,0,0,15,0,15,0,,,,,,,,,,,,,,,,,122.92782049998641,None,123.57690150011331,124.17722549987957,124.16079299990088,126.16173620009795,None,1,0.6129514002241194,2.6139118000864983,decreament,0.6,11,standard,None,100,,,,,,,,m,22,215,fr,r,0,raw,2022-05-30_10h27.45.466,oddball,2022.1.2,59.83502298369197,
5,,,,,0,0,0,1,0,0,0,0,16,0,16,0,,,,,,,,,,,,,,,,,126.17817170033231,None,126.878432800062,127.47870610002428,127.46203500032425,129.46226180018857,None,1,0.6130735003389418,2.6132297003641725,decreament,0.6,11,standard,None,100,,,,,,,,m,22,215,fr,r,0,raw,2022-05-30_10h27.45.466,oddball,2022.1.2,59.83502298369197,
5,,,,,0,0,0,1,0,0,0,0,17,0,17,0,,,,,,,,,,,,,,,,,129.47926250007004,None,130.11246100021526,130.47936569992453,130.4463467001915,132.44700550008565,j,1,0.3644002000801265,2.3650972000323236,decreament,0.36,13,oddball,j,60,0.5036478000693023,,,,,,,m,22,215,fr,r,0,raw,2022-05-30_10h27.45.466,oddball,2022.1.2,59.83502298369197,
5,,,,,0,0,0,1,0,0,0,0,18,0,18,0,,,,,,,,,,,,,,,,,132.4638425000012,None,133.06379330018535,133.66420900030062,133.64756030030549,135.64817140018567,None,1,0.6126827006228268,2.613238800317049,decreament,0.6,11,standard,None,100,,,,,,,,m,22,215,fr,r,0,raw,2022-05-30_10h27.45.466,oddball,2022.1.2,59.83502298369197,
5,,,,,0,0,0,1,0,0,0,0,19,0,19,0,,,,,,,,,,,,,,,,,135.66496950015426,None,136.41516020009294,137.01531440019608,136.9989566002041,138.99956970009953,None,1,0.6119013000279665,2.612537699751556,decreament,0.6,11,standard,None,100,,,,,,,,m,22,215,fr,r,0,raw,2022-05-30_10h27.45.466,oddball,2022.1.2,59.83502298369197,
5,,,,,0,0,0,1,0,0,0,0,20,0,20,0,,,,,,,,,,,,,,,,,139.01728990022093,None,139.66652970016003,140.26652830000967,140.24970960011706,142.25080050015822,None,1,0.6100387005135417,2.6111287004314363,decreament,0.6,11,standard,None,100,,,,,,,,m,22,215,fr,r,0,raw,2022-05-30_10h27.45.466,oddball,2022.1.2,59.83502298369197,
5,,,,,0,0,0,1,0,0,0,0,21,0,21,0,,,,,,,,,,,,,,,,,142.2672954001464,None,142.90091999992728,143.50112139992416,143.48468289989978,145.48508780030534,None,1,0.6106978002935648,2.611026600468904,decreament,0.6,11,standard,None,100,,,,,,,,m,22,215,fr,r,0,raw,2022-05-30_10h27.45.466,oddball,2022.1.2,59.83502298369197,
5,,,,,0,0,0,1,0,0,0,0,22,0,22,0,,,,,,,,,,,,,,,,,145.5019276002422,None,146.1691049002111,146.76889669988304,146.75254710018635,148.75341890007257,None,1,0.612703500315547,2.6136292004957795,decreament,0.6,11,standard,None,100,,,,,,,,m,22,215,fr,r,0,raw,2022-05-30_10h27.45.466,oddball,2022.1.2,59.83502298369197,
5,,,,,0,0,0,1,0,0,0,0,23,0,23,0,,,,,,,,,,,,,,,,,148.76988789997995,None,149.420289600268,150.02037360006943,150.00363720022142,152.00443170033395,None,1,0.6128881997428834,2.6136363996192813,decreament,0.6,11,standard,None,100,,,,,,,,m,22,215,fr,r,0,raw,2022-05-30_10h27.45.466,oddball,2022.1.2,59.83502298369197,
5,,,,,0,0,0,1,0,0,0,0,24,0,24,0,,,,,,,,,,,,,,,,,152.02108790026978,None,152.75451910030097,153.3547721998766,153.3383426000364,155.3392012999393,None,1,0.6144105005078018,2.6153467004187405,decreament,0.6,11,standard,None,100,,,,,,,,m,22,215,fr,r,0,raw,2022-05-30_10h27.45.466,oddball,2022.1.2,59.83502298369197,
5,,,,,0,0,0,1,0,0,0,0,25,0,25,0,,,,,,,,,,,,,,,,,155.35594059992582,None,155.98935719998553,156.58940410008654,156.57261499995366,158.57355780014768,None,1,0.6095398003235459,2.610497100278735,decreament,0.6,11,standard,None,100,,,,,,,,m,22,215,fr,r,0,raw,2022-05-30_10h27.45.466,oddball,2022.1.2,59.83502298369197,
5,,,,,0,0,0,1,0,0,0,0,26,0,26,0,,,,,,,,,,,,,,,,,158.59016770031303,None,159.25737329991534,159.85723729990423,159.84074919996783,161.84127409989014,None,1,0.6092739999294281,2.6096677999012172,decreament,0.6,11,standard,None,100,,,,,,,,m,22,215,fr,r,0,raw,2022-05-30_10h27.45.466,oddball,2022.1.2,59.83502298369197,
5,,,,,0,0,0,1,0,0,0,0,27,0,27,0,,,,,,,,,,,,,,,,,161.8580693001859,None,162.44171410007402,163.04176599998027,163.02513330010697,165.02604780020192,None,1,0.6127559007145464,2.6136867008171976,decreament,0.6,11,standard,None,100,,,,,,,,m,22,215,fr,r,0,raw,2022-05-30_10h27.45.466,oddball,2022.1.2,59.83502298369197,
5,,,,,0,0,0,1,0,0,0,0,28,0,28,0,,,,,,,,,,,,,,,,,165.0427800999023,None,165.59297699993476,166.19303750013933,166.1764823999256,168.17712840018794,None,1,0.6123879002407193,2.6130237001925707,decreament,0.6,11,standard,None,100,,,,,,,,m,22,215,fr,r,0,raw,2022-05-30_10h27.45.466,oddball,2022.1.2,59.83502298369197,
5,,,,,0,0,0,1,0,0,0,0,29,0,29,0,,,,,,,,,,,,,,,,,168.19396599987522,None,168.87737079989165,169.47753289993852,169.46104580024257,171.46193300001323,None,1,0.6108854003250599,2.6118217003531754,decreament,0.6,11,standard,None,100,,,,,,,,m,22,215,fr,r,0,raw,2022-05-30_10h27.45.466,oddball,2022.1.2,59.83502298369197,
5,,,,,0,0,0,1,1,0,1,0,0,0,0,0,,,,,,,,,,,,,,,174.31353930011392,None,175.47984019992873,None,176.11339890025556,176.7136643002741,176.69705720013008,178.6980105000548,None,1,0.6113564004190266,2.6123922001570463,increament,0.6,15,standard,None,100,,171.47853829991072,None,,,,,m,22,215,fr,r,0,raw,2022-05-30_10h27.45.466,oddball,2022.1.2,59.83502298369197,
5,,,,,0,0,0,1,1,0,1,0,1,0,1,0,,,,,,,,,,,,,,,,,178.71567209996283,None,179.29827379994094,179.89851449988782,179.8817560998723,181.88263199990615,None,1,0.6113350000232458,2.612153199966997,increament,0.6,15,standard,None,100,,,,,,,,m,22,215,fr,r,0,raw,2022-05-30_10h27.45.466,oddball,2022.1.2,59.83502298369197,
5,,,,,0,0,0,1,1,0,1,0,2,0,2,0,,,,,,,,,,,,,,,,,181.89902030024678,None,182.63249169988558,183.23278219997883,183.21620419993997,185.21700120018795,None,1,0.6133409002795815,2.614190200343728,increament,0.6,15,standard,None,100,,,,,,,,m,22,215,fr,r,0,raw,2022-05-30_10h27.45.466,oddball,2022.1.2,59.83502298369197,
5,,,,,0,0,0,1,1,0,1,0,3,0,3,0,,,,,,,,,,,,,,,,,185.23389620007947,None,185.91731770010665,186.51731450017542,186.5007954002358,188.50176110025495,None,1,0.6111282999627292,2.6121932002715766,increament,0.6,15,standard,None,100,,,,,,,,m,22,215,fr,r,0,raw,2022-05-30_10h27.45.466,oddball,2022.1.2,59.83502298369197,
5,,,,,0,0,0,1,1,0,1,0,4,0,4,0,,,,,,,,,,,,,,,,,188.51827439991757,None,189.21865459997207,189.81849900027737,189.8024876001291,191.80288220010698,None,1,0.6110282996669412,2.611420900095254,increament,0.6,15,standard,None,100,,,,,,,,m,22,215,fr,r,0,raw,2022-05-30_10h27.45.466,oddball,2022.1.2,59.83502298369197,
5,,,,,0,0,0,1,1,0,1,0,5,0,5,0,,,,,,,,,,,,,,,,,191.81971060018986,None,192.4532917998731,193.0534508000128,193.03679959988222,195.0372429001145,None,1,0.6103969002142549,2.610803599935025,increament,0.6,15,standard,None,100,,,,,,,,m,22,215,fr,r,0,raw,2022-05-30_10h27.45.466,oddball,2022.1.2,59.83502298369197,
5,,,,,0,0,0,1,1,0,1,0,6,0,6,0,,,,,,,,,,,,,,,,,195.05419939989224,None,195.75435840012506,196.354387300089,196.33783010020852,198.33887480013072,None,1,0.6110886000096798,2.612238199915737,increament,0.6,15,standard,None,100,,,,,,,,m,22,215,fr,r,0,raw,2022-05-30_10h27.45.466,oddball,2022.1.2,59.83502298369197,
5,,,,,0,0,0,1,1,0,1,0,7,0,7,0,,,,,,,,,,,,,,,,,198.35681940009817,None,199.02243980020285,199.62236959999427,199.60565609997138,201.60660109994933,None,1,0.6125893997959793,2.6135982000268996,increament,0.6,15,standard,None,100,,,,,,,,m,22,215,fr,r,0,raw,2022-05-30_10h27.45.466,oddball,2022.1.2,59.83502298369197,
5,,,,,0,0,0,1,1,0,1,0,8,0,8,0,,,,,,,,,,,,,,,,,201.62333279987797,None,202.30708170030266,202.90685790032148,202.89045879989862,204.8913063001819,None,1,0.6127501004375517,2.6136936000548303,increament,0.6,15,standard,None,100,,,,,,,,m,22,215,fr,r,0,raw,2022-05-30_10h27.45.466,oddball,2022.1.2,59.83502298369197,
5,,,,,0,0,0,1,1,0,1,0,9,0,9,0,,,,,,,,,,,,,,,,,204.90873680030927,None,205.47517170011997,206.0749738998711,206.05833250004798,208.0590627999045,None,1,0.6093343999236822,2.6101621999405324,increament,0.6,15,standard,None,100,,,,,,,,m,22,215,fr,r,0,raw,2022-05-30_10h27.45.466,oddball,2022.1.2,59.83502298369197,
5,,,,,0,0,0,1,1,0,1,0,10,0,10,0,,,,,,,,,,,,,,,,,208.07653729990125,None,208.75947300018743,209.35965429991484,209.34285270003602,211.34380239993334,None,1,0.6091661006212234,2.6101968004368246,increament,0.6,15,standard,None,100,,,,,,,,m,22,215,fr,r,0,raw,2022-05-30_10h27.45.466,oddball,2022.1.2,59.83502298369197,
5,,,,,0,0,0,1,1,0,1,0,11,0,11,0,,,,,,,,,,,,,,,,,211.36027579987422,None,212.1104876003228,212.84399119997397,212.81065919995308,214.81150329997763,j,1,0.7299633999355137,2.7308212998323143,increament,0.72,16,oddball,j,120,1.1077371002174914,,,,,,,m,22,215,fr,r,0,raw,2022-05-30_10h27.45.466,oddball,2022.1.2,59.83502298369197,
5,,,,,0,0,0,1,1,0,1,0,12,0,12,0,,,,,,,,,,,,,,,,,214.8285157000646,None,215.4619629001245,216.06236380012706,216.04576440015808,218.04614489991218,None,1,0.6123827998526394,2.612728100270033,increament,0.6,15,standard,None,100,,,,,,,,m,22,215,fr,r,0,raw,2022-05-30_10h27.45.466,oddball,2022.1.2,59.83502298369197,
5,,,,,0,0,0,1,1,0,1,0,13,0,13,0,,,,,,,,,,,,,,,,,218.06297940015793,None,218.59608229994774,219.19696359988302,219.18018050026149,221.18080120021477,None,1,0.6136388001032174,2.614262900315225,increament,0.6,15,standard,None,100,,,,,,,,m,22,215,fr,r,0,raw,2022-05-30_10h27.45.466,oddball,2022.1.2,59.83502298369197,
5,,,,,0,0,0,1,1,0,1,0,14,0,14,0,,,,,,,,,,,,,,,,,221.19733100011945,None,221.86457760026678,222.46449530031532,222.44783380022272,224.44870260031894,None,1,0.6096703000366688,2.6105552003718913,increament,0.6,15,standard,None,100,,,,,,,,m,22,215,fr,r,0,raw,2022-05-30_10h27.45.466,oddball,2022.1.2,59.83502298369197,
5,,,,,0,0,0,1,1,0,1,0,15,0,15,0,,,,,,,,,,,,,,,,,224.46525519993156,None,225.18188450019807,225.78263440029696,225.76623230008408,227.76663010008633,None,1,0.6136138001456857,2.6140089998953044,increament,0.6,15,standard,None,100,,,,,,,,m,22,215,fr,r,0,raw,2022-05-30_10h27.45.466,oddball,2022.1.2,59.83502298369197,
5,,,,,0,0,0,1,1,0,1,0,16,0,16,0,,,,,,,,,,,,,,,,,227.78320639999583,None,228.43363830028102,229.0335468002595,229.01684330031276,231.01754879998043,None,1,0.6112063997425139,2.6119201998226345,increament,0.6,15,standard,None,100,,,,,,,,m,22,215,fr,r,0,raw,2022-05-30_10h27.45.466,oddball,2022.1.2,59.83502298369197,
5,,,,,0,0,0,1,1,0,1,0,17,0,17,0,,,,,,,,,,,,,,,,,231.03445310005918,None,231.68506370019168,232.28463330026716,232.2684462000616,234.26873930031434,None,1,0.6098364000208676,2.6098292004317045,increament,0.6,15,standard,None,100,,,,,,,,m,22,215,fr,r,0,raw,2022-05-30_10h27.45.466,oddball,2022.1.2,59.83502298369197,
5,,,,,0,0,0,1,1,0,1,0,18,0,18,0,,,,,,,,,,,,,,,,,234.28560970025137,None,234.85257819993421,235.70265159988776,235.6693613003008,237.66990390000865,None,0,0.8460963000543416,2.8465912002138793,increament,0.84,17,oddball,j,140,,,,,,,,m,22,215,fr,r,0,raw,2022-05-30_10h27.45.466,oddball,2022.1.2,59.83502298369197,
5,,,,,0,0,0,1,1,0,1,0,19,0,19,0,,,,,,,,,,,,,,,,,237.68681650003418,None,238.28707260033116,238.8871750999242,238.8708108998835,240.8714070999995,None,1,0.6133963000029325,2.6139797996729612,increament,0.6,15,standard,None,100,,,,,,,,m,22,215,fr,r,0,raw,2022-05-30_10h27.45.466,oddball,2022.1.2,59.83502298369197,
5,,,,,0,0,0,1,1,0,1,0,20,0,20,0,,,,,,,,,,,,,,,,,240.88821949996054,None,241.45462189987302,242.05525649990886,242.03874240024015,244.0390483001247,None,1,0.6138603002764285,2.614156600087881,increament,0.6,15,standard,None,100,,,,,,,,m,22,215,fr,r,0,raw,2022-05-30_10h27.45.466,oddball,2022.1.2,59.83502298369197,
5,,,,,0,0,0,1,1,0,1,0,21,0,21,0,,,,,,,,,,,,,,,,,244.0559968999587,None,244.92322390014306,245.52319859992713,245.5065668001771,247.50718409987167,None,1,0.6104641002602875,2.6111054001376033,increament,0.6,15,standard,None,100,,,,,,,,m,22,215,fr,r,0,raw,2022-05-30_10h27.45.466,oddball,2022.1.2,59.83502298369197,
5,,,,,0,0,0,1,1,0,1,0,22,0,22,0,,,,,,,,,,,,,,,,,247.5240676999092,None,248.2240661000833,248.8244154001586,248.80774469999596,250.80827830033377,None,1,0.6125097000040114,2.6129859001375735,increament,0.6,15,standard,None,100,,,,,,,,m,22,215,fr,r,0,raw,2022-05-30_10h27.45.466,oddball,2022.1.2,59.83502298369197,
5,,,,,0,0,0,1,1,0,1,0,23,0,23,0,,,,,,,,,,,,,,,,,250.82483990024775,None,251.69209660030901,252.2925440003164,252.27592540020123,254.2763335001655,None,1,0.6079787998460233,2.6083496999926865,increament,0.6,15,standard,None,100,,,,,,,,m,22,215,fr,r,0,raw,2022-05-30_10h27.45.466,oddball,2022.1.2,59.83502298369197,
5,,,,,0,0,0,1,1,0,1,0,24,0,24,0,,,,,,,,,,,,,,,,,254.29345440026373,None,254.84298000019044,255.4436769001186,255.42690300010145,257.4275922998786,None,1,0.6137616001069546,2.61443189997226,increament,0.6,15,standard,None,100,,,,,,,,m,22,215,fr,r,0,raw,2022-05-30_10h27.45.466,oddball,2022.1.2,59.83502298369197,
5,,,,,0,0,0,1,1,0,1,0,25,0,25,0,,,,,,,,,,,,,,,,,257.44441589992493,None,258.09471260011196,258.69469689996913,258.6782068000175,260.6786724999547,None,1,0.6124125998467207,2.6128515996970236,increament,0.6,15,standard,None,100,,,,,,,,m,22,215,fr,r,0,raw,2022-05-30_10h27.45.466,oddball,2022.1.2,59.83502298369197,
5,,,,,0,0,0,1,1,0,1,0,26,0,26,0,,,,,,,,,,,,,,,,,260.6952605000697,None,261.51276409998536,262.4794116001576,262.4460451998748,264.4468843000941,j,1,0.9592365003190935,2.960067499894649,increament,0.96,18,oddball,j,160,0.3602466001175344,,,,,,,m,22,215,fr,r,0,raw,2022-05-30_10h27.45.466,oddball,2022.1.2,59.83502298369197,
5,,,,,0,0,0,1,1,0,1,0,27,0,27,0,,,,,,,,,,,,,,,,,264.46340769995004,None,265.38036900013685,265.9809111999348,265.9642632002942,267.96498179994524,None,1,0.6147051998414099,2.6153909997083247,increament,0.6,15,standard,None,100,,,,,,,,m,22,215,fr,r,0,raw,2022-05-30_10h27.45.466,oddball,2022.1.2,59.83502298369197,
5,,,,,0,0,0,1,1,0,1,0,28,0,28,0,,,,,,,,,,,,,,,,,267.9817919000052,None,268.66536330012605,269.2652668999508,269.248764900025,271.249735200312,None,1,0.6117512001655996,2.61278420034796,increament,0.6,15,standard,None,100,,,,,,,,m,22,215,fr,r,0,raw,2022-05-30_10h27.45.466,oddball,2022.1.2,59.83502298369197,
5,,,,,0,0,0,1,1,0,1,0,29,0,29,0,,,,,,,,,,,,,,,,,271.26660310011357,None,271.88340130029246,272.4834561999887,272.46691300021484,274.46747860033065,j,0,0.6118382001295686,2.6123536000959575,increament,0.6,15,standard,None,100,1.5549042001366615,,,,,,,m,22,215,fr,r,0,raw,2022-05-30_10h27.45.466,oddball,2022.1.2,59.83502298369197,
5,,,,,0,0,0,1,2,0,2,0,0,0,0,0,,,,,,,,,,,,,,,276.5227530999109,None,277.8350639999844,None,278.50247830012813,279.10248210001737,279.0859078001231,281.0867988001555,None,1,0.6124253002926707,2.61336430022493,decreament,0.6,11,standard,None,100,,274.48424270004034,None,,,,,m,22,215,fr,r,0,raw,2022-05-30_10h27.45.466,oddball,2022.1.2,59.83502298369197,
5,,,,,0,0,0,1,2,0,2,0,1,0,1,0,,,,,,,,,,,,,,,,,281.10341509990394,None,281.65343140019104,282.2537011001259,282.23742270004004,284.2378306998871,None,1,0.6132571999914944,2.613646600395441,decreament,0.6,11,standard,None,100,,,,,,,,m,22,215,fr,r,0,raw,2022-05-30_10h27.45.466,oddball,2022.1.2,59.83502298369197,
5,,,,,0,0,0,1,2,0,2,0,2,0,2,0,,,,,,,,,,,,,,,,,284.25479000015184,None,284.9879763000645,285.58875899994746,285.57193739991635,287.5725952000357,None,1,0.6132766003720462,2.613933500368148,decreament,0.6,11,standard,None,100,,,,,,,,m,22,215,fr,r,0,raw,2022-05-30_10h27.45.466,oddball,2022.1.2,59.83502298369197,
5,,,,,0,0,0,1,2,0,2,0,3,0,3,0,,,,,,,,,,,,,,,,,287.58941650018096,None,288.2562124002725,288.8562187002972,288.83959389990196,290.84008170012385,None,1,0.6114401007071137,2.611912900581956,decreament,0.6,11,standard,None,100,,,,,,,,m,22,215,fr,r,0,raw,2022-05-30_10h27.45.466,oddball,2022.1.2,59.83502298369197,
5,,,,,0,0,0,1,2,0,2,0,4,0,4,0,,,,,,,,,,,,,,,,,290.856969400309,None,291.3740079002455,291.97398360027,291.9572312999517,293.9584757001139,None,1,0.6122105000540614,2.613505099900067,decreament,0.6,11,standard,None,100,,,,,,,,m,22,215,fr,r,0,raw,2022-05-30_10h27.45.466,oddball,2022.1.2,59.83502298369197,
5,,,,,0,0,0,1,2,0,2,0,5,0,5,0,,,,,,,,,,,,,,,,,293.9748956002295,None,294.5916518000886,295.19209620030597,295.1759174000472,297.17623470025137,None,1,0.6133786998689175,2.613625000230968,decreament,0.6,11,standard,None,100,,,,,,,,m,22,215,fr,r,0,raw,2022-05-30_10h27.45.466,oddball,2022.1.2,59.83502298369197,
5,,,,,0,0,0,1,2,0,2,0,6,0,6,0,,,,,,,,,,,,,,,,,297.19254200020805,None,297.82637490006164,298.4267410002649,298.40990040032193,300.4106673998758,None,1,0.6134739997796714,2.614414499606937,decreament,0.6,11,standard,None,100,,,,,,,,m,22,215,fr,r,0,raw,2022-05-30_10h27.45.466,oddball,2022.1.2,59.83502298369197,
5,,,,,0,0,0,1,2,0,2,0,7,0,7,0,,,,,,,,,,,,,,,,,300.4273143000901,None,301.19433650001884,301.7940611001104,301.7774050999433,303.7783174999058,None,1,0.6103205000981688,2.611244899686426,decreament,0.6,11,standard,None,100,,,,,,,,m,22,215,fr,r,0,raw,2022-05-30_10h27.45.466,oddball,2022.1.2,59.83502298369197,
5,,,,,0,0,0,1,2,0,2,0,8,0,8,0,,,,,,,,,,,,,,,,,303.79494230030105,None,304.44568799994886,305.0458872001618,305.02908620005473,307.0300755999051,None,1,0.6098378002643585,2.610841799993068,decreament,0.6,11,standard,None,100,,,,,,,,m,22,215,fr,r,0,raw,2022-05-30_10h27.45.466,oddball,2022.1.2,59.83502298369197,
5,,,,,0,0,0,1,2,0,2,0,9,0,9,0,,,,,,,,,,,,,,,,,307.04662110004574,None,307.7133122999221,308.31350640021265,308.2967896000482,310.297893000301,None,1,0.6121742995455861,2.61333329975605,decreament,0.6,11,standard,None,100,,,,,,,,m,22,215,fr,r,0,raw,2022-05-30_10h27.45.466,oddball,2022.1.2,59.83502298369197,
5,,,,,0,0,0,1,2,0,2,0,10,0,10,0,,,,,,,,,,,,,,,,,310.31395340012386,None,310.8977641002275,311.4982027001679,311.48159930016845,313.4823463000357,None,1,0.6140633993782103,2.61480509955436,decreament,0.6,11,standard,None,100,,,,,,,,m,22,215,fr,r,0,raw,2022-05-30_10h27.45.466,oddball,2022.1.2,59.83502298369197,
5,,,,,0,0,0,1,2,0,2,0,11,0,11,0,,,,,,,,,,,,,,,,,313.500250000041,None,314.2657147003338,314.86612590029836,314.84955279994756,316.85017930017784,None,1,0.6135097001679242,2.614164700265974,decreament,0.6,11,standard,None,100,,,,,,,,m,22,215,fr,r,0,raw,2022-05-30_10h27.45.466,oddball,2022.1.2,59.83502298369197,
5,,,,,0,0,0,1,2,0,2,0,12,0,12,0,,,,,,,,,,,,,,,,,316.86681269994006,None,317.5841304999776,318.1839662003331,318.16716449987143,320.1682835998945,None,1,0.6101381997577846,2.611341299954802,decreament,0.6,11,standard,None,100,,,,,,,,m,22,215,fr,r,0,raw,2022-05-30_10h27.45.466,oddball,2022.1.2,59.83502298369197,
5,,,,,0,0,0,1,2,0,2,0,13,0,13,0,,,,,,,,,,,,,,,,,320.1854885001667,None,320.75177629990503,321.35211500013247,321.3353407001123,323.33572049997747,None,1,0.6130911000072956,2.6134123001247644,decreament,0.6,11,standard,None,100,,,,,,,,m,22,215,fr,r,0,raw,2022-05-30_10h27.45.466,oddball,2022.1.2,59.83502298369197,
5,,,,,0,0,0,1,2,0,2,0,14,0,14,0,,,,,,,,,,,,,,,,,323.35263430001214,None,323.9195237001404,324.28634760016575,324.2531539001502,326.2537100003101,j,1,0.3638578997924924,2.364357499871403,decreament,0.36,13,oddball,j,60,0.7371530001983047,,,,,,,m,22,215,fr,r,0,raw,2022-05-30_10h27.45.466,oddball,2022.1.2,59.83502298369197,
5,,,,,0,0,0,1,2,0,2,0,15,0,15,0,,,,,,,,,,,,,,,,,326.2703093001619,None,326.8706713002175,327.47086580004543,327.4542296002619,329.45486470032483,None,1,0.6091879000887275,2.6098071997985244,decreament,0.6,11,standard,None,100,,,,,,,,m,22,215,fr,r,0,raw,2022-05-30_10h27.45.466,oddball,2022.1.2,59.83502298369197,
5,,,,,0,0,0,1,2,0,2,0,16,0,16,0,,,,,,,,,,,,,,,,,329.47153449989855,None,330.1218257001601,330.72213920019567,330.7054057000205,332.70590500021353,None,1,0.6115472996607423,2.612021700013429,decreament,0.6,11,standard,None,100,,,,,,,,m,22,215,fr,r,0,raw,2022-05-30_10h27.45.466,oddball,2022.1.2,59.83502298369197,
5,,,,,0,0,0,1,2,0,2,0,17,0,17,0,,,,,,,,,,,,,,,,,332.72265770006925,None,333.3397041000426,333.9400869999081,333.92340289987624,335.9240318001248,None,1,0.6129297004081309,2.6135866004042327,decreament,0.6,11,standard,None,100,,,,,,,,m,22,215,fr,r,0,raw,2022-05-30_10h27.45.466,oddball,2022.1.2,59.83502298369197,
5,,,,,0,0,0,1,2,0,2,0,18,0,18,0,,,,,,,,,,,,,,,,,335.9406860000454,None,336.49104160023853,337.0910443998873,337.0747001999989,339.0752995000221,None,1,0.6108281002379954,2.611465800087899,decreament,0.6,11,standard,None,100,,,,,,,,m,22,215,fr,r,0,raw,2022-05-30_10h27.45.466,oddball,2022.1.2,59.83502298369197,
5,,,,,0,0,0,1,2,0,2,0,19,0,19,0,,,,,,,,,,,,,,,,,339.0920736002736,None,339.6587169999257,340.1422013002448,340.1089892000891,342.10958430031314,None,0,0.4802391999401152,2.4807696999050677,decreament,0.48,14,oddball,j,80,,,,,,,,m,22,215,fr,r,0,raw,2022-05-30_10h27.45.466,oddball,2022.1.2,59.83502298369197,
5,,,,,0,0,0,1,2,0,2,0,20,0,20,0,,,,,,,,,,,,,,,,,342.1263057002798,None,342.7604010999203,343.3602299001068,343.3436067001894,345.3444091998972,None,1,0.6095284996554255,2.610360199585557,decreament,0.6,11,standard,None,100,,,,,,,,m,22,215,fr,r,0,raw,2022-05-30_10h27.45.466,oddball,2022.1.2,59.83502298369197,
5,,,,,0,0,0,1,2,0,2,0,21,0,21,0,,,,,,,,,,,,,,,,,345.36085750022903,None,345.9611341999844,346.56148730032146,346.54456710023805,348.5458259000443,None,1,0.6119277002289891,2.6132762003690004,decreament,0.6,11,standard,None,100,,,,,,,,m,22,215,fr,r,0,raw,2022-05-30_10h27.45.466,oddball,2022.1.2,59.83502298369197,
5,,,,,0,0,0,1,2,0,2,0,22,0,22,0,,,,,,,,,,,,,,,,,348.56223340006545,None,349.22914680000395,349.829274199903,349.81253590015694,351.8135456000455,None,1,0.6133642001077533,2.6144431000575423,decreament,0.6,11,standard,None,100,,,,,,,,m,22,215,fr,r,0,raw,2022-05-30_10h27.45.466,oddball,2022.1.2,59.83502298369197,
5,,,,,0,0,0,1,2,0,2,0,23,0,23,0,,,,,,,,,,,,,,,,,351.83004390029237,None,352.41378939989954,353.0136425001547,352.9971103002317,354.99789769994095,None,1,0.6088862000033259,2.609656300395727,decreament,0.6,11,standard,None,100,,,,,,,,m,22,215,fr,r,0,raw,2022-05-30_10h27.45.466,oddball,2022.1.2,59.83502298369197,
5,,,,,0,0,0,1,2,0,2,0,24,0,24,0,,,,,,,,,,,,,,,,,355.01462149992585,None,355.69844159996137,355.94823340000585,355.91479770001024,357.91553310025483,j,1,0.24262499995529652,2.2433221000246704,decreament,0.24,12,oddball,j,40,0.6518724001944065,,,,,,,m,22,215,fr,r,0,raw,2022-05-30_10h27.45.466,oddball,2022.1.2,59.83502298369197,
5,,,,,0,0,0,1,2,0,2,0,25,0,25,0,,,,,,,,,,,,,,,,,357.93231010017917,None,358.5325024998747,359.13261860003695,359.1160435001366,361.11695710010827,None,1,0.6131961001083255,2.6141824000515044,decreament,0.6,11,standard,None,100,,,,,,,,m,22,215,fr,r,0,raw,2022-05-30_10h27.45.466,oddball,2022.1.2,59.83502298369197,
5,,,,,0,0,0,1,2,0,2,0,26,0,26,0,,,,,,,,,,,,,,,,,361.13391610002145,None,361.76731650019065,362.3670411002822,362.3503789999522,364.3516329000704,None,1,0.6114105004817247,2.6127138007432222,decreament,0.6,11,standard,None,100,,,,,,,,m,22,215,fr,r,0,raw,2022-05-30_10h27.45.466,oddball,2022.1.2,59.83502298369197,
5,,,,,0,0,0,1,2,0,2,0,27,0,27,0,,,,,,,,,,,,,,,,,364.3682003002614,None,364.9015418998897,365.50178269995376,365.4851655000821,367.4858695999719,None,1,0.6128004998899996,2.6134922998026013,decreament,0.6,11,standard,None,100,,,,,,,,m,22,215,fr,r,0,raw,2022-05-30_10h27.45.466,oddball,2022.1.2,59.83502298369197,
5,,,,,0,0,0,1,2,0,2,0,28,0,28,0,,,,,,,,,,,,,,,,,367.50286519993097,None,368.1363252000883,368.73683839989826,368.7200273000635,370.72056609997526,None,1,0.6143077998422086,2.6147682000882924,decreament,0.6,11,standard,None,100,,,,,,,,m,22,215,fr,r,0,raw,2022-05-30_10h27.45.466,oddball,2022.1.2,59.83502298369197,
5,,,,,0,0,0,1,2,0,2,0,29,0,29,0,,,,,,,,,,,,,,,,,370.73706219997257,None,371.45375930005684,372.0544881001115,372.0377768999897,374.03866699989885,None,1,0.6149575999006629,2.616085700225085,decreament,0.6,11,standard,None,100,,,,,,,,m,22,215,fr,r,0,raw,2022-05-30_10h27.45.466,oddball,2022.1.2,59.83502298369197,
5,,,,,0,0,0,1,3,0,3,0,0,0,0,0,,,,,,,,,,,,,,,377.6443981002085,None,380.02417610026896,None,380.69134150026366,381.2913533002138,381.274623000063,383.2755662002601,None,1,0.6122821997851133,2.6133019998669624,increament,0.6,15,standard,None,100,,374.0553036001511,None,,,,,m,22,215,fr,r,0,raw,2022-05-30_10h27.45.466,oddball,2022.1.2,59.83502298369197,
5,,,,,0,0,0,1,3,0,3,0,1,0,1,0,,,,,,,,,,,,,,,,,383.29461900005117,None,383.92558610020205,384.52570360014215,384.50902120023966,386.5102325002663,None,1,0.6126805003732443,2.613958700094372,increament,0.6,15,standard,None,100,,,,,,,,m,22,215,fr,r,0,raw,2022-05-30_10h27.45.466,oddball,2022.1.2,59.83502298369197,
5,,,,,0,0,0,1,3,0,3,0,2,0,2,0,,,,,,,,,,,,,,,,,386.52663040021434,None,387.27693560021,387.87681020004675,387.8602084000595,389.86103540007025,None,1,0.6098129004240036,2.6106686000712216,increament,0.6,15,standard,None,100,,,,,,,,m,22,215,fr,r,0,raw,2022-05-30_10h27.45.466,oddball,2022.1.2,59.83502298369197,
5,,,,,0,0,0,1,3,0,3,0,3,0,3,0,,,,,,,,,,,,,,,,,389.8777765003033,None,390.661521400325,391.26191870030016,391.24498469987884,393.24552780017257,None,1,0.6134027997031808,2.6139291995204985,increament,0.6,15,standard,None,100,,,,,,,,m,22,215,fr,r,0,raw,2022-05-30_10h27.45.466,oddball,2022.1.2,59.83502298369197,
5,,,,,0,0,0,1,3,0,3,0,4,0,4,0,,,,,,,,,,,,,,,,,393.2625986998901,None,393.8459077998996,394.445984300226,394.4295763000846,396.43004229990765,None,1,0.6134088998660445,2.6138793998397887,increament,0.6,15,standard,None,100,,,,,,,,m,22,215,fr,r,0,raw,2022-05-30_10h27.45.466,oddball,2022.1.2,59.83502298369197,
5,,,,,0,0,0,1,3,0,3,0,5,0,5,0,,,,,,,,,,,,,,,,,396.44691190030426,None,397.21397850010544,397.8142054001801,397.7974409000017,399.7981493002735,None,1,0.6133504002355039,2.614001300185919,increament,0.6,15,standard,None,100,,,,,,,,m,22,215,fr,r,0,raw,2022-05-30_10h27.45.466,oddball,2022.1.2,59.83502298369197,
5,,,,,0,0,0,1,3,0,3,0,6,0,6,0,,,,,,,,,,,,,,,,,399.8147990000434,None,400.49856700003147,401.46542270015925,401.43245940003544,403.4329758002423,None,0,0.9632692006416619,2.9639623006805778,increament,0.96,18,oddball,j,160,,,,,,,,m,22,215,fr,r,0,raw,2022-05-30_10h27.45.466,oddball,2022.1.2,59.83502298369197,
5,,,,,0,0,0,1,3,0,3,0,7,0,7,0,,,,,,,,,,,,,,,,,403.44959319988266,None,404.2830396001227,404.8832514001988,404.8669211999513,406.86758000031114,None,1,0.6145470002666116,2.615237500052899,increament,0.6,15,standard,None,100,,,,,,,,m,22,215,fr,r,0,raw,2022-05-30_10h27.45.466,oddball,2022.1.2,59.83502298369197,
5,,,,,0,0,0,1,3,0,3,0,8,0,8,0,,,,,,,,,,,,,,,,,406.8844576999545,None,407.6180970999412,408.21805560030043,408.2019068002701,410.20199549989775,None,1,0.6124450000934303,2.612497099675238,increament,0.6,15,standard,None,100,,,,,,,,m,22,215,fr,r,0,raw,2022-05-30_10h27.45.466,oddball,2022.1.2,59.83502298369197,
5,,,,,0,0,0,1,3,0,3,0,9,0,9,0,,,,,,,,,,,,,,,,,410.2186854002066,None,410.8692848999053,411.46944590006024,411.452554800082,413.45351530006155,None,1,0.6125221997499466,2.613508800044656,increament,0.6,15,standard,None,100,,,,,,,,m,22,215,fr,r,0,raw,2022-05-30_10h27.45.466,oddball,2022.1.2,59.83502298369197,
5,,,,,0,0,0,1,3,0,3,0,10,0,10,0,,,,,,,,,,,,,,,,,413.4701692000963,None,414.08692890033126,414.68706570006907,414.67054839991033,416.67164719989523,None,1,0.6128245000727475,2.6140105999074876,increament,0.6,15,standard,None,100,,,,,,,,m,22,215,fr,r,0,raw,2022-05-30_10h27.45.466,oddball,2022.1.2,59.83502298369197,
5,,,,,0,0,0,1,3,0,3,0,11,0,11,0,,,,,,,,,,,,,,,,,416.68819930031896,None,417.53831489989534,418.13890890032053,418.1223634001799,420.12253950024024,None,1,0.6127367001026869,2.6128304000012577,increament,0.6,15,standard,None,100,,,,,,,,m,22,215,fr,r,0,raw,2022-05-30_10h27.45.466,oddball,2022.1.2,59.83502298369197,
5,,,,,0,0,0,1,3,0,3,0,12,0,12,0,,,,,,,,,,,,,,,,,420.13907560007647,None,420.7895177002065,421.3896743999794,421.372956499923,423.3739292002283,None,1,0.6124636004678905,2.613519500475377,increament,0.6,15,standard,None,100,,,,,,,,m,22,215,fr,r,0,raw,2022-05-30_10h27.45.466,oddball,2022.1.2,59.83502298369197,
5,,,,,0,0,0,1,3,0,3,0,13,0,13,0,,,,,,,,,,,,,,,,,423.39151050010696,None,423.9907415001653,424.841232100036,424.8078453000635,426.80851450003684,j,1,0.8464025999419391,2.8470503999851644,increament,0.84,17,oddball,j,140,0.7419509002938867,,,,,,,m,22,215,fr,r,0,raw,2022-05-30_10h27.45.466,oddball,2022.1.2,59.83502298369197,
5,,,,,0,0,0,1,3,0,3,0,14,0,14,0,,,,,,,,,,,,,,,,,426.8252361002378,None,427.5586876999587,428.15909360023215,428.1429443000816,430.1431570001878,None,1,0.6132685001939535,2.6133902999572456,increament,0.6,15,standard,None,100,,,,,,,,m,22,215,fr,r,0,raw,2022-05-30_10h27.45.466,oddball,2022.1.2,59.83502298369197,
5,,,,,0,0,0,1,3,0,3,0,15,0,15,0,,,,,,,,,,,,,,,,,430.1595789003186,None,430.7099271998741,431.31015350017697,431.2935999999754,433.29439820023254,None,1,0.6130335000343621,2.6138524003326893,increament,0.6,15,standard,None,100,,,,,,,,m,22,215,fr,r,0,raw,2022-05-30_10h27.45.466,oddball,2022.1.2,59.83502298369197,
5,,,,,0,0,0,1,3,0,3,0,16,0,16,0,,,,,,,,,,,,,,,,,433.31126730004326,None,434.0446608001366,434.64475149987265,434.62834120029584,436.6290869000368,None,1,0.6123718004673719,2.613106300123036,increament,0.6,15,standard,None,100,,,,,,,,m,22,215,fr,r,0,raw,2022-05-30_10h27.45.466,oddball,2022.1.2,59.83502298369197,
5,,,,,0,0,0,1,3,0,3,0,17,0,17,0,,,,,,,,,,,,,,,,,436.6457458999939,None,437.2961633000523,437.89575830008835,437.8793754000217,439.88001090008765,None,1,0.6094952998682857,2.61017860006541,increament,0.6,15,standard,None,100,,,,,,,,m,22,215,fr,r,0,raw,2022-05-30_10h27.45.466,oddball,2022.1.2,59.83502298369197,
5,,,,,0,0,0,1,3,0,3,0,18,0,18,0,,,,,,,,,,,,,,,,,439.89694319991395,None,440.66340600000694,441.2640070999041,441.24758249986917,443.24814689997584,None,1,0.6155667998827994,2.616086400114,increament,0.6,15,standard,None,100,,,,,,,,m,22,215,fr,r,0,raw,2022-05-30_10h27.45.466,oddball,2022.1.2,59.83502298369197,
5,,,,,0,0,0,1,3,0,3,0,19,0,19,0,,,,,,,,,,,,,,,,,443.26459680031985,None,443.84817290026695,444.4483528002165,444.43169560004026,446.4325063000433,None,1,0.6122192996554077,2.6130222999490798,increament,0.6,15,standard,None,100,,,,,,,,m,22,215,fr,r,0,raw,2022-05-30_10h27.45.466,oddball,2022.1.2,59.83502298369197,
5,,,,,0,0,0,1,3,0,3,0,20,0,20,0,,,,,,,,,,,,,,,,,446.44926090026274,None,447.04985589999706,447.6498523000628,447.6334462002851,449.633845299948,None,1,0.6102536995895207,2.610633499454707,increament,0.6,15,standard,None,100,,,,,,,,m,22,215,fr,r,0,raw,2022-05-30_10h27.45.466,oddball,2022.1.2,59.83502298369197,
5,,,,,0,0,0,1,3,0,3,0,21,0,21,0,,,,,,,,,,,,,,,,,449.65087330015376,None,450.25054300017655,450.8507607001811,450.83467369992286,452.83502880018204,None,1,0.6134668998420238,2.6137463999912143,increament,0.6,15,standard,None,100,,,,,,,,m,22,215,fr,r,0,raw,2022-05-30_10h27.45.466,oddball,2022.1.2,59.83502298369197,
5,,,,,0,0,0,1,3,0,3,0,22,0,22,0,,,,,,,,,,,,,,,,,452.8517812001519,None,453.53531489986926,454.13547020033,454.11904089991003,456.11941729998216,None,1,0.6126346997916698,2.612997000105679,increament,0.6,15,standard,None,100,,,,,,,,m,22,215,fr,r,0,raw,2022-05-30_10h27.45.466,oddball,2022.1.2,59.83502298369197,
5,,,,,0,0,0,1,3,0,3,0,23,0,23,0,,,,,,,,,,,,,,,,,456.1364386002533,None,456.80342449992895,457.4035801999271,457.38663499988616,459.3874880000949,None,1,0.6092401999048889,2.610072599723935,increament,0.6,15,standard,None,100,,,,,,,,m,22,215,fr,r,0,raw,2022-05-30_10h27.45.466,oddball,2022.1.2,59.83502298369197,
5,,,,,0,0,0,1,3,0,3,0,24,0,24,0,,,,,,,,,,,,,,,,,459.4042405001819,None,460.0209054001607,460.6212431001477,460.60483349999413,462.6052458002232,None,1,0.612794800195843,2.6131780999712646,increament,0.6,15,standard,None,100,,,,,,,,m,22,215,fr,r,0,raw,2022-05-30_10h27.45.466,oddball,2022.1.2,59.83502298369197,
5,,,,,0,0,0,1,3,0,3,0,25,0,25,0,,,,,,,,,,,,,,,,,462.62206190032884,None,463.1724050999619,463.77218340011314,463.755630900152,465.7565335999243,None,1,0.6132374000735581,2.614199500065297,increament,0.6,15,standard,None,100,,,,,,,,m,22,215,fr,r,0,raw,2022-05-30_10h27.45.466,oddball,2022.1.2,59.83502298369197,
5,,,,,0,0,0,1,3,0,3,0,26,0,26,0,,,,,,,,,,,,,,,,,465.7733136001043,None,466.3234811001457,466.92342550028116,466.90693549998105,468.9076920999214,j,0,0.6116534005850554,2.612445200327784,increament,0.6,15,standard,None,100,1.5316814999096096,,,,,,,m,22,215,fr,r,0,raw,2022-05-30_10h27.45.466,oddball,2022.1.2,59.83502298369197,
5,,,,,0,0,0,1,3,0,3,0,27,0,27,0,,,,,,,,,,,,,,,,,468.92440860019997,None,469.591315000318,470.3250341000967,470.29200540017337,472.29219680000097,None,0,0.7307975003495812,2.730934400111437,increament,0.72,16,oddball,j,120,,,,,,,,m,22,215,fr,r,0,raw,2022-05-30_10h27.45.466,oddball,2022.1.2,59.83502298369197,
5,,,,,0,0,0,1,3,0,3,0,28,0,28,0,,,,,,,,,,,,,,,,,472.30914309993386,None,472.94255769997835,473.54272990021855,473.52641090005636,475.527079900261,None,1,0.6095299003645778,2.6102174003608525,increament,0.6,15,standard,None,100,,,,,,,,m,22,215,fr,r,0,raw,2022-05-30_10h27.45.466,oddball,2022.1.2,59.83502298369197,
5,,,,,0,0,0,1,3,0,3,0,29,0,29,0,,,,,,,,,,,,,,,,,475.5447623003274,None,476.1602590000257,476.7607876001857,476.7441520001739,478.7445280998945,None,1,0.6144325002096593,2.614739100448787,increament,0.6,15,standard,None,100,,,,,,,,m,22,215,fr,r,0,raw,2022-05-30_10h27.45.466,oddball,2022.1.2,59.83502298369197,
5,,,,,0,0,0,1,4,0,4,0,0,0,0,0,,,,,,,,,,,,,,,485.1864662999287,None,487.0978989000432,None,487.8480472001247,488.4484206000343,488.43176229996607,490.43231320008636,None,1,0.6131235002540052,2.6136600002646446,decreament,0.6,11,standard,None,100,,478.76179500017315,None,,,,,m,22,215,fr,r,0,raw,2022-05-30_10h27.45.466,oddball,2022.1.2,59.83502298369197,
5,,,,,0,0,0,1,4,0,4,0,1,0,1,0,,,,,,,,,,,,,,,,,490.4490857999772,None,490.9999792999588,491.5996282999404,491.5829598000273,493.5836180001497,None,1,0.6096593993715942,2.6103287995792925,decreament,0.6,11,standard,None,100,,,,,,,,m,22,215,fr,r,0,raw,2022-05-30_10h27.45.466,oddball,2022.1.2,59.83502298369197,
5,,,,,0,0,0,1,4,0,4,0,2,0,2,0,,,,,,,,,,,,,,,,,493.6004270003177,None,494.21787240030244,494.8173341001384,494.8006881000474,496.80189470015466,None,1,0.6113499002531171,2.612624500412494,decreament,0.6,11,standard,None,100,,,,,,,,m,22,215,fr,r,0,raw,2022-05-30_10h27.45.466,oddball,2022.1.2,59.83502298369197,
5,,,,,0,0,0,1,4,0,4,0,3,0,3,0,,,,,,,,,,,,,,,,,496.8190387999639,None,497.41896909987554,498.0188355999999,498.00214370014146,500.0032643000595,None,1,0.6096780998632312,2.610873299650848,decreament,0.6,11,standard,None,100,,,,,,,,m,22,215,fr,r,0,raw,2022-05-30_10h27.45.466,oddball,2022.1.2,59.83502298369197,
5,,,,,0,0,0,1,4,0,4,0,4,0,4,0,,,,,,,,,,,,,,,,,500.0195939000696,None,500.76980620017275,501.37015350023285,501.35391460033134,503.35414159996435,None,1,0.6124944002367556,2.61266230000183,decreament,0.6,11,standard,None,100,,,,,,,,m,22,215,fr,r,0,raw,2022-05-30_10h27.45.466,oddball,2022.1.2,59.83502298369197,
5,,,,,0,0,0,1,4,0,4,0,5,0,5,0,,,,,,,,,,,,,,,,,503.37085100030527,None,504.02107860008255,504.5043557998724,504.487748300191,506.4886227999814,None,0,0.49546670028939843,2.496391899883747,decreament,0.48,14,oddball,j,80,,,,,,,,m,22,215,fr,r,0,raw,2022-05-30_10h27.45.466,oddball,2022.1.2,59.83502298369197,
5,,,,,0,0,0,1,4,0,4,0,6,0,6,0,,,,,,,,,,,,,,,,,506.5053073000163,None,507.3221995001659,507.92248700000346,507.90598320029676,509.9067162000574,None,1,0.6125081004574895,2.613309200387448,decreament,0.6,11,standard,None,100,,,,,,,,m,22,215,fr,r,0,raw,2022-05-30_10h27.45.466,oddball,2022.1.2,59.83502298369197,
5,,,,,0,0,0,1,4,0,4,0,7,0,7,0,,,,,,,,,,,,,,,,,509.9231274998747,None,510.6072730002925,511.2071511000395,511.19043770013377,513.1912251999602,None,1,0.6092201001010835,2.610055800061673,decreament,0.6,11,standard,None,100,,,,,,,,m,22,215,fr,r,0,raw,2022-05-30_10h27.45.466,oddball,2022.1.2,59.83502298369197,
5,,,,,0,0,0,1,4,0,4,0,8,0,8,0,,,,,,,,,,,,,,,,,513.2078497000039,None,513.7583328001201,514.3585153003223,514.3416113001294,516.3423770000227,None,1,0.6128340000286698,2.6136249997653067,decreament,0.6,11,standard,None,100,,,,,,,,m,22,215,fr,r,0,raw,2022-05-30_10h27.45.466,oddball,2022.1.2,59.83502298369197,
5,,,,,0,0,0,1,4,0,4,0,9,0,9,0,,,,,,,,,,,,,,,,,516.3590477001853,None,516.9592311000451,517.5592889999971,517.5429048999213,519.54370940011,None,1,0.6122742001898587,2.6130733001045883,decreament,0.6,11,standard,None,100,,,,,,,,m,22,215,fr,r,0,raw,2022-05-30_10h27.45.466,oddball,2022.1.2,59.83502298369197,
5,,,,,0,0,0,1,4,0,4,0,10,0,10,0,,,,,,,,,,,,,,,,,519.56018400006,None,520.1938868002035,520.7945193001069,520.7776057999581,522.7779924999923,None,1,0.6119673005305231,2.612295100465417,decreament,0.6,11,standard,None,100,,,,,,,,m,22,215,fr,r,0,raw,2022-05-30_10h27.45.466,oddball,2022.1.2,59.83502298369197,
5,,,,,0,0,0,1,4,0,4,0,11,0,11,0,,,,,,,,,,,,,,,,,522.7950011002831,None,523.5121285999194,523.7618669001386,523.7287500002421,525.7291287002154,j,1,0.24592719972133636,2.2462272997945547,decreament,0.24,12,oddball,j,40,0.6925595002248883,,,,,,,m,22,215,fr,r,0,raw,2022-05-30_10h27.45.466,oddball,2022.1.2,59.83502298369197,
5,,,,,0,0,0,1,4,0,4,0,12,0,12,0,,,,,,,,,,,,,,,,,525.7459336998872,None,526.3129738001153,526.9131936002523,526.8965154001489,528.8971943999641,None,1,0.6104385000653565,2.6111117000691593,decreament,0.6,11,standard,None,100,,,,,,,,m,22,215,fr,r,0,raw,2022-05-30_10h27.45.466,oddball,2022.1.2,59.83502298369197,
5,,,,,0,0,0,1,4,0,4,0,13,0,13,0,,,,,,,,,,,,,,,,,528.9140153001063,None,529.6975854001939,530.297859299928,530.2807487002574,532.2817639000714,None,1,0.6104552997276187,2.611422199755907,decreament,0.6,11,standard,None,100,,,,,,,,m,22,215,fr,r,0,raw,2022-05-30_10h27.45.466,oddball,2022.1.2,59.83502298369197,
5,,,,,0,0,0,1,4,0,4,0,14,0,14,0,,,,,,,,,,,,,,,,,532.2982580000535,None,533.0155342998914,533.6154797002673,533.5987066999078,535.5996946003288,None,1,0.6090254001319408,2.6100932001136243,decreament,0.6,11,standard,None,100,,,,,,,,m,22,215,fr,r,0,raw,2022-05-30_10h27.45.466,oddball,2022.1.2,59.83502298369197,
5,,,,,0,0,0,1,4,0,4,0,15,0,15,0,,,,,,,,,,,,,,,,,535.6164977001026,None,536.2166329002939,536.8166157002561,536.7999939001165,538.8007256002165,None,1,0.6126432996243238,2.613327699713409,decreament,0.6,11,standard,None,100,,,,,,,,m,22,215,fr,r,0,raw,2022-05-30_10h27.45.466,oddball,2022.1.2,59.83502298369197,
5,,,,,0,0,0,1,4,0,4,0,16,0,16,0,,,,,,,,,,,,,,,,,538.817352199927,None,539.4178744000383,540.0176925002597,540.0011499999091,542.0020225001499,None,1,0.6127752000465989,2.6136970999650657,decreament,0.6,11,standard,None,100,,,,,,,,m,22,215,fr,r,0,raw,2022-05-30_10h27.45.466,oddball,2022.1.2,59.83502298369197,
5,,,,,0,0,0,1,4,0,4,0,17,0,17,0,,,,,,,,,,,,,,,,,542.0189423002303,None,542.6022518002428,543.2023034002632,543.1859488002956,545.1865089000203,None,1,0.6120186997577548,2.61259080003947,decreament,0.6,11,standard,None,100,,,,,,,,m,22,215,fr,r,0,raw,2022-05-30_10h27.45.466,oddball,2022.1.2,59.83502298369197,
5,,,,,0,0,0,1,4,0,4,0,18,0,18,0,,,,,,,,,,,,,,,,,545.2033068002202,None,545.9038754003122,546.2700857003219,546.2372309002094,548.237517000176,None,0,0.36196460016071796,2.362218400463462,decreament,0.36,13,oddball,j,60,,,,,,,,m,22,215,fr,r,0,raw,2022-05-30_10h27.45.466,oddball,2022.1.2,59.83502298369197,
5,,,,,0,0,0,1,4,0,4,0,19,0,19,0,,,,,,,,,,,,,,,,,548.2545274998993,None,548.7880128002726,549.3883324000053,549.371573400218,551.3723011002876,None,1,0.6124628996476531,2.613178499508649,decreament,0.6,11,standard,None,100,,,,,,,,m,22,215,fr,r,0,raw,2022-05-30_10h27.45.466,oddball,2022.1.2,59.83502298369197,
5,,,,,0,0,0,1,4,0,4,0,20,0,20,0,,,,,,,,,,,,,,,,,551.3889194000512,None,552.0397529001348,552.6394803998992,552.622423000168,554.6234552999958,None,1,0.6101217004470527,2.611186200287193,decreament,0.6,11,standard,None,100,,,,,,,,m,22,215,fr,r,0,raw,2022-05-30_10h27.45.466,oddball,2022.1.2,59.83502298369197,
5,,,,,0,0,0,1,4,0,4,0,21,0,21,0,,,,,,,,,,,,,,,,,554.6405948000029,None,555.1570828999393,555.757105300203,555.7407344998792,557.7414933000691,None,1,0.6117980005219579,2.612637400161475,decreament,0.6,11,standard,None,100,,,,,,,,m,22,215,fr,r,0,raw,2022-05-30_10h27.45.466,oddball,2022.1.2,59.83502298369197,
5,,,,,0,0,0,1,4,0,4,0,22,0,22,0,,,,,,,,,,,,,,,,,557.7580948001705,None,558.3250052998774,558.9249045001343,558.9083894998766,560.9091361002065,None,1,0.6128815999254584,2.613666799850762,decreament,0.6,11,standard,None,100,,,,,,,,m,22,215,fr,r,0,raw,2022-05-30_10h27.45.466,oddball,2022.1.2,59.83502298369197,
5,,,,,0,0,0,1,4,0,4,0,23,0,23,0,,,,,,,,,,,,,,,,,560.9258177001029,None,561.5760755999945,562.176794399973,562.1600979999639,564.160368300043,None,1,0.6129757999442518,2.6131731001660228,decreament,0.6,11,standard,None,100,,,,,,,,m,22,215,fr,r,0,raw,2022-05-30_10h27.45.466,oddball,2022.1.2,59.83502298369197,
5,,,,,0,0,0,1,4,0,4,0,24,0,24,0,,,,,,,,,,,,,,,,,564.1772372000851,None,564.8770381999202,565.477314800024,565.4606913998723,567.4615770000964,None,1,0.6136809000745416,2.61457940004766,decreament,0.6,11,standard,None,100,,,,,,,,m,22,215,fr,r,0,raw,2022-05-30_10h27.45.466,oddball,2022.1.2,59.83502298369197,
5,,,,,0,0,0,1,4,0,4,0,25,0,25,0,,,,,,,,,,,,,,,,,567.4785107001662,None,568.0120454998687,568.6120295999572,568.5958153000101,570.5962600000203,None,1,0.6100461003370583,2.6104511003941298,decreament,0.6,11,standard,None,100,,,,,,,,m,22,215,fr,r,0,raw,2022-05-30_10h27.45.466,oddball,2022.1.2,59.83502298369197,
5,,,,,0,0,0,1,4,0,4,0,26,0,26,0,,,,,,,,,,,,,,,,,570.6130186002702,None,571.3966846000403,571.9968512998894,571.9802139000967,573.9809381999075,None,1,0.6135795996524394,2.6142735998146236,decreament,0.6,11,standard,None,100,,,,,,,,m,22,215,fr,r,0,raw,2022-05-30_10h27.45.466,oddball,2022.1.2,59.83502298369197,
5,,,,,0,0,0,1,4,0,4,0,27,0,27,0,,,,,,,,,,,,,,,,,573.9977612001821,None,574.6980928000994,575.2978044003248,575.2812137999572,577.2820454998873,None,1,0.611062700394541,2.611897500231862,decreament,0.6,11,standard,None,100,,,,,,,,m,22,215,fr,r,0,raw,2022-05-30_10h27.45.466,oddball,2022.1.2,59.83502298369197,
5,,,,,0,0,0,1,4,0,4,0,28,0,28,0,,,,,,,,,,,,,,,,,577.2987200003117,None,578.0489481003024,578.6491922000423,578.6327909003012,580.6331259999424,None,1,0.6137997996993363,2.614031299483031,decreament,0.6,11,standard,None,100,,,,,,,,m,22,215,fr,r,0,raw,2022-05-30_10h27.45.466,oddball,2022.1.2,59.83502298369197,
5,,,,,0,0,0,1,4,0,4,0,29,0,29,0,,,,,,,,,,,,,,,,,580.6498406999744,None,581.4170269998722,582.0172454998828,582.000416399911,584.0013806000352,None,1,0.611090499907732,2.6120981997810304,decreament,0.6,11,standard,None,100,,,,,,,,m,22,215,fr,r,0,raw,2022-05-30_10h27.45.466,oddball,2022.1.2,59.83502298369197,
5,,,,,0,0,0,1,5,0,5,0,0,0,0,0,,,,,,,,,,,,,,,585.9365385002457,None,586.7854345999658,None,587.4359047999606,588.036285399925,588.0194533001631,590.0201592002995,None,1,0.6115246000699699,2.612239600159228,increament,0.6,15,standard,None,100,,584.0181439002044,None,,,,,m,22,215,fr,r,0,raw,2022-05-30_10h27.45.466,oddball,2022.1.2,59.83502298369197,
5,,,,,0,0,0,1,5,0,5,0,1,0,1,0,,,,,,,,,,,,,,,,,590.0371461003087,None,590.6705168001354,591.2706082998775,591.2543068001978,593.2546997000463,None,1,0.6124290996231139,2.612774799577892,increament,0.6,15,standard,None,100,,,,,,,,m,22,215,fr,r,0,raw,2022-05-30_10h27.45.466,oddball,2022.1.2,59.83502298369197,
5,,,,,0,0,0,1,5,0,5,0,2,0,2,0,,,,,,,,,,,,,,,,,593.2716930001043,None,594.0218062000349,594.6219518999569,594.6051256000064,596.6062277001329,None,1,0.613223799970001,2.614354799967259,increament,0.6,15,standard,None,100,,,,,,,,m,22,215,fr,r,0,raw,2022-05-30_10h27.45.466,oddball,2022.1.2,59.83502298369197,
5,,,,,0,0,0,1,5,0,5,0,3,0,3,0,,,,,,,,,,,,,,,,,596.6229261001572,None,597.1898968000896,597.7898392002098,597.7730759000406,599.7737894002348,None,1,0.6092109996825457,2.6099223997443914,increament,0.6,15,standard,None,100,,,,,,,,m,22,215,fr,r,0,raw,2022-05-30_10h27.45.466,oddball,2022.1.2,59.83502298369197,
5,,,,,0,0,0,1,5,0,5,0,4,0,4,0,,,,,,,,,,,,,,,,,599.7906798003241,None,600.3909648000263,600.991086000111,600.9746301001869,602.9758649999276,None,1,0.6127554001286626,2.61401249980554,increament,0.6,15,standard,None,100,,,,,,,,m,22,215,fr,r,0,raw,2022-05-30_10h27.45.466,oddball,2022.1.2,59.83502298369197,
5,,,,,0,0,0,1,5,0,5,0,5,0,5,0,,,,,,,,,,,,,,,,,602.9917001002468,None,603.6586203998886,604.2586358999833,604.2419819002971,606.242977200076,None,1,0.6131378998979926,2.614181499928236,increament,0.6,15,standard,None,100,,,,,,,,m,22,215,fr,r,0,raw,2022-05-30_10h27.45.466,oddball,2022.1.2,59.83502298369197,
5,,,,,0,0,0,1,5,0,5,0,6,0,6,0,,,,,,,,,,,,,,,,,606.2602905002423,None,606.8266259999946,607.4271010002121,607.410773599986,609.4111263998784,None,1,0.6138322004117072,2.61410290049389,increament,0.6,15,standard,None,100,,,,,,,,m,22,215,fr,r,0,raw,2022-05-30_10h27.45.466,oddball,2022.1.2,59.83502298369197,
5,,,,,0,0,0,1,5,0,5,0,7,0,7,0,,,,,,,,,,,,,,,,,609.4274289999157,None,610.0946547002532,610.6950644003227,610.678249000106,612.6786056999117,None,1,0.6123955002985895,2.6127544003538787,increament,0.6,15,standard,None,100,,,,,,,,m,22,215,fr,r,0,raw,2022-05-30_10h27.45.466,oddball,2022.1.2,59.83502298369197,
5,,,,,0,0,0,1,5,0,5,0,8,0,8,0,,,,,,,,,,,,,,,,,612.6952704000287,None,613.2628800002858,613.8629095000215,613.8460041000508,615.8466588999145,None,1,0.6105178003199399,2.611163700465113,increament,0.6,15,standard,None,100,,,,,,,,m,22,215,fr,r,0,raw,2022-05-30_10h27.45.466,oddball,2022.1.2,59.83502298369197,
5,,,,,0,0,0,1,5,0,5,0,9,0,9,0,,,,,,,,,,,,,,,,,615.8635033001192,None,616.4137673000805,617.0137820001692,616.9974158001132,618.9979312000796,None,1,0.6104472000151873,2.6109597999602556,increament,0.6,15,standard,None,100,,,,,,,,m,22,215,fr,r,0,raw,2022-05-30_10h27.45.466,oddball,2022.1.2,59.83502298369197,
5,,,,,0,0,0,1,5,0,5,0,10,0,10,0,,,,,,,,,,,,,,,,,619.0145318000577,None,619.5980544001795,620.4482527002692,620.4151171999983,622.4157000998966,None,0,0.8461660002358258,2.8467462002299726,increament,0.84,17,oddball,j,140,,,,,,,,m,22,215,fr,r,0,raw,2022-05-30_10h27.45.466,oddball,2022.1.2,59.83502298369197,
5,,,,,0,0,0,1,5,0,5,0,11,0,11,0,,,,,,,,,,,,,,,,,622.4324281001464,None,623.0829873001203,623.6829413999803,623.6663007000461,625.6668727002107,None,1,0.6125467005185783,2.613096700515598,increament,0.6,15,standard,None,100,,,,,,,,m,22,215,fr,r,0,raw,2022-05-30_10h27.45.466,oddball,2022.1.2,59.83502298369197,
5,,,,,0,0,0,1,5,0,5,0,12,0,12,0,,,,,,,,,,,,,,,,,625.6837945003062,None,626.4173639002256,627.0177833000198,627.0009888000786,629.0016433000565,None,1,0.612300899811089,2.6129538998939097,increament,0.6,15,standard,None,100,,,,,,,,m,22,215,fr,r,0,raw,2022-05-30_10h27.45.466,oddball,2022.1.2,59.83502298369197,
5,,,,,0,0,0,1,5,0,5,0,13,0,13,0,,,,,,,,,,,,,,,,,629.0183908999898,None,629.6852627000771,630.2858696002513,630.2688501002267,632.2696577003226,None,1,0.613362199626863,2.6141834994778037,increament,0.6,15,standard,None,100,,,,,,,,m,22,215,fr,r,0,raw,2022-05-30_10h27.45.466,oddball,2022.1.2,59.83502298369197,
5,,,,,0,0,0,1,5,0,5,0,14,0,14,0,,,,,,,,,,,,,,,,,632.2862650002353,None,632.8365974002518,633.4365830998868,633.4201169000007,635.4205590998754,None,1,0.611412700265646,2.611828800290823,increament,0.6,15,standard,None,100,,,,,,,,m,22,215,fr,r,0,raw,2022-05-30_10h27.45.466,oddball,2022.1.2,59.83502298369197,
5,,,,,0,0,0,1,5,0,5,0,15,0,15,0,,,,,,,,,,,,,,,,,635.4375132001005,None,635.9875393998809,636.5876656002365,636.5713651999831,638.5722626000643,None,1,0.6137410001829267,2.614720100071281,increament,0.6,15,standard,None,100,,,,,,,,m,22,215,fr,r,0,raw,2022-05-30_10h27.45.466,oddball,2022.1.2,59.83502298369197,
5,,,,,0,0,0,1,5,0,5,0,16,0,16,0,,,,,,,,,,,,,,,,,638.5892153000459,None,639.155589400325,640.1225076001137,640.089022600092,642.0905991001055,j,1,0.9622511002235115,2.9640463003888726,increament,0.96,18,oddball,j,160,0.6110795000568032,,,,,,,m,22,215,fr,r,0,raw,2022-05-30_10h27.45.466,oddball,2022.1.2,59.83502298369197,
5,,,,,0,0,0,1,5,0,5,0,17,0,17,0,,,,,,,,,,,,,,,,,642.10756090004,None,642.6403687000275,643.24023139989,643.2241567000747,645.2243701000698,None,1,0.6104708001948893,2.6106696003116667,increament,0.6,15,standard,None,100,,,,,,,,m,22,215,fr,r,0,raw,2022-05-30_10h27.45.466,oddball,2022.1.2,59.83502298369197,
5,,,,,0,0,0,1,5,0,5,0,18,0,18,0,,,,,,,,,,,,,,,,,645.2414565999061,None,645.824633799959,646.4250147999264,646.408272200264,648.4088673000224,None,1,0.6124104000627995,2.6130122002214193,increament,0.6,15,standard,None,100,,,,,,,,m,22,215,fr,r,0,raw,2022-05-30_10h27.45.466,oddball,2022.1.2,59.83502298369197,
5,,,,,0,0,0,1,5,0,5,0,19,0,19,0,,,,,,,,,,,,,,,,,648.4256593002938,None,649.2260676003061,649.8261444000527,649.8094230000861,651.8104296000674,None,1,0.6115454002283514,2.6125674000941217,increament,0.6,15,standard,None,100,,,,,,,,m,22,215,fr,r,0,raw,2022-05-30_10h27.45.466,oddball,2022.1.2,59.83502298369197,
5,,,,,0,0,0,1,5,0,5,0,20,0,20,0,,,,,,,,,,,,,,,,,651.8270352003165,None,652.3944808002561,652.9941698000766,652.9775108001195,654.9779940000735,None,1,0.6093827001750469,2.609818800352514,increament,0.6,15,standard,None,100,,,,,,,,m,22,215,fr,r,0,raw,2022-05-30_10h27.45.466,oddball,2022.1.2,59.83502298369197,
5,,,,,0,0,0,1,5,0,5,0,21,0,21,0,,,,,,,,,,,,,,,,,654.9948020000011,None,655.728680500295,656.328721200116,656.3121040998958,658.3125646002591,None,1,0.6107502998784184,2.6111481999978423,increament,0.6,15,standard,None,100,,,,,,,,m,22,215,fr,r,0,raw,2022-05-30_10h27.45.466,oddball,2022.1.2,59.83502298369197,
5,,,,,0,0,0,1,5,0,5,0,22,0,22,0,,,,,,,,,,,,,,,,,658.329331799876,None,659.0797141999938,659.6798864998855,659.6631541000679,661.66417740006,None,1,0.6113322000019252,2.6123891002498567,increament,0.6,15,standard,None,100,,,,,,,,m,22,215,fr,r,0,raw,2022-05-30_10h27.45.466,oddball,2022.1.2,59.83502298369197,
5,,,,,0,0,0,1,5,0,5,0,23,0,23,0,,,,,,,,,,,,,,,,,661.6809307001531,None,662.497607700061,663.0980028999038,663.0812359000556,665.0824926001951,None,1,0.6096936003305018,2.61101120011881,increament,0.6,15,standard,None,100,,,,,,,,m,22,215,fr,r,0,raw,2022-05-30_10h27.45.466,oddball,2022.1.2,59.83502298369197,
5,,,,,0,0,0,1,5,0,5,0,24,0,24,0,,,,,,,,,,,,,,,,,665.0983982998878,None,665.7990056001581,666.3990866001695,666.3825139002874,668.3835625001229,None,1,0.6116018001921475,2.612688799854368,increament,0.6,15,standard,None,100,,,,,,,,m,22,215,fr,r,0,raw,2022-05-30_10h27.45.466,oddball,2022.1.2,59.83502298369197,
5,,,,,0,0,0,1,5,0,5,0,25,0,25,0,,,,,,,,,,,,,,,,,668.4000043002889,None,668.9834759002551,669.583758899942,669.5670155999251,671.567707200069,None,1,0.6127523998729885,2.6134074996225536,increament,0.6,15,standard,None,100,,,,,,,,m,22,215,fr,r,0,raw,2022-05-30_10h27.45.466,oddball,2022.1.2,59.83502298369197,
5,,,,,0,0,0,1,5,0,5,0,26,0,26,0,,,,,,,,,,,,,,,,,671.5843412000686,None,672.3018196001649,672.9019834999926,672.884842700325,674.8857249002904,None,1,0.6117442999966443,2.612637700047344,increament,0.6,15,standard,None,100,,,,,,,,m,22,215,fr,r,0,raw,2022-05-30_10h27.45.466,oddball,2022.1.2,59.83502298369197,
5,,,,,0,0,0,1,5,0,5,0,27,0,27,0,,,,,,,,,,,,,,,,,674.9024348999374,None,675.6690930002369,676.2701695999131,676.2530414001085,678.2539262003265,None,1,0.6133216000162065,2.6142366002313793,increament,0.6,15,standard,None,100,,,,,,,,m,22,215,fr,r,0,raw,2022-05-30_10h27.45.466,oddball,2022.1.2,59.83502298369197,
5,,,,,0,0,0,1,5,0,5,0,28,0,28,0,,,,,,,,,,,,,,,,,678.2705304999836,None,678.8371015000157,679.5707673002034,679.5376198003069,681.5386969000101,j,1,0.7297223005443811,2.730872600339353,increament,0.72,16,oddball,j,120,0.9309920002706349,,,,,,,m,22,215,fr,r,0,raw,2022-05-30_10h27.45.466,oddball,2022.1.2,59.83502298369197,
5,,,,,0,0,0,1,5,0,5,0,29,0,29,0,,,,,,,,,,,,,,,,,681.5549713000655,None,682.3050196999684,682.905725300312,682.8889190000482,684.8893901999108,None,1,0.61190150026232,2.6123366001993418,increament,0.6,15,standard,None,100,,,,,,,,m,22,215,fr,r,0,raw,2022-05-30_10h27.45.466,oddball,2022.1.2,59.83502298369197,
5,,,,,0,0,0,1,6,0,6,0,0,0,0,0,,,,,,,,,,,,,,,694.8504115999676,None,696.3771742000245,None,696.9776272000745,697.5776328002103,697.5611185999587,699.5616526999511,None,1,0.6122818002477288,2.612799500115216,decreament,0.6,11,standard,None,100,,684.9066687999293,None,,,,,m,22,215,fr,r,0,raw,2022-05-30_10h27.45.466,oddball,2022.1.2,59.83502298369197,
5,,,,,0,0,0,1,6,0,6,0,1,0,1,0,,,,,,,,,,,,,,,,,699.5783015000634,None,700.1956410002895,700.7953202002682,700.7791543998756,702.7800827003084,None,1,0.6119901002384722,2.613184000365436,decreament,0.6,11,standard,None,100,,,,,,,,m,22,215,fr,r,0,raw,2022-05-30_10h27.45.466,oddball,2022.1.2,59.83502298369197,
5,,,,,0,0,0,1,6,0,6,0,2,0,2,0,,,,,,,,,,,,,,,,,702.7972756000236,None,703.5631826003082,704.1637631999329,704.1472327001393,706.1478512003087,None,1,0.6130352006293833,2.6136030005291104,decreament,0.6,11,standard,None,100,,,,,,,,m,22,215,fr,r,0,raw,2022-05-30_10h27.45.466,oddball,2022.1.2,59.83502298369197,
5,,,,,0,0,0,1,6,0,6,0,3,0,3,0,,,,,,,,,,,,,,,,,706.1641959999688,None,706.8976233000867,707.4979631002061,707.4817285002209,709.482021600008,None,1,0.6139548006467521,2.614249400328845,decreament,0.6,11,standard,None,100,,,,,,,,m,22,215,fr,r,0,raw,2022-05-30_10h27.45.466,oddball,2022.1.2,59.83502298369197,
5,,,,,0,0,0,1,6,0,6,0,4,0,4,0,,,,,,,,,,,,,,,,,709.4988040002063,None,710.099123199936,710.6991727002896,710.6826957999729,712.6835775999352,None,1,0.6123132999055088,2.6132428999990225,decreament,0.6,11,standard,None,100,,,,,,,,m,22,215,fr,r,0,raw,2022-05-30_10h27.45.466,oddball,2022.1.2,59.83502298369197,
5,,,,,0,0,0,1,6,0,6,0,5,0,5,0,,,,,,,,,,,,,,,,,712.7002636003308,None,713.3170789000578,713.9171878001653,713.9008321003057,715.9012005003169,None,1,0.6119381999596953,2.6122730998322368,decreament,0.6,11,standard,None,100,,,,,,,,m,22,215,fr,r,0,raw,2022-05-30_10h27.45.466,oddball,2022.1.2,59.83502298369197,
5,,,,,0,0,0,1,6,0,6,0,6,0,6,0,,,,,,,,,,,,,,,,,715.91786900023,None,716.4513845001347,716.9347461001016,716.9017038000748,718.9022973999381,None,0,0.4800269999541342,2.4806043999269605,decreament,0.48,14,oddball,j,80,,,,,,,,m,22,215,fr,r,0,raw,2022-05-30_10h27.45.466,oddball,2022.1.2,59.83502298369197,
5,,,,,0,0,0,1,6,0,6,0,7,0,7,0,,,,,,,,,,,,,,,,,718.919074000325,None,719.5530285001732,720.1529760002159,720.1364837000147,722.1371828000993,None,1,0.6127066998742521,2.6134494999423623,decreament,0.6,11,standard,None,100,,,,,,,,m,22,215,fr,r,0,raw,2022-05-30_10h27.45.466,oddball,2022.1.2,59.83502298369197,
5,,,,,0,0,0,1,6,0,6,0,8,0,8,0,,,,,,,,,,,,,,,,,722.1542926002294,None,722.787226700224,723.3871559998952,723.3714030003175,725.3716155001894,None,1,0.6133230002596974,2.6135089001618326,decreament,0.6,11,standard,None,100,,,,,,,,m,22,215,fr,r,0,raw,2022-05-30_10h27.45.466,oddball,2022.1.2,59.83502298369197,
5,,,,,0,0,0,1,6,0,6,0,9,0,9,0,,,,,,,,,,,,,,,,,725.388277800288,None,726.0219356003217,726.621823000256,726.6051090001129,728.6059250999242,None,1,0.6113545005209744,2.612173500470817,decreament,0.6,11,standard,None,100,,,,,,,,m,22,215,fr,r,0,raw,2022-05-30_10h27.45.466,oddball,2022.1.2,59.83502298369197,
5,,,,,0,0,0,1,6,0,6,0,10,0,10,0,,,,,,,,,,,,,,,,,728.622637799941,None,729.2568157003261,729.856451000087,729.8398593999445,731.8406358002685,None,1,0.6098564998246729,2.610621300060302,decreament,0.6,11,standard,None,100,,,,,,,,m,22,215,fr,r,0,raw,2022-05-30_10h27.45.466,oddball,2022.1.2,59.83502298369197,
5,,,,,0,0,0,1,6,0,6,0,11,0,11,0,,,,,,,,,,,,,,,,,731.8572825002484,None,732.5409850999713,733.1410449999385,733.1246576001868,735.125501499977,None,1,0.6130130998790264,2.613937099929899,decreament,0.6,11,standard,None,100,,,,,,,,m,22,215,fr,r,0,raw,2022-05-30_10h27.45.466,oddball,2022.1.2,59.83502298369197,
5,,,,,0,0,0,1,6,0,6,0,12,0,12,0,,,,,,,,,,,,,,,,,735.1428785999306,None,735.7585843000561,736.0085971001536,735.9755865000188,737.976338500157,j,1,0.2470291000790894,2.247776699718088,decreament,0.24,12,oddball,j,40,0.755944199860096,,,,,,,m,22,215,fr,r,0,raw,2022-05-30_10h27.45.466,oddball,2022.1.2,59.83502298369197,
5,,,,,0,0,0,1,6,0,6,0,13,0,13,0,,,,,,,,,,,,,,,,,737.9931236002594,None,738.5766742001288,739.176858200226,739.1602218002081,741.1608617999591,None,1,0.6094885999336839,2.6100975000299513,decreament,0.6,11,standard,None,100,,,,,,,,m,22,215,fr,r,0,raw,2022-05-30_10h27.45.466,oddball,2022.1.2,59.83502298369197,
5,,,,,0,0,0,1,6,0,6,0,14,0,14,0,,,,,,,,,,,,,,,,,741.1773422001861,None,741.8610252998769,742.4614193001762,742.4446311001666,744.4459279999137,None,1,0.6123959999531507,2.6138423001393676,decreament,0.6,11,standard,None,100,,,,,,,,m,22,215,fr,r,0,raw,2022-05-30_10h27.45.466,oddball,2022.1.2,59.83502298369197,
5,,,,,0,0,0,1,6,0,6,0,15,0,15,0,,,,,,,,,,,,,,,,,744.4618997001089,None,745.1790767000057,745.779002700001,745.7625326002017,747.7633115001954,None,1,0.6110184001736343,2.6117755002342165,decreament,0.6,11,standard,None,100,,,,,,,,m,22,215,fr,r,0,raw,2022-05-30_10h27.45.466,oddball,2022.1.2,59.83502298369197,
5,,,,,0,0,0,1,6,0,6,0,16,0,16,0,,,,,,,,,,,,,,,,,747.7801453000866,None,748.496910400223,749.0972644002177,749.0809474000707,751.0811864999123,None,1,0.6134133003652096,2.613580800127238,decreament,0.6,11,standard,None,100,,,,,,,,m,22,215,fr,r,0,raw,2022-05-30_10h27.45.466,oddball,2022.1.2,59.83502298369197,
5,,,,,0,0,0,1,6,0,6,0,17,0,17,0,,,,,,,,,,,,,,,,,751.0981596000493,None,751.79844410019,752.1651997999288,752.1316484003328,754.1325938999653,j,1,0.35911030042916536,2.360109700355679,decreament,0.36,13,oddball,j,60,0.9771369001828134,,,,,,,m,22,215,fr,r,0,raw,2022-05-30_10h27.45.466,oddball,2022.1.2,59.83502298369197,
5,,,,,0,0,0,1,6,0,6,0,18,0,18,0,,,,,,,,,,,,,,,,,754.149689800106,None,754.8160526002757,755.4163754000328,755.3994184001349,757.4005185002461,None,1,0.6118009001947939,2.612912400159985,decreament,0.6,11,standard,None,100,,,,,,,,m,22,215,fr,r,0,raw,2022-05-30_10h27.45.466,oddball,2022.1.2,59.83502298369197,
5,,,,,0,0,0,1,6,0,6,0,19,0,19,0,,,,,,,,,,,,,,,,,757.4169197999872,None,758.184257700108,758.7842894000933,758.7679167999886,760.7684736000374,None,1,0.6101033999584615,2.610612899530679,decreament,0.6,11,standard,None,100,,,,,,,,m,22,215,fr,r,0,raw,2022-05-30_10h27.45.466,oddball,2022.1.2,59.83502298369197,
5,,,,,0,0,0,1,6,0,6,0,20,0,20,0,,,,,,,,,,,,,,,,,760.7851284001954,None,761.3352812002413,761.9354213001207,761.9187036999501,763.9199494002387,None,1,0.6124602998606861,2.6137864999473095,decreament,0.6,11,standard,None,100,,,,,,,,m,22,215,fr,r,0,raw,2022-05-30_10h27.45.466,oddball,2022.1.2,59.83502298369197,
5,,,,,0,0,0,1,6,0,6,0,21,0,21,0,,,,,,,,,,,,,,,,,763.936212300323,None,764.5032184002921,765.1031977999955,765.0866064000875,767.0872638002038,None,1,0.6105424999259412,2.6111940001137555,decreament,0.6,11,standard,None,100,,,,,,,,m,22,215,fr,r,0,raw,2022-05-30_10h27.45.466,oddball,2022.1.2,59.83502298369197,
5,,,,,0,0,0,1,6,0,6,0,22,0,22,0,,,,,,,,,,,,,,,,,767.103933100123,None,767.6375128002837,768.2376137999818,768.2211083001457,770.2218315000646,None,1,0.6133419997058809,2.614064599853009,decreament,0.6,11,standard,None,100,,,,,,,,m,22,215,fr,r,0,raw,2022-05-30_10h27.45.466,oddball,2022.1.2,59.83502298369197,
5,,,,,0,0,0,1,6,0,6,0,23,0,23,0,,,,,,,,,,,,,,,,,770.2386795999482,None,770.8891595001332,771.4894330999814,771.472907599993,773.4735646001063,None,1,0.6110229003243148,2.611689300276339,decreament,0.6,11,standard,None,100,,,,,,,,m,22,215,fr,r,0,raw,2022-05-30_10h27.45.466,oddball,2022.1.2,59.83502298369197,
5,,,,,0,0,0,1,6,0,6,0,24,0,24,0,,,,,,,,,,,,,,,,,773.4904229003005,None,774.157127500046,774.7570714000612,774.7405059998855,776.7412390001118,None,1,0.6081103002652526,2.608777000103146,decreament,0.6,11,standard,None,100,,,,,,,,m,22,215,fr,r,0,raw,2022-05-30_10h27.45.466,oddball,2022.1.2,59.83502298369197,
5,,,,,0,0,0,1,6,0,6,0,25,0,25,0,,,,,,,,,,,,,,,,,776.7579421000555,None,777.4745260002092,778.0746351000853,778.0579997999594,780.0591080999002,None,1,0.6130397003144026,2.6141910003498197,decreament,0.6,11,standard,None,100,,,,,,,,m,22,215,fr,r,0,raw,2022-05-30_10h27.45.466,oddball,2022.1.2,59.83502298369197,
5,,,,,0,0,0,1,6,0,6,0,26,0,26,0,,,,,,,,,,,,,,,,,780.0755226002075,None,780.6757149002515,781.2760554002598,781.2593455999158,783.2602204000577,None,1,0.6132420999929309,2.614189499989152,decreament,0.6,11,standard,None,100,,,,,,,,m,22,215,fr,r,0,raw,2022-05-30_10h27.45.466,oddball,2022.1.2,59.83502298369197,
5,,,,,0,0,0,1,6,0,6,0,27,0,27,0,,,,,,,,,,,,,,,,,783.2765875002369,None,784.0103389001451,784.6106406999752,784.5940550998785,786.5949372001924,None,1,0.6129835997708142,2.6139384997077286,decreament,0.6,11,standard,None,100,,,,,,,,m,22,215,fr,r,0,raw,2022-05-30_10h27.45.466,oddball,2022.1.2,59.83502298369197,
5,,,,,0,0,0,1,6,0,6,0,28,0,28,0,,,,,,,,,,,,,,,,,786.6115570999682,None,787.2782070999965,787.8783475002274,787.8618995002471,789.8624097001739,None,1,0.6140181999653578,2.6145067997276783,decreament,0.6,11,standard,None,100,,,,,,,,m,22,215,fr,r,0,raw,2022-05-30_10h27.45.466,oddball,2022.1.2,59.83502298369197,
5,,,,,0,0,0,1,6,0,6,0,29,0,29,0,,,,,,,,,,,,,,,,,789.8791200001724,None,790.4462383999489,791.0465663000941,791.0296748001128,793.0305761001073,None,1,0.6128196003846824,2.613736600615084,decreament,0.6,11,standard,None,100,,,,,,,,m,22,215,fr,r,0,raw,2022-05-30_10h27.45.466,oddball,2022.1.2,59.83502298369197,
5,,,,,0,0,0,1,7,0,7,0,0,0,0,0,,,,,,,,,,,,,,,797.3577887001447,None,798.2822734001093,None,799.0326451999135,799.6329499999993,799.6164845000021,801.616797900293,None,1,0.6111946003511548,2.6114759002812207,increament,0.6,15,standard,None,100,,793.0472897998989,None,,,,,m,22,215,fr,r,0,raw,2022-05-30_10h27.45.466,oddball,2022.1.2,59.83502298369197,
5,,,,,0,0,0,1,7,0,7,0,1,0,1,0,,,,,,,,,,,,,,,,,801.6336445002817,None,802.1673766002059,802.7674334999174,802.750793099869,804.7514698002487,None,1,0.6122488998807967,2.6129383998923004,increament,0.6,15,standard,None,100,,,,,,,,m,22,215,fr,r,0,raw,2022-05-30_10h27.45.466,oddball,2022.1.2,59.83502298369197,
5,,,,,0,0,0,1,7,0,7,0,2,0,2,0,,,,,,,,,,,,,,,,,804.7680659000762,None,805.3519880003296,805.9521933998913,805.9353221999481,807.9361282000318,None,1,0.612563599832356,2.6134047000668943,increament,0.6,15,standard,None,100,,,,,,,,m,22,215,fr,r,0,raw,2022-05-30_10h27.45.466,oddball,2022.1.2,59.83502298369197,
5,,,,,0,0,0,1,7,0,7,0,3,0,3,0,,,,,,,,,,,,,,,,,807.9528637002222,None,808.6030542999506,809.2032673000358,809.1869667000137,811.1873530000448,None,1,0.6117325001396239,2.6121026002801955,increament,0.6,15,standard,None,100,,,,,,,,m,22,215,fr,r,0,raw,2022-05-30_10h27.45.466,oddball,2022.1.2,59.83502298369197,
5,,,,,0,0,0,1,7,0,7,0,4,0,4,0,,,,,,,,,,,,,,,,,811.204377700109,None,811.97090880014,812.5711082001217,812.554340899922,814.555242900271,None,1,0.6132367001846433,2.6141369002871215,increament,0.6,15,standard,None,100,,,,,,,,m,22,215,fr,r,0,raw,2022-05-30_10h27.45.466,oddball,2022.1.2,59.83502298369197,
5,,,,,0,0,0,1,7,0,7,0,5,0,5,0,,,,,,,,,,,,,,,,,814.5719844000414,None,815.188947299961,815.7888524001464,815.7723182002082,817.7731131999753,None,1,0.6134922001510859,2.6143185002729297,increament,0.6,15,standard,None,100,,,,,,,,m,22,215,fr,r,0,raw,2022-05-30_10h27.45.466,oddball,2022.1.2,59.83502298369197,
5,,,,,0,0,0,1,7,0,7,0,6,0,6,0,,,,,,,,,,,,,,,,,817.7900386000983,None,818.4237000001594,819.1569614000618,819.12377559999,821.1245252001099,None,0,0.7286610002629459,2.729425700381398,increament,0.72,16,oddball,j,120,,,,,,,,m,22,215,fr,r,0,raw,2022-05-30_10h27.45.466,oddball,2022.1.2,59.83502298369197,
5,,,,,0,0,0,1,7,0,7,0,7,0,7,0,,,,,,,,,,,,,,,,,821.1411061002873,None,821.8249433999881,822.4247447000816,822.4083028999157,824.4093760000542,None,1,0.6116989995352924,2.612846899777651,increament,0.6,15,standard,None,100,,,,,,,,m,22,215,fr,r,0,raw,2022-05-30_10h27.45.466,oddball,2022.1.2,59.83502298369197,
5,,,,,0,0,0,1,7,0,7,0,8,0,8,0,,,,,,,,,,,,,,,,,824.4258381002583,None,825.1092375000007,825.7094594999216,825.6933128000237,827.6934936000034,None,1,0.6124510001391172,2.6125425999052823,increament,0.6,15,standard,None,100,,,,,,,,m,22,215,fr,r,0,raw,2022-05-30_10h27.45.466,oddball,2022.1.2,59.83502298369197,
5,,,,,0,0,0,1,7,0,7,0,9,0,9,0,,,,,,,,,,,,,,,,,827.7102565001696,None,828.4944881000556,829.0940618999302,829.0774066001177,831.078267400153,None,1,0.6120866998098791,2.6129486998543143,increament,0.6,15,standard,None,100,,,,,,,,m,22,215,fr,r,0,raw,2022-05-30_10h27.45.466,oddball,2022.1.2,59.83502298369197,
5,,,,,0,0,0,1,7,0,7,0,10,0,10,0,,,,,,,,,,,,,,,,,831.0950807998888,None,831.6617552000098,832.2617462999187,832.2453262000345,834.2460588002577,None,1,0.6099245003424585,2.610637400764972,increament,0.6,15,standard,None,100,,,,,,,,m,22,215,fr,r,0,raw,2022-05-30_10h27.45.466,oddball,2022.1.2,59.83502298369197,
5,,,,,0,0,0,1,7,0,7,0,11,0,11,0,,,,,,,,,,,,,,,,,834.2626392999664,None,834.9799478002824,835.5800218000077,835.5633282000199,837.5641667000018,None,1,0.6123988004401326,2.613214800134301,increament,0.6,15,standard,None,100,,,,,,,,m,22,215,fr,r,0,raw,2022-05-30_10h27.45.466,oddball,2022.1.2,59.83502298369197,
5,,,,,0,0,0,1,7,0,7,0,12,0,12,0,,,,,,,,,,,,,,,,,837.5805802000687,None,838.2973998002708,838.8978500002995,838.8815623000264,840.8818387999199,None,1,0.6142659005708992,2.614462800323963,increament,0.6,15,standard,None,100,,,,,,,,m,22,215,fr,r,0,raw,2022-05-30_10h27.45.466,oddball,2022.1.2,59.83502298369197,
5,,,,,0,0,0,1,7,0,7,0,13,0,13,0,,,,,,,,,,,,,,,,,840.8985117003322,None,841.4987766002305,842.0991060002707,842.0824311999604,844.0833152001724,None,1,0.6133511001244187,2.6142653003335,increament,0.6,15,standard,None,100,,,,,,,,m,22,215,fr,r,0,raw,2022-05-30_10h27.45.466,oddball,2022.1.2,59.83502298369197,
5,,,,,0,0,0,1,7,0,7,0,14,0,14,0,,,,,,,,,,,,,,,,,844.1000981000252,None,844.8168867002241,845.416693400126,845.4000868001021,847.4010642999783,None,1,0.6107942000962794,2.611808600369841,increament,0.6,15,standard,None,100,,,,,,,,m,22,215,fr,r,0,raw,2022-05-30_10h27.45.466,oddball,2022.1.2,59.83502298369197,
5,,,,,0,0,0,1,7,0,7,0,15,0,15,0,,,,,,,,,,,,,,,,,847.4176746001467,None,848.0850205002353,848.6848114002496,848.6684202998877,850.6688256999478,None,1,0.6118526998907328,2.6121808998286724,increament,0.6,15,standard,None,100,,,,,,,,m,22,215,fr,r,0,raw,2022-05-30_10h27.45.466,oddball,2022.1.2,59.83502298369197,
5,,,,,0,0,0,1,7,0,7,0,16,0,16,0,,,,,,,,,,,,,,,,,850.6856422000565,None,851.3527170000598,851.9527656002901,851.9361315001734,853.9374076998793,None,1,0.6124635995365679,2.6138242995366454,increament,0.6,15,standard,None,100,,,,,,,,m,22,215,fr,r,0,raw,2022-05-30_10h27.45.466,oddball,2022.1.2,59.83502298369197,
5,,,,,0,0,0,1,7,0,7,0,17,0,17,0,,,,,,,,,,,,,,,,,853.953459400218,None,854.5867294003256,855.1875150999986,855.1708458000794,857.1714611002244,None,1,0.6154432999901474,2.616015200037509,increament,0.6,15,standard,None,100,,,,,,,,m,22,215,fr,r,0,raw,2022-05-30_10h27.45.466,oddball,2022.1.2,59.83502298369197,
5,,,,,0,0,0,1,7,0,7,0,18,0,18,0,,,,,,,,,,,,,,,,,857.1881059003063,None,857.8051323001273,858.4054069002159,858.3890654998831,860.3893317999318,None,1,0.6125130001455545,2.6126834000460804,increament,0.6,15,standard,None,100,,,,,,,,m,22,215,fr,r,0,raw,2022-05-30_10h27.45.466,oddball,2022.1.2,59.83502298369197,
5,,,,,0,0,0,1,7,0,7,0,19,0,19,0,,,,,,,,,,,,,,,,,860.4059926001355,None,861.0230080001056,861.872954600025,861.8396829999983,863.8412223001942,j,1,0.8460646998137236,2.847724599763751,increament,0.84,17,oddball,j,140,0.7650040001608431,,,,,,,m,22,215,fr,r,0,raw,2022-05-30_10h27.45.466,oddball,2022.1.2,59.83502298369197,
5,,,,,0,0,0,1,7,0,7,0,20,0,20,0,,,,,,,,,,,,,,,,,863.857191900257,None,864.4742264002562,865.0747580002062,865.0580784999765,867.0590535001829,None,1,0.6125909998081625,2.6136149996891618,increament,0.6,15,standard,None,100,,,,,,,,m,22,215,fr,r,0,raw,2022-05-30_10h27.45.466,oddball,2022.1.2,59.83502298369197,
5,,,,,0,0,0,1,7,0,7,0,21,0,21,0,,,,,,,,,,,,,,,,,867.0754900001921,None,867.6420479002409,868.2421552999876,868.2257278999314,870.2265137000941,None,1,0.6127037000842392,2.6134851002134383,increament,0.6,15,standard,None,100,,,,,,,,m,22,215,fr,r,0,raw,2022-05-30_10h27.45.466,oddball,2022.1.2,59.83502298369197,
5,,,,,0,0,0,1,7,0,7,0,22,0,22,0,,,,,,,,,,,,,,,,,870.2428967002779,None,870.9270298001356,871.5268017002381,871.5101081999019,873.5111078000627,None,1,0.6117161000147462,2.612778900191188,increament,0.6,15,standard,None,100,,,,,,,,m,22,215,fr,r,0,raw,2022-05-30_10h27.45.466,oddball,2022.1.2,59.83502298369197,
5,,,,,0,0,0,1,7,0,7,0,23,0,23,0,,,,,,,,,,,,,,,,,873.5274241003208,None,874.1947547001764,875.161658400204,875.1281530000269,877.128733499907,j,1,0.9629771998152137,2.963514299597591,increament,0.96,18,oddball,j,160,0.4186689001508057,,,,,,,m,22,215,fr,r,0,raw,2022-05-30_10h27.45.466,oddball,2022.1.2,59.83502298369197,
5,,,,,0,0,0,1,7,0,7,0,24,0,24,0,,,,,,,,,,,,,,,,,877.1455470002256,None,877.7794173001312,878.3792816000059,878.3629451999441,880.363369599916,None,1,0.6108128004707396,2.611239000223577,increament,0.6,15,standard,None,100,,,,,,,,m,22,215,fr,r,0,raw,2022-05-30_10h27.45.466,oddball,2022.1.2,59.83502298369197,
5,,,,,0,0,0,1,7,0,7,0,25,0,25,0,,,,,,,,,,,,,,,,,880.3803248000331,None,881.16341260029,881.7642466002144,881.7478144001216,883.7483367999084,None,1,0.6156410002149642,2.616171800531447,increament,0.6,15,standard,None,100,,,,,,,,m,22,215,fr,r,0,raw,2022-05-30_10h27.45.466,oddball,2022.1.2,59.83502298369197,
5,,,,,0,0,0,1,7,0,7,0,26,0,26,0,,,,,,,,,,,,,,,,,883.7649921001866,None,884.5150260003284,885.1154911001213,885.0991557002999,887.0996258002706,None,1,0.6137530002743006,2.6142053003422916,increament,0.6,15,standard,None,100,,,,,,,,m,22,215,fr,r,0,raw,2022-05-30_10h27.45.466,oddball,2022.1.2,59.83502298369197,
5,,,,,0,0,0,1,7,0,7,0,27,0,27,0,,,,,,,,,,,,,,,,,887.1160790002905,None,887.6662886999547,888.266703300178,888.2497721002437,890.2506284001283,None,1,0.6120611000806093,2.612918000202626,increament,0.6,15,standard,None,100,,,,,,,,m,22,215,fr,r,0,raw,2022-05-30_10h27.45.466,oddball,2022.1.2,59.83502298369197,
5,,,,,0,0,0,1,7,0,7,0,28,0,28,0,,,,,,,,,,,,,,,,,890.2674179002643,None,890.9507875000127,891.5509862001054,891.5342792002484,893.5357848000713,None,1,0.6145565002225339,2.6161394002847373,increament,0.6,15,standard,None,100,,,,,,,,m,22,215,fr,r,0,raw,2022-05-30_10h27.45.466,oddball,2022.1.2,59.83502298369197,
5,,,,,0,0,0,1,7,0,7,0,29,0,29,0,,,,,,,,,,,,,,,,,893.5517044998705,None,894.1685653002933,894.7690536999144,894.7523913001642,896.7528095003217,None,1,0.6134783998131752,2.613872400019318,increament,0.6,15,standard,None,100,,,,,,,,m,22,215,fr,r,0,raw,2022-05-30_10h27.45.466,oddball,2022.1.2,59.83502298369197,
5,,,,,0,0,0,1,8,0,8,0,0,0,0,0,,,,,,,,,,,,,,,900.3958499003202,None,902.3383327000774,None,902.8721892000176,903.4723322000355,903.4556256001815,905.4566016001627,None,1,0.61146380007267,2.612467700149864,decreament,0.6,11,standard,None,100,,896.770047900267,None,,,,,m,22,215,fr,r,0,raw,2022-05-30_10h27.45.466,oddball,2022.1.2,59.83502298369197,
5,,,,,0,0,0,1,8,0,8,0,1,0,1,0,,,,,,,,,,,,,,,,,905.4731371002272,None,905.9895494002849,906.5905158002861,906.5740205999464,908.5741582000628,None,1,0.6157488999888301,2.6157926004379988,decreament,0.6,11,standard,None,100,,,,,,,,m,22,215,fr,r,0,raw,2022-05-30_10h27.45.466,oddball,2022.1.2,59.83502298369197,
5,,,,,0,0,0,1,8,0,8,0,2,0,2,0,,,,,,,,,,,,,,,,,908.5911671998911,None,909.3911180002615,909.991450200323,909.9748468999751,911.9753355002031,None,1,0.6139045008458197,2.6143518006429076,decreament,0.6,11,standard,None,100,,,,,,,,m,22,215,fr,r,0,raw,2022-05-30_10h27.45.466,oddball,2022.1.2,59.83502298369197,
5,,,,,0,0,0,1,8,0,8,0,3,0,3,0,,,,,,,,,,,,,,,,,911.9924122001976,None,912.6090982998721,913.2091949000023,913.1925455001183,915.1934012998827,None,1,0.6122671002522111,2.6131231002509594,decreament,0.6,11,standard,None,100,,,,,,,,m,22,215,fr,r,0,raw,2022-05-30_10h27.45.466,oddball,2022.1.2,59.83502298369197,
5,,,,,0,0,0,1,8,0,8,0,4,0,4,0,,,,,,,,,,,,,,,,,915.2099651000462,None,915.7771874000318,916.3776274002157,916.3604987002909,918.3612579000182,None,1,0.6116531998850405,2.612399899866432,decreament,0.6,11,standard,None,100,,,,,,,,m,22,215,fr,r,0,raw,2022-05-30_10h27.45.466,oddball,2022.1.2,59.83502298369197,
5,,,,,0,0,0,1,8,0,8,0,5,0,5,0,,,,,,,,,,,,,,,,,918.3779501998797,None,918.9780330001377,919.5786263002083,919.5619657002389,921.5624871999025,None,1,0.6134906001389027,2.613935900386423,decreament,0.6,11,standard,None,100,,,,,,,,m,22,215,fr,r,0,raw,2022-05-30_10h27.45.466,oddball,2022.1.2,59.83502298369197,
5,,,,,0,0,0,1,8,0,8,0,6,0,6,0,,,,,,,,,,,,,,,,,921.5792016000487,None,922.1961191999726,922.7963715000078,922.7797075002454,924.7802635002881,None,1,0.6136838002130389,2.6142724002711475,decreament,0.6,11,standard,None,100,,,,,,,,m,22,215,fr,r,0,raw,2022-05-30_10h27.45.466,oddball,2022.1.2,59.83502298369197,
5,,,,,0,0,0,1,8,0,8,0,7,0,7,0,,,,,,,,,,,,,,,,,924.7971255001612,None,925.5307038002647,926.1308742999099,926.1141085000709,928.1151530002244,None,1,0.6112974002026021,2.6124317003414035,decreament,0.6,11,standard,None,100,,,,,,,,m,22,215,fr,r,0,raw,2022-05-30_10h27.45.466,oddball,2022.1.2,59.83502298369197,
5,,,,,0,0,0,1,8,0,8,0,8,0,8,0,,,,,,,,,,,,,,,,,928.1317997002043,None,928.7485555000603,929.1152415000834,929.0818123002537,931.0831781001762,None,0,0.36117880046367645,2.3626249004155397,decreament,0.36,13,oddball,j,60,,,,,,,,m,22,215,fr,r,0,raw,2022-05-30_10h27.45.466,oddball,2022.1.2,59.83502298369197,
5,,,,,0,0,0,1,8,0,8,0,9,0,9,0,,,,,,,,,,,,,,,,,931.0995881999843,None,931.7328828000464,932.3335426002741,932.3167230002582,934.317458699923,None,1,0.6130017000250518,2.613787000067532,decreament,0.6,11,standard,None,100,,,,,,,,m,22,215,fr,r,0,raw,2022-05-30_10h27.45.466,oddball,2022.1.2,59.83502298369197,
5,,,,,0,0,0,1,8,0,8,0,10,0,10,0,,,,,,,,,,,,,,,,,934.3343116003089,None,935.1010712003335,935.7015876001678,935.6847981000319,937.685452000238,None,1,0.6094962004572153,2.6101035005412996,decreament,0.6,11,standard,None,100,,,,,,,,m,22,215,fr,r,0,raw,2022-05-30_10h27.45.466,oddball,2022.1.2,59.83502298369197,
5,,,,,0,0,0,1,8,0,8,0,11,0,11,0,,,,,,,,,,,,,,,,,937.7023140001111,None,938.3687738999724,938.9690201003104,938.9529780000448,940.9530734000728,None,1,0.6132008004933596,2.613184600137174,decreament,0.6,11,standard,None,100,,,,,,,,m,22,215,fr,r,0,raw,2022-05-30_10h27.45.466,oddball,2022.1.2,59.83502298369197,
5,,,,,0,0,0,1,8,0,8,0,12,0,12,0,,,,,,,,,,,,,,,,,940.9697190001607,None,941.6700752000324,942.2704706001095,942.2535949000157,944.2545322002843,None,1,0.6132036000490189,2.6142143001779914,decreament,0.6,11,standard,None,100,,,,,,,,m,22,215,fr,r,0,raw,2022-05-30_10h27.45.466,oddball,2022.1.2,59.83502298369197,
5,,,,,0,0,0,1,8,0,8,0,13,0,13,0,,,,,,,,,,,,,,,,,944.2721315999515,None,944.8382581002079,945.4380493001081,945.4214778002352,947.4228690001182,None,1,0.611714500002563,2.6132219997234643,decreament,0.6,11,standard,None,100,,,,,,,,m,22,215,fr,r,0,raw,2022-05-30_10h27.45.466,oddball,2022.1.2,59.83502298369197,
5,,,,,0,0,0,1,8,0,8,0,14,0,14,0,,,,,,,,,,,,,,,,,947.4392446000129,None,948.0060662003234,948.6059391000308,948.5892674000934,950.5898239999078,None,1,0.6125937001779675,2.6130900997668505,decreament,0.6,11,standard,None,100,,,,,,,,m,22,215,fr,r,0,raw,2022-05-30_10h27.45.466,oddball,2022.1.2,59.83502298369197,
5,,,,,0,0,0,1,8,0,8,0,15,0,15,0,,,,,,,,,,,,,,,,,950.6066564000212,None,951.4404222001322,951.923926200252,951.9075168003328,953.9079849002883,None,0,0.49519050028175116,2.495562800206244,decreament,0.48,14,oddball,j,80,,,,,,,,m,22,215,fr,r,0,raw,2022-05-30_10h27.45.466,oddball,2022.1.2,59.83502298369197,
5,,,,,0,0,0,1,8,0,8,0,16,0,16,0,,,,,,,,,,,,,,,,,953.9245663001202,None,954.6414860999212,955.2421625000425,955.2254343000241,957.225943100173,None,1,0.6136731998994946,2.6141264997422695,decreament,0.6,11,standard,None,100,,,,,,,,m,22,215,fr,r,0,raw,2022-05-30_10h27.45.466,oddball,2022.1.2,59.83502298369197,
5,,,,,0,0,0,1,8,0,8,0,17,0,17,0,,,,,,,,,,,,,,,,,957.2425788999535,None,957.8596999002621,958.459836000111,958.4431539000943,960.443876999896,None,1,0.609853399451822,2.6105492995120585,decreament,0.6,11,standard,None,100,,,,,,,,m,22,215,fr,r,0,raw,2022-05-30_10h27.45.466,oddball,2022.1.2,59.83502298369197,
5,,,,,0,0,0,1,8,0,8,0,18,0,18,0,,,,,,,,,,,,,,,,,960.4602958001196,None,961.0608851001598,961.6609217002988,961.6443058000877,963.6450535003096,None,1,0.6123004001565278,2.613059100229293,decreament,0.6,11,standard,None,100,,,,,,,,m,22,215,fr,r,0,raw,2022-05-30_10h27.45.466,oddball,2022.1.2,59.83502298369197,
5,,,,,0,0,0,1,8,0,8,0,19,0,19,0,,,,,,,,,,,,,,,,,963.6620193999261,None,964.311988200061,964.9119933000766,964.8956297999248,966.8962130001746,None,1,0.6125476998277009,2.6131305997259915,decreament,0.6,11,standard,None,100,,,,,,,,m,22,215,fr,r,0,raw,2022-05-30_10h27.45.466,oddball,2022.1.2,59.83502298369197,
5,,,,,0,0,0,1,8,0,8,0,20,0,20,0,,,,,,,,,,,,,,,,,966.9130098000169,None,967.5298469001427,967.7799555999227,967.746504300274,969.7474851999432,j,1,0.2464020005427301,2.2474290002137423,decreament,0.24,12,oddball,j,40,0.7529214997775853,,,,,,,m,22,215,fr,r,0,raw,2022-05-30_10h27.45.466,oddball,2022.1.2,59.83502298369197,
5,,,,,0,0,0,1,8,0,8,0,21,0,21,0,,,,,,,,,,,,,,,,,969.7642546999268,None,970.2974755000323,970.8981718001887,970.8817289001308,972.8816808001138,None,1,0.6132202004082501,2.6130536003038287,decreament,0.6,11,standard,None,100,,,,,,,,m,22,215,fr,r,0,raw,2022-05-30_10h27.45.466,oddball,2022.1.2,59.83502298369197,
5,,,,,0,0,0,1,8,0,8,0,22,0,22,0,,,,,,,,,,,,,,,,,972.8985561002046,None,973.6327301999554,974.2325373999774,974.2160042999312,976.2167372000404,None,1,0.6105078998953104,2.611228999681771,decreament,0.6,11,standard,None,100,,,,,,,,m,22,215,fr,r,0,raw,2022-05-30_10h27.45.466,oddball,2022.1.2,59.83502298369197,
5,,,,,0,0,0,1,8,0,8,0,23,0,23,0,,,,,,,,,,,,,,,,,976.233227299992,None,976.8499590000138,977.4505042000674,977.4336127000861,979.4344616001472,None,1,0.6121372999623418,2.6129785999655724,decreament,0.6,11,standard,None,100,,,,,,,,m,22,215,fr,r,0,raw,2022-05-30_10h27.45.466,oddball,2022.1.2,59.83502298369197,
5,,,,,0,0,0,1,8,0,8,0,24,0,24,0,,,,,,,,,,,,,,,,,979.4509458001703,None,980.0847709001973,980.6848697001114,980.6680712001398,982.6691618999466,None,1,0.6116460002958775,2.6128092003054917,decreament,0.6,11,standard,None,100,,,,,,,,m,22,215,fr,r,0,raw,2022-05-30_10h27.45.466,oddball,2022.1.2,59.83502298369197,
5,,,,,0,0,0,1,8,0,8,0,25,0,25,0,,,,,,,,,,,,,,,,,982.6865328000858,None,983.402504700236,984.0029497998767,983.9864338999614,985.9867946002632,None,1,0.6116133998148143,2.6119539998471737,decreament,0.6,11,standard,None,100,,,,,,,,m,22,215,fr,r,0,raw,2022-05-30_10h27.45.466,oddball,2022.1.2,59.83502298369197,
5,,,,,0,0,0,1,8,0,8,0,26,0,26,0,,,,,,,,,,,,,,,,,986.0037189000286,None,986.604243000038,987.2040250003338,987.1872819000855,989.1881186999381,None,1,0.6095223003067076,2.6104099000804126,decreament,0.6,11,standard,None,100,,,,,,,,m,22,215,fr,r,0,raw,2022-05-30_10h27.45.466,oddball,2022.1.2,59.83502298369197,
5,,,,,0,0,0,1,8,0,8,0,27,0,27,0,,,,,,,,,,,,,,,,,989.2048149001785,None,989.905214600265,990.5054287998937,990.4885503002442,992.4895123001188,None,1,0.61225809995085,2.613286300096661,decreament,0.6,11,standard,None,100,,,,,,,,m,22,215,fr,r,0,raw,2022-05-30_10h27.45.466,oddball,2022.1.2,59.83502298369197,
5,,,,,0,0,0,1,8,0,8,0,28,0,28,0,,,,,,,,,,,,,,,,,992.5060262000188,None,993.1232108999975,993.7229691999964,993.7064390000887,995.7071640999056,None,1,0.6112824999727309,2.6120104999281466,decreament,0.6,11,standard,None,100,,,,,,,,m,22,215,fr,r,0,raw,2022-05-30_10h27.45.466,oddball,2022.1.2,59.83502298369197,
5,,,,,0,0,0,1,8,0,8,0,29,0,29,0,,,,,,,,,,,,,,,,,995.7238710001111,None,996.3572629000992,996.9578340998851,996.9412636999041,998.9418369000778,None,1,0.6127696000039577,2.6133196000009775,decreament,0.6,11,standard,None,100,,,,,,,,m,22,215,fr,r,0,raw,2022-05-30_10h27.45.466,oddball,2022.1.2,59.83502298369197,
5,,,,,0,0,0,1,9,0,9,0,0,0,0,0,,,,,,,,,,,,,,,1002.8112220000476,None,1003.7934518000111,None,1004.4106161003001,1005.0106879002415,1004.9938866999,1006.9946977002546,None,1,0.6089268000796437,2.6097411001101136,increament,0.6,15,standard,None,100,,998.9592289002612,None,,,,,m,22,215,fr,r,0,raw,2022-05-30_10h27.45.466,oddball,2022.1.2,59.83502298369197,
5,,,,,0,0,0,1,9,0,9,0,1,0,1,0,,,,,,,,,,,,,,,,,1007.011416700203,None,1007.5616398002021,1008.1618301002309,1008.1451268000528,1010.1459396001883,None,1,0.6126445000991225,2.613463500048965,increament,0.6,15,standard,None,100,,,,,,,,m,22,215,fr,r,0,raw,2022-05-30_10h27.45.466,oddball,2022.1.2,59.83502298369197,
5,,,,,0,0,0,1,9,0,9,0,2,0,2,0,,,,,,,,,,,,,,,,,1010.1628600000404,None,1010.9129166002385,1011.5132798999548,1011.4964842000045,1013.4976780000143,None,1,0.6141696996055543,2.615376499481499,increament,0.6,15,standard,None,100,,,,,,,,m,22,215,fr,r,0,raw,2022-05-30_10h27.45.466,oddball,2022.1.2,59.83502298369197,
5,,,,,0,0,0,1,9,0,9,0,3,0,3,0,,,,,,,,,,,,,,,,,1013.5149846998975,None,1014.1809987002052,1014.7810518001206,1014.7642949000001,1016.7650549001992,None,1,0.6110910996794701,2.611834399867803,increament,0.6,15,standard,None,100,,,,,,,,m,22,215,fr,r,0,raw,2022-05-30_10h27.45.466,oddball,2022.1.2,59.83502298369197,
5,,,,,0,0,0,1,9,0,9,0,4,0,4,0,,,,,,,,,,,,,,,,,1016.7817791001871,None,1017.4322159001604,1018.0321329999715,1018.0156332002953,1020.0165277998894,None,1,0.61157859954983,2.612439399585128,increament,0.6,15,standard,None,100,,,,,,,,m,22,215,fr,r,0,raw,2022-05-30_10h27.45.466,oddball,2022.1.2,59.83502298369197,
5,,,,,0,0,0,1,9,0,9,0,5,0,5,0,,,,,,,,,,,,,,,,,1020.033352300059,None,1020.7839270001277,1021.3838984998874,1021.3669042000547,1023.3677336000837,None,1,0.6077581997960806,2.6085786996409297,increament,0.6,15,standard,None,100,,,,,,,,m,22,215,fr,r,0,raw,2022-05-30_10h27.45.466,oddball,2022.1.2,59.83502298369197,
5,,,,,0,0,0,1,9,0,9,0,6,0,6,0,,,,,,,,,,,,,,,,,1023.3843479999341,None,1023.9679161999375,1024.5680823000148,1024.551525699906,1026.5518113998696,None,1,0.6132314000278711,2.6134711001068354,increament,0.6,15,standard,None,100,,,,,,,,m,22,215,fr,r,0,raw,2022-05-30_10h27.45.466,oddball,2022.1.2,59.83502298369197,
5,,,,,0,0,0,1,9,0,9,0,7,0,7,0,,,,,,,,,,,,,,,,,1026.5685319001786,None,1027.3023492000066,1027.903259899933,1027.8861962002702,1029.8870244999416,None,1,0.6137900999747217,2.614651700016111,increament,0.6,15,standard,None,100,,,,,,,,m,22,215,fr,r,0,raw,2022-05-30_10h27.45.466,oddball,2022.1.2,59.83502298369197,
5,,,,,0,0,0,1,9,0,9,0,8,0,8,0,,,,,,,,,,,,,,,,,1029.903606500011,None,1030.5036436002702,1031.1040934999473,1031.087395899929,1033.087933700066,None,1,0.6129284002818167,2.613485800102353,increament,0.6,15,standard,None,100,,,,,,,,m,22,215,fr,r,0,raw,2022-05-30_10h27.45.466,oddball,2022.1.2,59.83502298369197,
5,,,,,0,0,0,1,9,0,9,0,9,0,9,0,,,,,,,,,,,,,,,,,1033.1049295002595,None,1033.821420500055,1034.5550986998715,1034.5217965999618,1036.5225590001792,None,0,0.7306917998939753,2.7314729001373053,increament,0.72,16,oddball,j,120,,,,,,,,m,22,215,fr,r,0,raw,2022-05-30_10h27.45.466,oddball,2022.1.2,59.83502298369197,
5,,,,,0,0,0,1,9,0,9,0,10,0,10,0,,,,,,,,,,,,,,,,,1036.5395464999601,None,1037.173215399962,1037.7728932001628,1037.7563144001178,1039.7574976002797,None,1,0.6101799998432398,2.6114306999370456,increament,0.6,15,standard,None,100,,,,,,,,m,22,215,fr,r,0,raw,2022-05-30_10h27.45.466,oddball,2022.1.2,59.83502298369197,
5,,,,,0,0,0,1,9,0,9,0,11,0,11,0,,,,,,,,,,,,,,,,,1039.7738657002337,None,1040.4910440002568,1041.0909480000846,1041.0747668002732,1043.0753494002856,None,1,0.6101522003300488,2.610665200278163,increament,0.6,15,standard,None,100,,,,,,,,m,22,215,fr,r,0,raw,2022-05-30_10h27.45.466,oddball,2022.1.2,59.83502298369197,
5,,,,,0,0,0,1,9,0,9,0,12,0,12,0,,,,,,,,,,,,,,,,,1043.0919540002942,None,1043.7252859999426,1044.3253995003179,1044.3091672002338,1046.3095831000246,None,1,0.6131078000180423,2.6134852999821305,increament,0.6,15,standard,None,100,,,,,,,,m,22,215,fr,r,0,raw,2022-05-30_10h27.45.466,oddball,2022.1.2,59.83502298369197,
5,,,,,0,0,0,1,9,0,9,0,13,0,13,0,,,,,,,,,,,,,,,,,1046.326457399875,None,1047.0935845999047,1047.6935745002702,1047.676781900227,1049.677526500076,None,1,0.6111548002809286,2.6119226003065705,increament,0.6,15,standard,None,100,,,,,,,,m,22,215,fr,r,0,raw,2022-05-30_10h27.45.466,oddball,2022.1.2,59.83502298369197,
5,,,,,0,0,0,1,9,0,9,0,14,0,14,0,,,,,,,,,,,,,,,,,1049.6944348001853,None,1050.4449005001225,1051.2945941002108,1051.261705600191,1053.262259399984,j,1,0.8439898993819952,2.844494399614632,increament,0.84,17,oddball,j,140,0.42920259991660714,,,,,,,m,22,215,fr,r,0,raw,2022-05-30_10h27.45.466,oddball,2022.1.2,59.83502298369197,
5,,,,,0,0,0,1,9,0,9,0,15,0,15,0,,,,,,,,,,,,,,,,,1053.279302299954,None,1053.8792039002292,1054.4792611999437,1054.4629452000372,1056.4636126998812,None,1,0.6140573001466691,2.614764300175011,increament,0.6,15,standard,None,100,,,,,,,,m,22,215,fr,r,0,raw,2022-05-30_10h27.45.466,oddball,2022.1.2,59.83502298369197,
5,,,,,0,0,0,1,9,0,9,0,16,0,16,0,,,,,,,,,,,,,,,,,1056.480073099956,None,1057.0305794002488,1057.6309040002525,1057.614099800121,1059.6150938002393,None,1,0.6127098998986185,2.613710000179708,increament,0.6,15,standard,None,100,,,,,,,,m,22,215,fr,r,0,raw,2022-05-30_10h27.45.466,oddball,2022.1.2,59.83502298369197,
5,,,,,0,0,0,1,9,0,9,0,17,0,17,0,,,,,,,,,,,,,,,,,1059.6320174001157,None,1060.4818744999357,1061.08202229999,1061.0653208000585,1063.0659357002005,None,1,0.6119479001499712,2.6125468001700938,increament,0.6,15,standard,None,100,,,,,,,,m,22,215,fr,r,0,raw,2022-05-30_10h27.45.466,oddball,2022.1.2,59.83502298369197,
5,,,,,0,0,0,1,9,0,9,0,18,0,18,0,,,,,,,,,,,,,,,,,1063.0831182003021,None,1063.799874600023,1064.3998735998757,1064.3834040001966,1066.3839008002542,None,1,0.6123565998859704,2.612764099612832,increament,0.6,15,standard,None,100,,,,,,,,m,22,215,fr,r,0,raw,2022-05-30_10h27.45.466,oddball,2022.1.2,59.83502298369197,
5,,,,,0,0,0,1,9,0,9,0,19,0,19,0,,,,,,,,,,,,,,,,,1066.4007077999413,None,1067.0846677999943,1067.6844048001803,1067.6679635001346,1069.6686376999132,None,1,0.6104386998340487,2.6111441999673843,increament,0.6,15,standard,None,100,,,,,,,,m,22,215,fr,r,0,raw,2022-05-30_10h27.45.466,oddball,2022.1.2,59.83502298369197,
5,,,,,0,0,0,1,9,0,9,0,20,0,20,0,,,,,,,,,,,,,,,,,1069.6853434001096,None,1070.318874699995,1071.2858418002725,1071.2526557003148,1073.2536631999537,j,1,0.9631467000581324,2.9642197000794113,increament,0.96,18,oddball,j,160,0.6940204999409616,,,,,,,m,22,215,fr,r,0,raw,2022-05-30_10h27.45.466,oddball,2022.1.2,59.83502298369197,
5,,,,,0,0,0,1,9,0,9,0,21,0,21,0,,,,,,,,,,,,,,,,,1073.271827599965,None,1073.9698900999501,1074.570520200301,1074.5538087002933,1076.5547557002865,None,1,0.6140719000250101,2.6151142003946006,increament,0.6,15,standard,None,100,,,,,,,,m,22,215,fr,r,0,raw,2022-05-30_10h27.45.466,oddball,2022.1.2,59.83502298369197,
5,,,,,0,0,0,1,9,0,9,0,22,0,22,0,,,,,,,,,,,,,,,,,1076.5717874001712,None,1077.3219654001296,1077.9216710003093,1077.9050366003066,1079.9057461000048,None,1,0.6121991002000868,2.6129109002649784,increament,0.6,15,standard,None,100,,,,,,,,m,22,215,fr,r,0,raw,2022-05-30_10h27.45.466,oddball,2022.1.2,59.83502298369197,
5,,,,,0,0,0,1,9,0,9,0,23,0,23,0,,,,,,,,,,,,,,,,,1079.9224324999377,None,1080.4726987001486,1081.0733945001848,1081.0565288001671,1083.0569004002027,None,1,0.6116961999796331,2.6119880001060665,increament,0.6,15,standard,None,100,,,,,,,,m,22,215,fr,r,0,raw,2022-05-30_10h27.45.466,oddball,2022.1.2,59.83502298369197,
5,,,,,0,0,0,1,9,0,9,0,24,0,24,0,,,,,,,,,,,,,,,,,1083.0736132999882,None,1083.707101299893,1084.3075147001073,1084.2908232999034,1086.2916387002915,None,1,0.6128516006283462,2.613703800365329,increament,0.6,15,standard,None,100,,,,,,,,m,22,215,fr,r,0,raw,2022-05-30_10h27.45.466,oddball,2022.1.2,59.83502298369197,
5,,,,,0,0,0,1,9,0,9,0,25,0,25,0,,,,,,,,,,,,,,,,,1086.3083206000738,None,1087.0081378999166,1087.6085370001383,1087.59222640004,1089.592978300061,None,1,0.6149257998913527,2.615711399819702,increament,0.6,15,standard,None,100,,,,,,,,m,22,215,fr,r,0,raw,2022-05-30_10h27.45.466,oddball,2022.1.2,59.83502298369197,
5,,,,,0,0,0,1,9,0,9,0,26,0,26,0,,,,,,,,,,,,,,,,,1089.6094023003243,None,1090.2596132000908,1090.859797500074,1090.843123599887,1092.8440634999424,None,1,0.6120895994827151,2.613073699641973,increament,0.6,15,standard,None,100,,,,,,,,m,22,215,fr,r,0,raw,2022-05-30_10h27.45.466,oddball,2022.1.2,59.83502298369197,
5,,,,,0,0,0,1,9,0,9,0,27,0,27,0,,,,,,,,,,,,,,,,,1092.8607560000382,None,1093.6780411000364,1094.2778024999425,1094.2610825002193,1096.2619389002211,None,1,0.6096061002463102,2.6104492000304163,increament,0.6,15,standard,None,100,,,,,,,,m,22,215,fr,r,0,raw,2022-05-30_10h27.45.466,oddball,2022.1.2,59.83502298369197,
5,,,,,0,0,0,1,9,0,9,0,28,0,28,0,,,,,,,,,,,,,,,,,1096.2784951003268,None,1096.9455840000883,1097.5457763001323,1097.5290850000456,1099.5300652002916,None,1,0.6093622008338571,2.6104204007424414,increament,0.6,15,standard,None,100,,,,,,,,m,22,215,fr,r,0,raw,2022-05-30_10h27.45.466,oddball,2022.1.2,59.83502298369197,
5,,,,,0,0,0,1,9,0,9,0,29,0,29,0,,,,,,,,,,,,,,,,,1099.5468083000742,None,1100.1301088999026,1100.73017850006,1100.7137269000523,1102.7147686001845,None,1,0.6119705000892282,2.61307069985196,increament,0.6,15,standard,None,100,,,,,,,,m,22,215,fr,r,0,raw,2022-05-30_10h27.45.466,oddball,2022.1.2,59.83502298369197,
20,,,,,0,1,1,3,0,0,0,0,0,0,0,0,,,,,,,,,,,,,,,1397.875853900332,None,1400.7939528003335,None,1401.5608433000743,1402.1609026999213,1402.1443580002524,1404.1452347999439,None,1,0.611625300720334,2.61254750052467,decreament,0.6,41,standard,None,100,,1282.7659559003077,None,1102.7566761001945,None,,,m,22,215,fr,r,0,raw,2022-05-30_10h27.45.466,oddball,2022.1.2,59.83502298369197,
20,,,,,0,1,1,3,0,0,0,0,1,0,1,0,,,,,,,,,,,,,,,,,1404.1620869999751,None,1404.679022599943,1405.2791814999655,1405.262357099913,1407.2631236999296,None,1,0.6108282003551722,2.6115875001996756,decreament,0.6,41,standard,None,100,,,,,,,,m,22,215,fr,r,0,raw,2022-05-30_10h27.45.466,oddball,2022.1.2,59.83502298369197,
20,,,,,0,1,1,3,0,0,0,0,2,0,2,0,,,,,,,,,,,,,,,,,1407.2797079999,None,1407.8964945999905,1408.4970142999664,1408.4802864002995,1410.4809552999213,None,1,0.6125188004225492,2.6131748002953827,decreament,0.6,41,standard,None,100,,,,,,,,m,22,215,fr,r,0,raw,2022-05-30_10h27.45.466,oddball,2022.1.2,59.83502298369197,
20,,,,,0,1,1,3,0,0,0,0,3,0,3,0,,,,,,,,,,,,,,,,,1410.4977044002153,None,1411.1977631002665,1411.7980224001221,1411.7815844998695,1413.782135100104,None,1,0.6130690001882613,2.6135920002125204,decreament,0.6,41,standard,None,100,,,,,,,,m,22,215,fr,r,0,raw,2022-05-30_10h27.45.466,oddball,2022.1.2,59.83502298369197,
20,,,,,0,1,1,3,0,0,0,0,4,0,4,0,,,,,,,,,,,,,,,,,1413.7986635998823,None,1414.4495721999556,1415.0495532001369,1415.0327475001104,1417.0337836002,None,1,0.6094045001082122,2.61052370024845,decreament,0.6,41,standard,None,100,,,,,,,,m,22,215,fr,r,0,raw,2022-05-30_10h27.45.466,oddball,2022.1.2,59.83502298369197,
20,,,,,0,1,1,3,0,0,0,0,5,0,5,0,,,,,,,,,,,,,,,,,1417.050092200283,None,1417.8003977001645,1418.4008305002935,1418.384394099936,1420.384810599964,None,1,0.6139268996194005,2.614320899825543,decreament,0.6,41,standard,None,100,,,,,,,,m,22,215,fr,r,0,raw,2022-05-30_10h27.45.466,oddball,2022.1.2,59.83502298369197,
20,,,,,0,1,1,3,0,0,0,0,6,0,6,0,,,,,,,,,,,,,,,,,1420.4016513000242,None,1421.0021347003058,1421.6015798002481,1421.5850090999156,1423.5859942003153,None,1,0.6094149998389184,2.6104331999085844,decreament,0.6,41,standard,None,100,,,,,,,,m,22,215,fr,r,0,raw,2022-05-30_10h27.45.466,oddball,2022.1.2,59.83502298369197,
20,,,,,0,1,1,3,0,0,0,0,7,0,7,0,,,,,,,,,,,,,,,,,1423.6024831002578,None,1424.1527948998846,1424.7530966000631,1424.7363471998833,1426.7371527003124,None,1,0.6120970002375543,2.6129338000901043,decreament,0.6,41,standard,None,100,,,,,,,,m,22,215,fr,r,0,raw,2022-05-30_10h27.45.466,oddball,2022.1.2,59.83502298369197,
20,,,,,0,1,1,3,0,0,0,0,8,0,8,0,,,,,,,,,,,,,,,,,1426.753856100142,None,1427.3874049000442,1427.987647099886,1427.9709486002102,1429.971837299876,None,1,0.6132767000235617,2.6142306001856923,decreament,0.6,41,standard,None,100,,,,,,,,m,22,215,fr,r,0,raw,2022-05-30_10h27.45.466,oddball,2022.1.2,59.83502298369197,
20,,,,,0,1,1,3,0,0,0,0,9,0,9,0,,,,,,,,,,,,,,,,,1429.9884027000517,None,1430.5886953002773,1431.1888715000823,1431.172368899919,1433.1730658998713,None,1,0.6115047996863723,2.612177100032568,decreament,0.6,41,standard,None,100,,,,,,,,m,22,215,fr,r,0,raw,2022-05-30_10h27.45.466,oddball,2022.1.2,59.83502298369197,
20,,,,,0,1,1,3,0,0,0,0,10,0,10,0,,,,,,,,,,,,,,,,,1433.1897598002106,None,1433.8232662002556,1434.4232514998876,1434.4072329001501,1436.4075398999266,None,1,0.6121024000458419,2.6123520000837743,decreament,0.6,41,standard,None,100,,,,,,,,m,22,215,fr,r,0,raw,2022-05-30_10h27.45.466,oddball,2022.1.2,59.83502298369197,
20,,,,,0,1,1,3,0,0,0,0,11,0,11,0,,,,,,,,,,,,,,,,,1436.4241965003312,None,1437.0575744002126,1437.3076285002753,1437.2745030000806,1439.2751687001437,j,1,0.2456314996816218,2.2463228995911777,decreament,0.24,42,oddball,j,40,0.7022681999951601,,,,,,,m,22,215,fr,r,0,raw,2022-05-30_10h27.45.466,oddball,2022.1.2,59.83502298369197,
20,,,,,0,1,1,3,0,0,0,0,12,0,12,0,,,,,,,,,,,,,,,,,1439.2919509001076,None,1439.8753412002698,1440.4757197001018,1440.4591101999395,1442.4595964001492,None,1,0.6099718003533781,2.6103830002248287,decreament,0.6,41,standard,None,100,,,,,,,,m,22,215,fr,r,0,raw,2022-05-30_10h27.45.466,oddball,2022.1.2,59.83502298369197,
20,,,,,0,1,1,3,0,0,0,0,13,0,13,0,,,,,,,,,,,,,,,,,1442.476203400176,None,1443.2599836001173,1443.8600706001744,1443.8437029002234,1445.8443673001602,None,1,0.6126898997463286,2.6133606997318566,decreament,0.6,41,standard,None,100,,,,,,,,m,22,215,fr,r,0,raw,2022-05-30_10h27.45.466,oddball,2022.1.2,59.83502298369197,
20,,,,,0,1,1,3,0,0,0,0,14,0,14,0,,,,,,,,,,,,,,,,,1445.860991100315,None,1446.4612222001888,1447.0613675001077,1447.0446528000757,1449.0455273003317,None,1,0.6120459004305303,2.612985500600189,decreament,0.6,41,standard,None,100,,,,,,,,m,22,215,fr,r,0,raw,2022-05-30_10h27.45.466,oddball,2022.1.2,59.83502298369197,
