grating_freq,blocks_prac.thisRepN,blocks_prac.thisTrialN,blocks_prac.thisN,blocks_prac.thisIndex,blocks.thisRepN,blocks.thisTrialN,blocks.thisN,blocks.thisIndex,repeat_freq.thisRepN,repeat_freq.thisTrialN,repeat_freq.thisN,repeat_freq.thisIndex,trials.thisRepN,trials.thisTrialN,trials.thisN,trials.thisIndex,break_loop.thisRepN,break_loop.thisTrialN,break_loop.thisN,break_loop.thisIndex,rest_loop.thisRepN,rest_loop.thisTrialN,rest_loop.thisN,rest_loop.thisIndex,instruct_prac_text.started,instruct_prac_text.stopped,b_instruct_text_2_.started,b_instruct_text_2_.stopped,prac_done_text.started,prac_done_text.stopped,instruct_text.started,instruct_text.stopped,fixation.started,fixation.stopped,grating.started,grating.stopped,blank.started,blank.stopped,resp.keys,resp.corr,resp.started,resp.stopped,direction,duration,trigger,stim_type,corr_ans,scaling,resp.rt,rest_text.started,rest_text.stopped,text_2.started,text_2.stopped,thx_txt.started,thx_txt.stopped,gender,age,participant,language,main_hand,nBlock_prac,file_suffix,date,expName,psychopyVersion,frameRate,
10,,,,,0,0,0,2,0,0,0,0,0,0,0,0,,,,,,,,,25.742241099942476,None,31.80185929965228,None,37.09059870010242,None,40.21678570006043,None,47.607470399700105,None,48.177037899848074,48.791124700102955,48.74141199979931,50.74230289971456,None,1,0.6132995304651558,2.614176530390978,increament,0.6,25,standard,None,100,,,,,,,,f,21,216,fr,r,0,raw,2022-05-31_10h06.04.061,oddball,2022.1.2,60.025919207589,
10,,,,,0,0,0,2,0,0,0,0,1,0,1,0,,,,,,,,,,,,,,,,,50.7589165000245,None,51.50942609971389,52.109453700017184,52.09291859995574,54.093477899674326,None,1,0.6116793304681778,2.612061530351639,increament,0.6,25,standard,None,100,,,,,,,,f,21,216,fr,r,0,raw,2022-05-31_10h06.04.061,oddball,2022.1.2,60.025919207589,
10,,,,,0,0,0,2,0,0,0,0,2,0,2,0,,,,,,,,,,,,,,,,,54.10981809999794,None,54.74397519975901,55.343782499898225,55.32755309995264,57.32781989965588,None,1,0.6092223301529884,2.609451330266893,increament,0.6,25,standard,None,100,,,,,,,,f,21,216,fr,r,0,raw,2022-05-31_10h06.04.061,oddball,2022.1.2,60.025919207589,
10,,,,,0,0,0,2,0,0,0,0,3,0,3,0,,,,,,,,,,,,,,,,,57.34487579995766,None,58.06183829996735,58.661615899764,58.64504669979215,60.64569030003622,None,1,0.6105658300220966,2.6112294299528003,increament,0.6,25,standard,None,100,,,,,,,,f,21,216,fr,r,0,raw,2022-05-31_10h06.04.061,oddball,2022.1.2,60.025919207589,
10,,,,,0,0,0,2,0,0,0,0,4,0,4,0,,,,,,,,,,,,,,,,,60.66260079992935,None,61.2963211000897,61.896265800110996,61.87981709977612,63.88017279980704,None,1,0.6128262304700911,2.6131771304644644,increament,0.6,25,standard,None,100,,,,,,,,f,21,216,fr,r,0,raw,2022-05-31_10h06.04.061,oddball,2022.1.2,60.025919207589,
10,,,,,0,0,0,2,0,0,0,0,5,0,5,0,,,,,,,,,,,,,,,,,63.89682949986309,None,64.49735789978877,65.09757319977507,65.08065079990774,67.08167009986937,None,1,0.6109350300393999,2.611977430060506,increament,0.6,25,standard,None,100,,,,,,,,f,21,216,fr,r,0,raw,2022-05-31_10h06.04.061,oddball,2022.1.2,60.025919207589,
10,,,,,0,0,0,2,0,0,0,0,6,0,6,0,,,,,,,,,,,,,,,,,67.09830669965595,None,67.68167879991233,68.2821448999457,68.26549689983949,70.26625999994576,None,1,0.6143938298337162,2.615155729930848,increament,0.6,25,standard,None,100,,,,,,,,f,21,216,fr,r,0,raw,2022-05-31_10h06.04.061,oddball,2022.1.2,60.025919207589,
10,,,,,0,0,0,2,0,0,0,0,7,0,7,0,,,,,,,,,,,,,,,,,70.28258490003645,None,70.91659200005233,71.51669189985842,71.50036499975249,73.50120060006157,j,0,0.6100740297697484,2.6109124296344817,increament,0.6,25,standard,None,100,0.8940099002793431,,,,,,,f,21,216,fr,r,0,raw,2022-05-31_10h06.04.061,oddball,2022.1.2,60.025919207589,
10,,,,,0,0,0,2,0,0,0,0,8,0,8,0,,,,,,,,,,,,,,,,,73.51960420003161,None,74.13396799983457,74.73420079983771,74.71790869999677,76.71849959995598,None,1,0.6133109303191304,2.6139317299239337,increament,0.6,25,standard,None,100,,,,,,,,f,21,216,fr,r,0,raw,2022-05-31_10h06.04.061,oddball,2022.1.2,60.025919207589,
10,,,,,0,0,0,2,0,0,0,0,9,0,9,0,,,,,,,,,,,,,,,,,76.73539969976991,None,77.46906709996983,78.06892509991303,78.052203099709,80.05324889998883,None,1,0.612144130282104,2.6132664303295314,increament,0.6,25,standard,None,100,,,,,,,,f,21,216,fr,r,0,raw,2022-05-31_10h06.04.061,oddball,2022.1.2,60.025919207589,
10,,,,,0,0,0,2,0,0,0,0,10,0,10,0,,,,,,,,,,,,,,,,,80.07083849981427,None,80.68692959984764,81.28693039994687,81.27073119999841,83.27092669997364,None,1,0.6120643299072981,2.612195929978043,increament,0.6,25,standard,None,100,,,,,,,,f,21,216,fr,r,0,raw,2022-05-31_10h06.04.061,oddball,2022.1.2,60.025919207589,
10,,,,,0,0,0,2,0,0,0,0,11,0,11,0,,,,,,,,,,,,,,,,,83.28764100000262,None,84.0219087000005,84.62132979976013,84.60464969975874,86.60630120011047,None,1,0.6117186304181814,2.6134696300141513,increament,0.6,25,standard,None,100,,,,,,,,f,21,216,fr,r,0,raw,2022-05-31_10h06.04.061,oddball,2022.1.2,60.025919207589,
10,,,,,0,0,0,2,0,0,0,0,12,0,12,0,,,,,,,,,,,,,,,,,86.62388690002263,None,87.38944529974833,87.98937389999628,87.97292759967968,89.97387089999393,j,0,0.6096714301966131,2.610697530210018,increament,0.6,25,standard,None,100,0.6373680997639894,,,,,,,f,21,216,fr,r,0,raw,2022-05-31_10h06.04.061,oddball,2022.1.2,60.025919207589,
10,,,,,0,0,0,2,0,0,0,0,13,0,13,0,,,,,,,,,,,,,,,,,89.99177289986983,None,90.69071069965139,91.29052429972216,91.2739498000592,93.27487380011007,None,1,0.6122403298504651,2.613177129998803,increament,0.6,25,standard,None,100,,,,,,,,f,21,216,fr,r,0,raw,2022-05-31_10h06.04.061,oddball,2022.1.2,60.025919207589,
10,,,,,0,0,0,2,0,0,0,0,14,0,14,0,,,,,,,,,,,,,,,,,93.29147849977016,None,93.84173779981211,94.44200660008937,94.42536820005625,96.42629309976473,None,1,0.6104075298644602,2.61143943015486,increament,0.6,25,standard,None,100,,,,,,,,f,21,216,fr,r,0,raw,2022-05-31_10h06.04.061,oddball,2022.1.2,60.025919207589,
10,,,,,0,0,0,2,0,0,0,0,15,0,15,0,,,,,,,,,,,,,,,,,96.44339819997549,None,97.00966920005158,97.60964970011264,97.59313869988546,99.59386029979214,None,1,0.610832929611206,2.611596329603344,increament,0.6,25,standard,None,100,,,,,,,,f,21,216,fr,r,0,raw,2022-05-31_10h06.04.061,oddball,2022.1.2,60.025919207589,
10,,,,,0,0,0,2,0,0,0,0,16,0,16,0,,,,,,,,,,,,,,,,,99.61058479966596,None,100.17733389977366,101.02778110001236,100.99449099972844,102.99515459965914,j,1,0.8473082301206887,2.848011830355972,increament,0.84,27,oddball,j,140,0.671254999935627,,,,,,,f,21,216,fr,r,0,raw,2022-05-31_10h06.04.061,oddball,2022.1.2,60.025919207589,
10,,,,,0,0,0,2,0,0,0,0,17,0,17,0,,,,,,,,,,,,,,,,,103.01199909998104,None,103.74544620001689,104.34584049973637,104.32917629973963,106.32973210001364,None,1,0.6125833299010992,2.6130680297501385,increament,0.6,25,standard,None,100,,,,,,,,f,21,216,fr,r,0,raw,2022-05-31_10h06.04.061,oddball,2022.1.2,60.025919207589,
10,,,,,0,0,0,2,0,0,0,0,18,0,18,0,,,,,,,,,,,,,,,,,106.34656130010262,None,107.11322699999437,107.71347029972821,107.69683199981228,109.69789210008457,None,1,0.6139321299269795,2.61507262988016,increament,0.6,25,standard,None,100,,,,,,,,f,21,216,fr,r,0,raw,2022-05-31_10h06.04.061,oddball,2022.1.2,60.025919207589,
10,,,,,0,0,0,2,0,0,0,0,19,0,19,0,,,,,,,,,,,,,,,,,109.71428309986368,None,110.3314310000278,110.93162899976596,110.91500249970704,112.91533649992198,None,1,0.6106923297047615,2.610998429823667,increament,0.6,25,standard,None,100,,,,,,,,f,21,216,fr,r,0,raw,2022-05-31_10h06.04.061,oddball,2022.1.2,60.025919207589,
10,,,,,0,0,0,2,0,0,0,0,20,0,20,0,,,,,,,,,,,,,,,,,112.9322476000525,None,113.58248299965635,114.18250769982114,114.16599510004744,116.16678819991648,None,1,0.6123008299618959,2.613110729958862,increament,0.6,25,standard,None,100,,,,,,,,f,21,216,fr,r,0,raw,2022-05-31_10h06.04.061,oddball,2022.1.2,60.025919207589,
10,,,,,0,0,0,2,0,0,0,0,21,0,21,0,,,,,,,,,,,,,,,,,116.18352809967473,None,117.01721419999376,117.98418439971283,117.95087829977274,119.9514419999905,j,1,0.9613848300650716,2.961950429715216,increament,0.96,28,oddball,j,160,0.45180269982665777,,,,,,,f,21,216,fr,r,0,raw,2022-05-31_10h06.04.061,oddball,2022.1.2,60.025919207589,
10,,,,,0,0,0,2,0,0,0,0,22,0,22,0,,,,,,,,,,,,,,,,,119.96846769982949,None,120.5684929001145,121.16840009996668,121.15249340003356,123.15253440011293,None,1,0.6118088299408555,2.6117294300347567,increament,0.6,25,standard,None,100,,,,,,,,f,21,216,fr,r,0,raw,2022-05-31_10h06.04.061,oddball,2022.1.2,60.025919207589,
10,,,,,0,0,0,2,0,0,0,0,23,0,23,0,,,,,,,,,,,,,,,,,123.1692407997325,None,123.92000909987837,124.52022469975054,124.50334679987282,126.50378839997575,None,1,0.612728230189532,2.6130876298993826,increament,0.6,25,standard,None,100,,,,,,,,f,21,216,fr,r,0,raw,2022-05-31_10h06.04.061,oddball,2022.1.2,60.025919207589,
10,,,,,0,0,0,2,0,0,0,0,24,0,24,0,,,,,,,,,,,,,,,,,126.52099550003186,None,127.15414269967005,127.7546815997921,127.73795079998672,129.73883399972692,None,1,0.6123237297870219,2.6132901296950877,increament,0.6,25,standard,None,100,,,,,,,,f,21,216,fr,r,0,raw,2022-05-31_10h06.04.061,oddball,2022.1.2,60.025919207589,
10,,,,,0,0,0,2,0,0,0,0,25,0,25,0,,,,,,,,,,,,,,,,,129.75547359976918,None,130.38923469977453,131.12227119971067,131.0889864997007,133.08999289991334,None,0,0.7245379299856722,2.725591729860753,increament,0.72,26,oddball,j,120,,,,,,,,f,21,216,fr,r,0,raw,2022-05-31_10h06.04.061,oddball,2022.1.2,60.025919207589,
10,,,,,0,0,0,2,0,0,0,0,26,0,26,0,,,,,,,,,,,,,,,,,133.10679599968717,None,133.73983989981934,134.34035310009494,134.3238119999878,136.32438190001994,None,1,0.6136017302051187,2.6141332304105163,increament,0.6,25,standard,None,100,,,,,,,,f,21,216,fr,r,0,raw,2022-05-31_10h06.04.061,oddball,2022.1.2,60.025919207589,
10,,,,,0,0,0,2,0,0,0,0,27,0,27,0,,,,,,,,,,,,,,,,,136.34083319967613,None,136.95820719981566,137.5584116000682,137.54207069985569,139.54232829995453,None,1,0.6133579299785197,2.6135479300282896,increament,0.6,25,standard,None,100,,,,,,,,f,21,216,fr,r,0,raw,2022-05-31_10h06.04.061,oddball,2022.1.2,60.025919207589,
10,,,,,0,0,0,2,0,0,0,0,28,0,28,0,,,,,,,,,,,,,,,,,139.55915670003742,None,140.25920179998502,140.8594349999912,140.8430479997769,142.84392410004511,None,1,0.6139132305979729,2.6148248305544257,increament,0.6,25,standard,None,100,,,,,,,,f,21,216,fr,r,0,raw,2022-05-31_10h06.04.061,oddball,2022.1.2,60.025919207589,
10,,,,,0,0,0,2,0,0,0,0,29,0,29,0,,,,,,,,,,,,,,,,,142.8611010001041,None,143.37690589996055,143.97720049973577,143.96079250006005,145.96131529984996,None,1,0.6135760298930109,2.6140892300754786,increament,0.6,25,standard,None,100,,,,,,,,f,21,216,fr,r,0,raw,2022-05-31_10h06.04.061,oddball,2022.1.2,60.025919207589,
10,,,,,0,0,0,2,1,0,1,0,0,0,0,0,,,,,,,,,,,,,,,155.05807129992172,None,158.6993622998707,None,159.38315279968083,159.9834312996827,159.96687239967287,161.96758279995993,None,1,0.6125195301137865,2.613299329765141,decreament,0.6,21,standard,None,100,,145.97812889982015,None,,,,,f,21,216,fr,r,0,raw,2022-05-31_10h06.04.061,oddball,2022.1.2,60.025919207589,
10,,,,,0,0,0,2,1,0,1,0,1,0,1,0,,,,,,,,,,,,,,,,,161.98392609972507,None,162.71808229992166,163.31789120007306,163.30115519976243,165.301950099878,None,1,0.609504830557853,2.6103036305867136,decreament,0.6,21,standard,None,100,,,,,,,,f,21,216,fr,r,0,raw,2022-05-31_10h06.04.061,oddball,2022.1.2,60.025919207589,
10,,,,,0,0,0,2,1,0,1,0,2,0,2,0,,,,,,,,,,,,,,,,,165.318771999795,None,165.88586389971897,166.48582240007818,166.46970399981365,168.46988780004904,None,1,0.609825829975307,2.609937929548323,decreament,0.6,21,standard,None,100,,,,,,,,f,21,216,fr,r,0,raw,2022-05-31_10h06.04.061,oddball,2022.1.2,60.025919207589,
10,,,,,0,0,0,2,1,0,1,0,3,0,3,0,,,,,,,,,,,,,,,,,168.48653229977936,None,169.00336440000683,169.60357989976183,169.58726059971377,171.58783510001376,None,1,0.6128916298039258,2.6133997295983136,decreament,0.6,21,standard,None,100,,,,,,,,f,21,216,fr,r,0,raw,2022-05-31_10h06.04.061,oddball,2022.1.2,60.025919207589,
10,,,,,0,0,0,2,1,0,1,0,4,0,4,0,,,,,,,,,,,,,,,,,171.60451159998775,None,172.23890100000426,172.83826839970425,172.8215840999037,174.82225299999118,None,1,0.6073172297328711,2.6079848296940327,decreament,0.6,21,standard,None,100,,,,,,,,f,21,216,fr,r,0,raw,2022-05-31_10h06.04.061,oddball,2022.1.2,60.025919207589,
10,,,,,0,0,0,2,1,0,1,0,5,0,5,0,,,,,,,,,,,,,,,,,174.8391138999723,None,175.422635700088,176.02319489978254,176.0063591999933,178.00719669973478,None,1,0.6123771304264665,2.613193230237812,decreament,0.6,21,standard,None,100,,,,,,,,f,21,216,fr,r,0,raw,2022-05-31_10h06.04.061,oddball,2022.1.2,60.025919207589,
10,,,,,0,0,0,2,1,0,1,0,6,0,6,0,,,,,,,,,,,,,,,,,178.0238787997514,None,178.75743019999936,179.35748460004106,179.34087370010093,181.3416651999578,None,1,0.6094637303613126,2.610312030185014,decreament,0.6,21,standard,None,100,,,,,,,,f,21,216,fr,r,0,raw,2022-05-31_10h06.04.061,oddball,2022.1.2,60.025919207589,
10,,,,,0,0,0,2,1,0,1,0,7,0,7,0,,,,,,,,,,,,,,,,,181.35852660005912,None,181.92534080008045,182.52530129998922,182.50899169966578,184.50974270002916,None,1,0.6100485301576555,2.610901730135083,decreament,0.6,21,standard,None,100,,,,,,,,f,21,216,fr,r,0,raw,2022-05-31_10h06.04.061,oddball,2022.1.2,60.025919207589,
10,,,,,0,0,0,2,1,0,1,0,8,0,8,0,,,,,,,,,,,,,,,,,184.5278920000419,None,185.12686900002882,185.7265996998176,185.70969159994274,187.7109427996911,None,1,0.6105551300570369,2.611853930167854,decreament,0.6,21,standard,None,100,,,,,,,,f,21,216,fr,r,0,raw,2022-05-31_10h06.04.061,oddball,2022.1.2,60.025919207589,
10,,,,,0,0,0,2,1,0,1,0,9,0,9,0,,,,,,,,,,,,,,,,,187.7285414999351,None,188.41061979997903,189.0110687999986,188.99445819994435,190.99499189993367,None,1,0.6127264304086566,2.613238130696118,decreament,0.6,21,standard,None,100,,,,,,,,f,21,216,fr,r,0,raw,2022-05-31_10h06.04.061,oddball,2022.1.2,60.025919207589,
10,,,,,0,0,0,2,1,0,1,0,10,0,10,0,,,,,,,,,,,,,,,,,191.0119177000597,None,191.6119574001059,192.211954199709,192.19543519988656,194.19650009972975,None,1,0.6128050298430026,2.6139182299375534,decreament,0.6,21,standard,None,100,,,,,,,,f,21,216,fr,r,0,raw,2022-05-31_10h06.04.061,oddball,2022.1.2,60.025919207589,
10,,,,,0,0,0,2,1,0,1,0,11,0,11,0,,,,,,,,,,,,,,,,,194.21303099999204,None,194.9969231998548,195.4803402000107,195.46372770005837,197.4642584999092,None,0,0.4953946294263005,2.4949115295894444,decreament,0.48,24,oddball,j,80,,,,,,,,f,21,216,fr,r,0,raw,2022-05-31_10h06.04.061,oddball,2022.1.2,60.025919207589,
10,,,,,0,0,0,2,1,0,1,0,12,0,12,0,,,,,,,,,,,,,,,,,197.48165739979595,None,198.0647132997401,198.66462690010667,198.64810879994184,200.64865259965882,None,1,0.6092997300438583,2.609833729919046,decreament,0.6,21,standard,None,100,,,,,,,,f,21,216,fr,r,0,raw,2022-05-31_10h06.04.061,oddball,2022.1.2,60.025919207589,
10,,,,,0,0,0,2,1,0,1,0,13,0,13,0,,,,,,,,,,,,,,,,,200.66552140004933,None,201.29923320002854,201.8991662999615,201.88262889999896,203.88340670010075,None,1,0.6118936305865645,2.6126613304950297,decreament,0.6,21,standard,None,100,,,,,,,,f,21,216,fr,r,0,raw,2022-05-31_10h06.04.061,oddball,2022.1.2,60.025919207589,
10,,,,,0,0,0,2,1,0,1,0,14,0,14,0,,,,,,,,,,,,,,,,,203.89981349976733,None,204.63385060010478,205.2337953997776,205.21730619994923,207.2177633997053,None,1,0.6105761295184493,2.611013629473746,decreament,0.6,21,standard,None,100,,,,,,,,f,21,216,fr,r,0,raw,2022-05-31_10h06.04.061,oddball,2022.1.2,60.025919207589,
10,,,,,0,0,0,2,1,0,1,0,15,0,15,0,,,,,,,,,,,,,,,,,207.23476339969784,None,207.9182959999889,208.5184343997389,208.50185759970918,210.50256229983643,None,1,0.6127724298276007,2.613488629925996,decreament,0.6,21,standard,None,100,,,,,,,,f,21,216,fr,r,0,raw,2022-05-31_10h06.04.061,oddball,2022.1.2,60.025919207589,
10,,,,,0,0,0,2,1,0,1,0,16,0,16,0,,,,,,,,,,,,,,,,,210.51931739971042,None,211.2198489997536,211.8196860998869,211.80306460009888,213.80387179972604,None,1,0.6124642300419509,2.613266529981047,decreament,0.6,21,standard,None,100,,,,,,,,f,21,216,fr,r,0,raw,2022-05-31_10h06.04.061,oddball,2022.1.2,60.025919207589,
10,,,,,0,0,0,2,1,0,1,0,17,0,17,0,,,,,,,,,,,,,,,,,213.82058969978243,None,214.52086669998243,215.12101139966398,215.10455789975822,217.10516849998385,None,1,0.610600030515343,2.611181730404496,decreament,0.6,21,standard,None,100,,,,,,,,f,21,216,fr,r,0,raw,2022-05-31_10h06.04.061,oddball,2022.1.2,60.025919207589,
10,,,,,0,0,0,2,1,0,1,0,18,0,18,0,,,,,,,,,,,,,,,,,217.12159009976313,None,217.83817359991372,218.43892639968544,218.42210999969393,220.42326710000634,None,1,0.6150778303854167,2.6163228303194046,decreament,0.6,21,standard,None,100,,,,,,,,f,21,216,fr,r,0,raw,2022-05-31_10h06.04.061,oddball,2022.1.2,60.025919207589,
10,,,,,0,0,0,2,1,0,1,0,19,0,19,0,,,,,,,,,,,,,,,,,220.4416624000296,None,221.1234431997873,221.72375579969957,221.7071488997899,223.70742509979755,None,1,0.6107736304402351,2.610874930396676,decreament,0.6,21,standard,None,100,,,,,,,,f,21,216,fr,r,0,raw,2022-05-31_10h06.04.061,oddball,2022.1.2,60.025919207589,
10,,,,,0,0,0,2,1,0,1,0,20,0,20,0,,,,,,,,,,,,,,,,,223.72408739989623,None,224.30793719971552,224.6747444998473,224.64131810003892,226.64236429985613,j,1,0.36239433009177446,2.363441230263561,decreament,0.36,23,oddball,j,60,0.7771112001501024,,,,,,,f,21,216,fr,r,0,raw,2022-05-31_10h06.04.061,oddball,2022.1.2,60.025919207589,
10,,,,,0,0,0,2,1,0,1,0,21,0,21,0,,,,,,,,,,,,,,,,,226.6585246999748,None,227.17529790010303,227.77606489975005,227.75918680010363,229.75992979994044,None,1,0.6148079303093255,2.6155142299830914,decreament,0.6,21,standard,None,100,,,,,,,,f,21,216,fr,r,0,raw,2022-05-31_10h06.04.061,oddball,2022.1.2,60.025919207589,
10,,,,,0,0,0,2,1,0,1,0,22,0,22,0,,,,,,,,,,,,,,,,,229.7764624999836,None,230.47727819997817,231.0769148999825,231.06022939970717,233.06116729974747,None,1,0.6093105301260948,2.6102996300905943,decreament,0.6,21,standard,None,100,,,,,,,,f,21,216,fr,r,0,raw,2022-05-31_10h06.04.061,oddball,2022.1.2,60.025919207589,
10,,,,,0,0,0,2,1,0,1,0,23,0,23,0,,,,,,,,,,,,,,,,,233.0784229999408,None,233.81126619968563,234.41127289971337,234.39489219989628,236.395583699923,None,1,0.6124050300568342,2.613111429847777,decreament,0.6,21,standard,None,100,,,,,,,,f,21,216,fr,r,0,raw,2022-05-31_10h06.04.061,oddball,2022.1.2,60.025919207589,
10,,,,,0,0,0,2,1,0,1,0,24,0,24,0,,,,,,,,,,,,,,,,,236.41252319980413,None,237.19579249992967,237.79638169985265,237.77969869971275,239.78049260005355,None,1,0.6138060302473605,2.614649730268866,decreament,0.6,21,standard,None,100,,,,,,,,f,21,216,fr,r,0,raw,2022-05-31_10h06.04.061,oddball,2022.1.2,60.025919207589,
10,,,,,0,0,0,2,1,0,1,0,25,0,25,0,,,,,,,,,,,,,,,,,239.79792540008202,None,240.447404100094,240.69728539977223,240.6638162001036,242.66530029987916,j,1,0.2425664304755628,2.244093530345708,decreament,0.24,22,oddball,j,40,0.8014330002479255,,,,,,,f,21,216,fr,r,0,raw,2022-05-31_10h06.04.061,oddball,2022.1.2,60.025919207589,
10,,,,,0,0,0,2,1,0,1,0,26,0,26,0,,,,,,,,,,,,,,,,,242.68271509977058,None,243.26496549975127,243.8651284999214,243.8483639000915,245.8492958000861,None,1,0.6124679306522012,2.613389830570668,decreament,0.6,21,standard,None,100,,,,,,,,f,21,216,fr,r,0,raw,2022-05-31_10h06.04.061,oddball,2022.1.2,60.025919207589,
10,,,,,0,0,0,2,1,0,1,0,27,0,27,0,,,,,,,,,,,,,,,,,245.8659375999123,None,246.56606910005212,247.16631679981947,247.1501776999794,249.15031109983101,None,1,0.6130238301120698,2.613065930083394,decreament,0.6,21,standard,None,100,,,,,,,,f,21,216,fr,r,0,raw,2022-05-31_10h06.04.061,oddball,2022.1.2,60.025919207589,
10,,,,,0,0,0,2,1,0,1,0,28,0,28,0,,,,,,,,,,,,,,,,,249.16705329995602,None,249.85082359984517,250.45108289970085,250.43462519999593,252.4355091000907,None,1,0.6126849302090704,2.613607930019498,decreament,0.6,21,standard,None,100,,,,,,,,f,21,216,fr,r,0,raw,2022-05-31_10h06.04.061,oddball,2022.1.2,60.025919207589,
10,,,,,0,0,0,2,1,0,1,0,29,0,29,0,,,,,,,,,,,,,,,,,252.4535142998211,None,253.16855320008472,253.76886639976874,253.75225099967793,255.75286250002682,None,1,0.6097715301439166,2.6103905299678445,decreament,0.6,21,standard,None,100,,,,,,,,f,21,216,fr,r,0,raw,2022-05-31_10h06.04.061,oddball,2022.1.2,60.025919207589,
10,,,,,0,0,0,2,2,0,2,0,0,0,0,0,,,,,,,,,,,,,,,258.2424142998643,None,260.5213601998985,None,261.1883109998889,261.7885575997643,261.7717857998796,263.7728146999143,None,1,0.6132079297676682,2.6142950295470655,increament,0.6,25,standard,None,100,,255.77000080002472,None,,,,,f,21,216,fr,r,0,raw,2022-05-31_10h06.04.061,oddball,2022.1.2,60.025919207589,
10,,,,,0,0,0,2,2,0,2,0,1,0,1,0,,,,,,,,,,,,,,,,,263.7912572999485,None,264.4228982999921,265.02311029983684,265.006442300044,267.00752229988575,None,1,0.6125085297971964,2.6136498297564685,increament,0.6,25,standard,None,100,,,,,,,,f,21,216,fr,r,0,raw,2022-05-31_10h06.04.061,oddball,2022.1.2,60.025919207589,
10,,,,,0,0,0,2,2,0,2,0,2,0,2,0,,,,,,,,,,,,,,,,,267.0251790997572,None,267.62446499988437,268.2244369001128,268.20805009966716,270.20825819997117,None,1,0.6097293300554156,2.609869330190122,increament,0.6,25,standard,None,100,,,,,,,,f,21,216,fr,r,0,raw,2022-05-31_10h06.04.061,oddball,2022.1.2,60.025919207589,
10,,,,,0,0,0,2,2,0,2,0,3,0,3,0,,,,,,,,,,,,,,,,,270.224840299692,None,270.95875300001353,271.55925509985536,271.54262189986184,273.5430020997301,None,1,0.6137478300370276,2.6141145299188793,increament,0.6,25,standard,None,100,,,,,,,,f,21,216,fr,r,0,raw,2022-05-31_10h06.04.061,oddball,2022.1.2,60.025919207589,
10,,,,,0,0,0,2,2,0,2,0,4,0,4,0,,,,,,,,,,,,,,,,,273.5599412997253,None,274.07681539980695,274.67688980000094,274.66057469975203,276.66085550002754,None,1,0.6077480302192271,2.607962330337614,increament,0.6,25,standard,None,100,,,,,,,,f,21,216,fr,r,0,raw,2022-05-31_10h06.04.061,oddball,2022.1.2,60.025919207589,
10,,,,,0,0,0,2,2,0,2,0,5,0,5,0,,,,,,,,,,,,,,,,,276.6776270996779,None,277.22779069980606,278.0781405000016,278.0446997997351,280.04523239983246,j,1,0.8440717300400138,2.844534629955888,increament,0.84,27,oddball,j,140,0.7817723001353443,,,,,,,f,21,216,fr,r,0,raw,2022-05-31_10h06.04.061,oddball,2022.1.2,60.025919207589,
10,,,,,0,0,0,2,2,0,2,0,6,0,6,0,,,,,,,,,,,,,,,,,280.0619979999028,None,280.762551699765,281.36264149984345,281.34626240003854,283.346769799944,None,1,0.6097272303886712,2.610207030083984,increament,0.6,25,standard,None,100,,,,,,,,f,21,216,fr,r,0,raw,2022-05-31_10h06.04.061,oddball,2022.1.2,60.025919207589,
10,,,,,0,0,0,2,2,0,2,0,7,0,7,0,,,,,,,,,,,,,,,,,283.3634758996777,None,284.0804161000997,284.68101949989796,284.6643991996534,286.66456629987806,None,1,0.613174429628998,2.613259129691869,increament,0.6,25,standard,None,100,,,,,,,,f,21,216,fr,r,0,raw,2022-05-31_10h06.04.061,oddball,2022.1.2,60.025919207589,
10,,,,,0,0,0,2,2,0,2,0,8,0,8,0,,,,,,,,,,,,,,,,,286.68117519980296,None,287.34880919987336,287.9485267000273,287.93165649985895,289.93255880009383,None,1,0.6093891295604408,2.610320229548961,increament,0.6,25,standard,None,100,,,,,,,,f,21,216,fr,r,0,raw,2022-05-31_10h06.04.061,oddball,2022.1.2,60.025919207589,
10,,,,,0,0,0,2,2,0,2,0,9,0,9,0,,,,,,,,,,,,,,,,,289.94943819986656,None,290.56668799975887,291.16671429993585,291.14994819974527,293.1507480000146,None,1,0.6112475297413766,2.612051730044186,increament,0.6,25,standard,None,100,,,,,,,,f,21,216,fr,r,0,raw,2022-05-31_10h06.04.061,oddball,2022.1.2,60.025919207589,
10,,,,,0,0,0,2,2,0,2,0,10,0,10,0,,,,,,,,,,,,,,,,,293.16698509966955,None,293.76740020001307,294.3676525996998,294.3510369998403,296.3519724998623,None,1,0.6126206303015351,2.6136052305810153,increament,0.6,25,standard,None,100,,,,,,,,f,21,216,fr,r,0,raw,2022-05-31_10h06.04.061,oddball,2022.1.2,60.025919207589,
10,,,,,0,0,0,2,2,0,2,0,11,0,11,0,,,,,,,,,,,,,,,,,296.3683203998953,None,296.8851683996618,297.48595839971676,297.4694000999443,299.46949619986117,None,1,0.6130642299540341,2.6130561297759414,increament,0.6,25,standard,None,100,,,,,,,,f,21,216,fr,r,0,raw,2022-05-31_10h06.04.061,oddball,2022.1.2,60.025919207589,
10,,,,,0,0,0,2,2,0,2,0,12,0,12,0,,,,,,,,,,,,,,,,,299.4861165001057,None,300.0865521999076,300.6868623998016,300.67039719969034,302.6710091000423,None,1,0.6116351298987865,2.612196630332619,increament,0.6,25,standard,None,100,,,,,,,,f,21,216,fr,r,0,raw,2022-05-31_10h06.04.061,oddball,2022.1.2,60.025919207589,
10,,,,,0,0,0,2,2,0,2,0,13,0,13,0,,,,,,,,,,,,,,,,,302.6874198997393,None,303.2710302998312,303.8710052999668,303.854467399884,305.85535140009597,None,1,0.6122198300436139,2.6131291300989687,increament,0.6,25,standard,None,100,,,,,,,,f,21,216,fr,r,0,raw,2022-05-31_10h06.04.061,oddball,2022.1.2,60.025919207589,
10,,,,,0,0,0,2,2,0,2,0,14,0,14,0,,,,,,,,,,,,,,,,,305.87195919966325,None,306.4554992998019,307.05554569978267,307.0391604998149,309.03975169966,None,1,0.6129841301590204,2.613587629981339,increament,0.6,25,standard,None,100,,,,,,,,f,21,216,fr,r,0,raw,2022-05-31_10h06.04.061,oddball,2022.1.2,60.025919207589,
10,,,,,0,0,0,2,2,0,2,0,15,0,15,0,,,,,,,,,,,,,,,,,309.0564389000647,None,309.7737711998634,310.50689229974523,310.4736072998494,312.47445599967614,j,1,0.7260560300201178,2.726910329889506,increament,0.72,26,oddball,j,120,0.567603399977088,,,,,,,f,21,216,fr,r,0,raw,2022-05-31_10h06.04.061,oddball,2022.1.2,60.025919207589,
10,,,,,0,0,0,2,2,0,2,0,16,0,16,0,,,,,,,,,,,,,,,,,312.49118699971586,None,313.1081161997281,313.70826110010967,313.69169109966606,315.6923083998263,None,1,0.6122572300955653,2.6129041300155222,increament,0.6,25,standard,None,100,,,,,,,,f,21,216,fr,r,0,raw,2022-05-31_10h06.04.061,oddball,2022.1.2,60.025919207589,
10,,,,,0,0,0,2,2,0,2,0,17,0,17,0,,,,,,,,,,,,,,,,,315.7092388998717,None,316.4094938999042,317.0095607000403,316.99279149994254,318.9936318998225,None,1,0.6096293302252889,2.610681930091232,increament,0.6,25,standard,None,100,,,,,,,,f,21,216,fr,r,0,raw,2022-05-31_10h06.04.061,oddball,2022.1.2,60.025919207589,
10,,,,,0,0,0,2,2,0,2,0,18,0,18,0,,,,,,,,,,,,,,,,,319.0104239000939,None,319.6772540998645,320.2775635998696,320.26093899970874,322.26191290002316,None,1,0.6110958298668265,2.6120489295572042,increament,0.6,25,standard,None,100,,,,,,,,f,21,216,fr,r,0,raw,2022-05-31_10h06.04.061,oddball,2022.1.2,60.025919207589,
10,,,,,0,0,0,2,2,0,2,0,19,0,19,0,,,,,,,,,,,,,,,,,322.278291599825,None,322.89526239968836,323.4953771997243,323.4786461000331,325.4799003000371,None,1,0.609260730445385,2.6105688302777708,increament,0.6,25,standard,None,100,,,,,,,,f,21,216,fr,r,0,raw,2022-05-31_10h06.04.061,oddball,2022.1.2,60.025919207589,
10,,,,,0,0,0,2,2,0,2,0,20,0,20,0,,,,,,,,,,,,,,,,,325.49686409998685,None,326.1962911998853,326.79679000005126,326.78042079973966,328.78093029977754,None,1,0.6153250299394131,2.6158239296637475,increament,0.6,25,standard,None,100,,,,,,,,f,21,216,fr,r,0,raw,2022-05-31_10h06.04.061,oddball,2022.1.2,60.025919207589,
10,,,,,0,0,0,2,2,0,2,0,21,0,21,0,,,,,,,,,,,,,,,,,328.79714290006086,None,329.38084829971194,329.981039499864,329.96451759990305,331.9649887997657,None,1,0.6126226303167641,2.613108430057764,increament,0.6,25,standard,None,100,,,,,,,,f,21,216,fr,r,0,raw,2022-05-31_10h06.04.061,oddball,2022.1.2,60.025919207589,
10,,,,,0,0,0,2,2,0,2,0,22,0,22,0,,,,,,,,,,,,,,,,,331.98193529993296,None,332.5491780997254,333.149218800012,333.1324004996568,335.13298780005425,None,1,0.6098327301442623,2.610408630222082,increament,0.6,25,standard,None,100,,,,,,,,f,21,216,fr,r,0,raw,2022-05-31_10h06.04.061,oddball,2022.1.2,60.025919207589,
10,,,,,0,0,0,2,2,0,2,0,23,0,23,0,,,,,,,,,,,,,,,,,335.14990899991244,None,335.90009289979935,336.5000489996746,336.48373709991574,338.48432649997994,j,0,0.6104602301493287,2.6110546300187707,increament,0.6,25,standard,None,100,0.45328080002218485,,,,,,,f,21,216,fr,r,0,raw,2022-05-31_10h06.04.061,oddball,2022.1.2,60.025919207589,
10,,,,,0,0,0,2,2,0,2,0,24,0,24,0,,,,,,,,,,,,,,,,,338.5014256997965,None,339.2344343001023,339.8349716998637,339.8182830000296,341.81914420006797,None,1,0.613523930311203,2.61444583022967,increament,0.6,25,standard,None,100,,,,,,,,f,21,216,fr,r,0,raw,2022-05-31_10h06.04.061,oddball,2022.1.2,60.025919207589,
10,,,,,0,0,0,2,2,0,2,0,25,0,25,0,,,,,,,,,,,,,,,,,341.83536059968174,None,342.46898619970307,343.0698417997919,343.0527055999264,345.0538244997151,None,1,0.6137351305224001,2.614957930520177,increament,0.6,25,standard,None,100,,,,,,,,f,21,216,fr,r,0,raw,2022-05-31_10h06.04.061,oddball,2022.1.2,60.025919207589,
10,,,,,0,0,0,2,2,0,2,0,26,0,26,0,,,,,,,,,,,,,,,,,345.0710020000115,None,345.7706825998612,346.3708110000007,346.35409400006756,348.35451979981735,None,1,0.6104130297899246,2.610805530101061,increament,0.6,25,standard,None,100,,,,,,,,f,21,216,fr,r,0,raw,2022-05-31_10h06.04.061,oddball,2022.1.2,60.025919207589,
10,,,,,0,0,0,2,2,0,2,0,27,0,27,0,,,,,,,,,,,,,,,,,348.37159859994426,None,349.2050898000598,349.80527899973094,349.788389199879,351.7891206997447,None,1,0.6123357298783958,2.6130401301197708,increament,0.6,25,standard,None,100,,,,,,,,f,21,216,fr,r,0,raw,2022-05-31_10h06.04.061,oddball,2022.1.2,60.025919207589,
10,,,,,0,0,0,2,2,0,2,0,28,0,28,0,,,,,,,,,,,,,,,,,351.80580749968067,None,352.42289569973946,353.0232417997904,353.0065578999929,355.00721179973334,None,1,0.6123757301829755,2.6130199301987886,increament,0.6,25,standard,None,100,,,,,,,,f,21,216,fr,r,0,raw,2022-05-31_10h06.04.061,oddball,2022.1.2,60.025919207589,
10,,,,,0,0,0,2,2,0,2,0,29,0,29,0,,,,,,,,,,,,,,,,,355.02383619965985,None,355.8742585997097,356.8414484998211,356.8080311999656,358.80886599980295,j,1,0.9630048307590187,2.9638729305006564,increament,0.96,28,oddball,j,160,0.20071909995749593,,,,,,,f,21,216,fr,r,0,raw,2022-05-31_10h06.04.061,oddball,2022.1.2,60.025919207589,
10,,,,,0,0,0,2,3,0,3,0,0,0,0,0,,,,,,,,,,,,,,,363.82131379982457,None,370.8298947997391,None,371.6471005999483,372.24696729984134,372.2304479996674,374.2315330998972,None,1,0.6086897300556302,2.6098253298550844,decreament,0.6,21,standard,None,100,,358.8291319999844,None,,,,,f,21,216,fr,r,0,raw,2022-05-31_10h06.04.061,oddball,2022.1.2,60.025919207589,
10,,,,,0,0,0,2,3,0,3,0,1,0,1,0,,,,,,,,,,,,,,,,,374.2480309000239,None,374.848593799863,375.4482521000318,375.4322595000267,377.43238659994677,None,1,0.6085713300853968,2.6086198301054537,decreament,0.6,21,standard,None,100,,,,,,,,f,21,216,fr,r,0,raw,2022-05-31_10h06.04.061,oddball,2022.1.2,60.025919207589,
10,,,,,0,0,0,2,3,0,3,0,2,0,2,0,,,,,,,,,,,,,,,,,377.44877999974415,None,378.01601859973744,378.61635839985684,378.5994933997281,380.60059010004625,None,1,0.6121170301921666,2.613319030031562,decreament,0.6,21,standard,None,100,,,,,,,,f,21,216,fr,r,0,raw,2022-05-31_10h06.04.061,oddball,2022.1.2,60.025919207589,
10,,,,,0,0,0,2,3,0,3,0,3,0,3,0,,,,,,,,,,,,,,,,,380.6167522999458,None,381.20034219976515,381.80097929993644,381.784310599789,383.7847229000181,None,1,0.6147615304216743,2.6150968302972615,decreament,0.6,21,standard,None,100,,,,,,,,f,21,216,fr,r,0,raw,2022-05-31_10h06.04.061,oddball,2022.1.2,60.025919207589,
10,,,,,0,0,0,2,3,0,3,0,4,0,4,0,,,,,,,,,,,,,,,,,383.8016336997971,None,384.35194039996713,384.9523569000885,384.9355576997623,386.9361950000748,None,1,0.6088642301037908,2.6094886297360063,decreament,0.6,21,standard,None,100,,,,,,,,f,21,216,fr,r,0,raw,2022-05-31_10h06.04.061,oddball,2022.1.2,60.025919207589,
10,,,,,0,0,0,2,3,0,3,0,5,0,5,0,,,,,,,,,,,,,,,,,386.9525242000818,None,387.7030102000572,388.30366839980707,388.28648260002956,390.2872080998495,None,1,0.6127892304211855,2.6134912301786244,decreament,0.6,21,standard,None,100,,,,,,,,f,21,216,fr,r,0,raw,2022-05-31_10h06.04.061,oddball,2022.1.2,60.025919207589,
10,,,,,0,0,0,2,3,0,3,0,6,0,6,0,,,,,,,,,,,,,,,,,390.3038920997642,None,391.08758760010824,391.3377192998305,391.30459529999644,393.3054371997714,j,1,0.24575443007051945,2.2466118298470974,decreament,0.24,22,oddball,j,40,0.8640387002378702,,,,,,,f,21,216,fr,r,0,raw,2022-05-31_10h06.04.061,oddball,2022.1.2,60.025919207589,
10,,,,,0,0,0,2,3,0,3,0,7,0,7,0,,,,,,,,,,,,,,,,,393.3217508997768,None,394.10535309975967,394.7057936997153,394.6889726999216,396.6896391999908,None,1,0.6134452298283577,2.614102629944682,decreament,0.6,21,standard,None,100,,,,,,,,f,21,216,fr,r,0,raw,2022-05-31_10h06.04.061,oddball,2022.1.2,60.025919207589,
10,,,,,0,0,0,2,3,0,3,0,8,0,8,0,,,,,,,,,,,,,,,,,396.70645299972966,None,397.3236104999669,397.92394329980016,397.90710229985416,399.9074907996692,None,1,0.6120814303867519,2.6124158301390707,decreament,0.6,21,standard,None,100,,,,,,,,f,21,216,fr,r,0,raw,2022-05-31_10h06.04.061,oddball,2022.1.2,60.025919207589,
10,,,,,0,0,0,2,3,0,3,0,9,0,9,0,,,,,,,,,,,,,,,,,399.92428589984775,None,400.70770169980824,401.3080595000647,401.29165659984574,403.29238979984075,None,1,0.6132659302093089,2.613914030138403,decreament,0.6,21,standard,None,100,,,,,,,,f,21,216,fr,r,0,raw,2022-05-31_10h06.04.061,oddball,2022.1.2,60.025919207589,
10,,,,,0,0,0,2,3,0,3,0,10,0,10,0,,,,,,,,,,,,,,,,,403.3085725000128,None,404.0929894996807,404.6927279997617,404.67624610010535,406.67700830008835,None,1,0.6107888300903141,2.6115508303046227,decreament,0.6,21,standard,None,100,,,,,,,,f,21,216,fr,r,0,raw,2022-05-31_10h06.04.061,oddball,2022.1.2,60.025919207589,
10,,,,,0,0,0,2,3,0,3,0,11,0,11,0,,,,,,,,,,,,,,,,,406.69473179988563,None,407.3770699999295,407.97730899974704,407.9610044998117,409.96187060000375,None,1,0.61446662992239,2.6153394295834005,decreament,0.6,21,standard,None,100,,,,,,,,f,21,216,fr,r,0,raw,2022-05-31_10h06.04.061,oddball,2022.1.2,60.025919207589,
10,,,,,0,0,0,2,3,0,3,0,12,0,12,0,,,,,,,,,,,,,,,,,409.97799600008875,None,410.6947315996513,411.29530429979786,411.2791622998193,413.2792503000237,None,1,0.6132594305090606,2.6132970303297043,decreament,0.6,21,standard,None,100,,,,,,,,f,21,216,fr,r,0,raw,2022-05-31_10h06.04.061,oddball,2022.1.2,60.025919207589,
10,,,,,0,0,0,2,3,0,3,0,13,0,13,0,,,,,,,,,,,,,,,,,413.29595689987764,None,414.0965978996828,414.69639089982957,414.67988879978657,416.68063839990646,None,1,0.6090458300895989,2.6098187300376594,decreament,0.6,21,standard,None,100,,,,,,,,f,21,216,fr,r,0,raw,2022-05-31_10h06.04.061,oddball,2022.1.2,60.025919207589,
10,,,,,0,0,0,2,3,0,3,0,14,0,14,0,,,,,,,,,,,,,,,,,416.6973144998774,None,417.44801929965615,417.9311361000873,417.914390000049,419.91491479985416,j,1,0.4923164304345846,2.4927937304601073,decreament,0.48,24,oddball,j,80,1.0621168999932706,,,,,,,f,21,216,fr,r,0,raw,2022-05-31_10h06.04.061,oddball,2022.1.2,60.025919207589,
10,,,,,0,0,0,2,3,0,3,0,15,0,15,0,,,,,,,,,,,,,,,,,419.9317596000619,None,420.5987130999565,421.19891980011016,421.1823255000636,423.18299390003085,j,0,0.613462429959327,2.6141097298823297,decreament,0.6,21,standard,None,100,0.5863260999321938,,,,,,,f,21,216,fr,r,0,raw,2022-05-31_10h06.04.061,oddball,2022.1.2,60.025919207589,
10,,,,,0,0,0,2,3,0,3,0,16,0,16,0,,,,,,,,,,,,,,,,,423.19957329984754,None,423.79990939982235,424.39989400003105,424.3833896997385,426.38428090000525,None,1,0.6120648304931819,2.6130004306323826,decreament,0.6,21,standard,None,100,,,,,,,,f,21,216,fr,r,0,raw,2022-05-31_10h06.04.061,oddball,2022.1.2,60.025919207589,
10,,,,,0,0,0,2,3,0,3,0,17,0,17,0,,,,,,,,,,,,,,,,,426.4011087999679,None,426.96785539994016,427.56830570008606,427.55133319972083,429.55253680003807,None,1,0.6121359299868345,2.6133932303637266,decreament,0.6,21,standard,None,100,,,,,,,,f,21,216,fr,r,0,raw,2022-05-31_10h06.04.061,oddball,2022.1.2,60.025919207589,
10,,,,,0,0,0,2,3,0,3,0,18,0,18,0,,,,,,,,,,,,,,,,,429.5686049996875,None,430.18555729975924,430.785872399807,430.76923639979213,432.77036170009524,None,1,0.6129494300112128,2.61409902991727,decreament,0.6,21,standard,None,100,,,,,,,,f,21,216,fr,r,0,raw,2022-05-31_10h06.04.061,oddball,2022.1.2,60.025919207589,
10,,,,,0,0,0,2,3,0,3,0,19,0,19,0,,,,,,,,,,,,,,,,,432.7870436999947,None,433.4038527999073,434.0036828997545,433.9870051997714,435.987937099766,None,1,0.6110310303047299,2.61200463026762,decreament,0.6,21,standard,None,100,,,,,,,,f,21,216,fr,r,0,raw,2022-05-31_10h06.04.061,oddball,2022.1.2,60.025919207589,
10,,,,,0,0,0,2,3,0,3,0,20,0,20,0,,,,,,,,,,,,,,,,,436.00476339971647,None,436.6214351998642,436.9883351996541,436.95490789972246,438.9558637998998,j,1,0.3636288302950561,2.3645785306580365,decreament,0.36,23,oddball,j,60,0.7261047000065446,,,,,,,f,21,216,fr,r,0,raw,2022-05-31_10h06.04.061,oddball,2022.1.2,60.025919207589,
10,,,,,0,0,0,2,3,0,3,0,21,0,21,0,,,,,,,,,,,,,,,,,438.9722511,None,439.64014129992574,440.239729099907,440.22279419982806,442.2233275999315,None,1,0.6103473296388984,2.6108302297070622,decreament,0.6,21,standard,None,100,,,,,,,,f,21,216,fr,r,0,raw,2022-05-31_10h06.04.061,oddball,2022.1.2,60.025919207589,
10,,,,,0,0,0,2,3,0,3,0,22,0,22,0,,,,,,,,,,,,,,,,,442.24003480002284,None,442.99098109966144,443.5907858000137,443.57407939992845,445.574628399685,None,1,0.6093600303865969,2.609875630121678,decreament,0.6,21,standard,None,100,,,,,,,,f,21,216,fr,r,0,raw,2022-05-31_10h06.04.061,oddball,2022.1.2,60.025919207589,
10,,,,,0,0,0,2,3,0,3,0,23,0,23,0,,,,,,,,,,,,,,,,,445.59157270006835,None,446.29173430008814,446.892230599653,446.875895800069,448.8761765998788,None,1,0.6128366300836205,2.6130885304883122,decreament,0.6,21,standard,None,100,,,,,,,,f,21,216,fr,r,0,raw,2022-05-31_10h06.04.061,oddball,2022.1.2,60.025919207589,
10,,,,,0,0,0,2,3,0,3,0,24,0,24,0,,,,,,,,,,,,,,,,,448.8931132997386,None,449.4933658000082,450.09363769972697,450.07677679974586,452.0776518997736,None,1,0.6092859301716089,2.610166830010712,decreament,0.6,21,standard,None,100,,,,,,,,f,21,216,fr,r,0,raw,2022-05-31_10h06.04.061,oddball,2022.1.2,60.025919207589,
10,,,,,0,0,0,2,3,0,3,0,25,0,25,0,,,,,,,,,,,,,,,,,452.09398330003023,None,452.6944138999097,453.29457039991394,453.2778675998561,455.2788085998036,None,1,0.6093419301323593,2.6102707302197814,decreament,0.6,21,standard,None,100,,,,,,,,f,21,216,fr,r,0,raw,2022-05-31_10h06.04.061,oddball,2022.1.2,60.025919207589,
10,,,,,0,0,0,2,3,0,3,0,26,0,26,0,,,,,,,,,,,,,,,,,455.29506610007957,None,455.94570289971307,456.54598139971495,456.5289225000888,458.53016859991476,None,1,0.6092605297453701,2.6105662300251424,decreament,0.6,21,standard,None,100,,,,,,,,f,21,216,fr,r,0,raw,2022-05-31_10h06.04.061,oddball,2022.1.2,60.025919207589,
10,,,,,0,0,0,2,3,0,3,0,27,0,27,0,,,,,,,,,,,,,,,,,458.5474763000384,None,459.07992119994015,459.6799939000048,459.66369289997965,461.66436999989673,None,1,0.612403130158782,2.613140330184251,decreament,0.6,21,standard,None,100,,,,,,,,f,21,216,fr,r,0,raw,2022-05-31_10h06.04.061,oddball,2022.1.2,60.025919207589,
10,,,,,0,0,0,2,3,0,3,0,28,0,28,0,,,,,,,,,,,,,,,,,461.6813507997431,None,462.28119549993426,462.8812152999453,462.86473099980503,464.86579789966345,None,1,0.6131460298784077,2.614306030329317,decreament,0.6,21,standard,None,100,,,,,,,,f,21,216,fr,r,0,raw,2022-05-31_10h06.04.061,oddball,2022.1.2,60.025919207589,
10,,,,,0,0,0,2,3,0,3,0,29,0,29,0,,,,,,,,,,,,,,,,,464.88367799995467,None,465.5492722000927,466.1496696998365,466.13295009965077,468.1336163999513,None,1,0.6108861300162971,2.6115497299470007,decreament,0.6,21,standard,None,100,,,,,,,,f,21,216,fr,r,0,raw,2022-05-31_10h06.04.061,oddball,2022.1.2,60.025919207589,
10,,,,,0,0,0,2,4,0,4,0,0,0,0,0,,,,,,,,,,,,,,,473.48871809989214,None,481.5220531998202,None,482.072223899886,482.672394500114,482.6557793999091,484.6560092000291,None,1,0.612037530168891,2.6121736303903162,increament,0.6,25,standard,None,100,,468.15093360003084,None,,,,,f,21,216,fr,r,0,raw,2022-05-31_10h06.04.061,oddball,2022.1.2,60.025919207589,
10,,,,,0,0,0,2,4,0,4,0,1,0,1,0,,,,,,,,,,,,,,,,,484.67289789998904,None,485.323185400106,485.923535999842,485.9068883000873,487.90749510005116,None,1,0.6125487303361297,2.6131265303120017,increament,0.6,25,standard,None,100,,,,,,,,f,21,216,fr,r,0,raw,2022-05-31_10h06.04.061,oddball,2022.1.2,60.025919207589,
10,,,,,0,0,0,2,4,0,4,0,2,0,2,0,,,,,,,,,,,,,,,,,487.9242245000787,None,488.54108770005405,489.1415082998574,489.12507969979197,491.12528439983726,None,1,0.6120406300760806,2.6122006298974156,increament,0.6,25,standard,None,100,,,,,,,,f,21,216,fr,r,0,raw,2022-05-31_10h06.04.061,oddball,2022.1.2,60.025919207589,
10,,,,,0,0,0,2,4,0,4,0,3,0,3,0,,,,,,,,,,,,,,,,,491.1422731997445,None,491.7257721996866,492.32606269977987,492.3091325997375,494.31004039989784,None,1,0.610912430100143,2.6118468302302063,increament,0.6,25,standard,None,100,,,,,,,,f,21,216,fr,r,0,raw,2022-05-31_10h06.04.061,oddball,2022.1.2,60.025919207589,
10,,,,,0,0,0,2,4,0,4,0,4,0,4,0,,,,,,,,,,,,,,,,,494.32675299979746,None,494.8933955999091,495.4939449997619,495.4771083998494,497.4783538999036,None,1,0.6142144300974905,2.615514929872006,increament,0.6,25,standard,None,100,,,,,,,,f,21,216,fr,r,0,raw,2022-05-31_10h06.04.061,oddball,2022.1.2,60.025919207589,
10,,,,,0,0,0,2,4,0,4,0,5,0,5,0,,,,,,,,,,,,,,,,,497.49481910001487,None,498.22842929977924,498.8282510996796,498.8118082997389,500.8128017997369,None,1,0.6093378299847245,2.610361729748547,increament,0.6,25,standard,None,100,,,,,,,,f,21,216,fr,r,0,raw,2022-05-31_10h06.04.061,oddball,2022.1.2,60.025919207589,
10,,,,,0,0,0,2,4,0,4,0,6,0,6,0,,,,,,,,,,,,,,,,,500.82929689995944,None,501.42945649987087,502.3968746000901,502.363386800047,504.36391650000587,j,1,0.9616297297179699,2.962117630057037,increament,0.96,28,oddball,j,160,0.4217567997984588,,,,,,,f,21,216,fr,r,0,raw,2022-05-31_10h06.04.061,oddball,2022.1.2,60.025919207589,
10,,,,,0,0,0,2,4,0,4,0,7,0,7,0,,,,,,,,,,,,,,,,,504.38138839975,None,505.06419979967177,505.66426989994943,505.6476072999649,507.6485784999095,None,1,0.612982829567045,2.6140117296017706,increament,0.6,25,standard,None,100,,,,,,,,f,21,216,fr,r,0,raw,2022-05-31_10h06.04.061,oddball,2022.1.2,60.025919207589,
10,,,,,0,0,0,2,4,0,4,0,8,0,8,0,,,,,,,,,,,,,,,,,507.66518979985267,None,508.23212369997054,508.8319455999881,508.8154976996593,510.8165814001113,None,1,0.6124277296476066,2.613592529669404,increament,0.6,25,standard,None,100,,,,,,,,f,21,216,fr,r,0,raw,2022-05-31_10h06.04.061,oddball,2022.1.2,60.025919207589,
10,,,,,0,0,0,2,4,0,4,0,9,0,9,0,,,,,,,,,,,,,,,,,510.83286319999024,None,511.53345160000026,512.1335714999586,512.1168170999736,514.1180861997418,None,1,0.6123744300566614,2.61365232989192,increament,0.6,25,standard,None,100,,,,,,,,f,21,216,fr,r,0,raw,2022-05-31_10h06.04.061,oddball,2022.1.2,60.025919207589,
10,,,,,0,0,0,2,4,0,4,0,10,0,10,0,,,,,,,,,,,,,,,,,514.1371209998615,None,514.9180676997639,515.5179377999157,515.5014871996827,517.5022812997922,None,1,0.6106738299131393,2.6115454300306737,increament,0.6,25,standard,None,100,,,,,,,,f,21,216,fr,r,0,raw,2022-05-31_10h06.04.061,oddball,2022.1.2,60.025919207589,
10,,,,,0,0,0,2,4,0,4,0,11,0,11,0,,,,,,,,,,,,,,,,,517.5187729001045,None,518.136052200105,518.869406200014,518.8362682000734,520.8366692001,None,0,0.726712429895997,2.7270473297685385,increament,0.72,26,oddball,j,120,,,,,,,,f,21,216,fr,r,0,raw,2022-05-31_10h06.04.061,oddball,2022.1.2,60.025919207589,
10,,,,,0,0,0,2,4,0,4,0,12,0,12,0,,,,,,,,,,,,,,,,,520.8533322000876,None,521.4866160000674,522.0873839999549,522.0707526998594,524.0712715997361,None,1,0.6151528297923505,2.6156676299870014,increament,0.6,25,standard,None,100,,,,,,,,f,21,216,fr,r,0,raw,2022-05-31_10h06.04.061,oddball,2022.1.2,60.025919207589,
10,,,,,0,0,0,2,4,0,4,0,13,0,13,0,,,,,,,,,,,,,,,,,524.0881280996837,None,524.788429999724,525.3886110996827,525.3720352998935,527.3727061999962,None,1,0.6104312306270003,2.6111006303690374,increament,0.6,25,standard,None,100,,,,,,,,f,21,216,fr,r,0,raw,2022-05-31_10h06.04.061,oddball,2022.1.2,60.025919207589,
10,,,,,0,0,0,2,4,0,4,0,14,0,14,0,,,,,,,,,,,,,,,,,527.389746800065,None,528.0225104996935,528.623343499843,528.6062782998197,530.6069163000211,None,1,0.613195130135864,2.6138130305334926,increament,0.6,25,standard,None,100,,,,,,,,f,21,216,fr,r,0,raw,2022-05-31_10h06.04.061,oddball,2022.1.2,60.025919207589,
10,,,,,0,0,0,2,4,0,4,0,15,0,15,0,,,,,,,,,,,,,,,,,530.6237673000433,None,531.240779099986,531.8408353999257,531.8241428998299,533.8251426997595,None,1,0.6130744297988713,2.6141479299403727,increament,0.6,25,standard,None,100,,,,,,,,f,21,216,fr,r,0,raw,2022-05-31_10h06.04.061,oddball,2022.1.2,60.025919207589,
10,,,,,0,0,0,2,4,0,4,0,16,0,16,0,,,,,,,,,,,,,,,,,533.8422296000645,None,534.5590311996639,535.1589552001096,535.1422872999683,537.1429065996781,None,1,0.6097657298669219,2.610362429637462,increament,0.6,25,standard,None,100,,,,,,,,f,21,216,fr,r,0,raw,2022-05-31_10h06.04.061,oddball,2022.1.2,60.025919207589,
10,,,,,0,0,0,2,4,0,4,0,17,0,17,0,,,,,,,,,,,,,,,,,537.1596784000285,None,537.826399799902,538.4266077000648,538.410257499665,540.4109657998197,None,1,0.6145394300110638,2.6152521301992238,increament,0.6,25,standard,None,100,,,,,,,,f,21,216,fr,r,0,raw,2022-05-31_10h06.04.061,oddball,2022.1.2,60.025919207589,
10,,,,,0,0,0,2,4,0,4,0,18,0,18,0,,,,,,,,,,,,,,,,,540.4272994999774,None,541.0943585000932,541.6949149998836,541.6782362000085,543.6784405997023,None,1,0.6122308298945427,2.6126368301920593,increament,0.6,25,standard,None,100,,,,,,,,f,21,216,fr,r,0,raw,2022-05-31_10h06.04.061,oddball,2022.1.2,60.025919207589,
10,,,,,0,0,0,2,4,0,4,0,19,0,19,0,,,,,,,,,,,,,,,,,543.6950530996546,None,544.2788124997169,544.8788741999306,544.8623067000881,546.863164300099,None,1,0.6121745300479233,2.6130530298687518,increament,0.6,25,standard,None,100,,,,,,,,f,21,216,fr,r,0,raw,2022-05-31_10h06.04.061,oddball,2022.1.2,60.025919207589,
10,,,,,0,0,0,2,4,0,4,0,20,0,20,0,,,,,,,,,,,,,,,,,546.8800436998717,None,547.5636542998254,548.1640693000518,548.1477409997024,550.1478081997484,None,1,0.6134502305649221,2.613456530496478,increament,0.6,25,standard,None,100,,,,,,,,f,21,216,fr,r,0,raw,2022-05-31_10h06.04.061,oddball,2022.1.2,60.025919207589,
10,,,,,0,0,0,2,4,0,4,0,21,0,21,0,,,,,,,,,,,,,,,,,550.1645367997698,None,550.9480054997839,551.5483436998911,551.531658299733,553.5324392998591,None,1,0.6142253302969038,2.614996030461043,increament,0.6,25,standard,None,100,,,,,,,,f,21,216,fr,r,0,raw,2022-05-31_10h06.04.061,oddball,2022.1.2,60.025919207589,
10,,,,,0,0,0,2,4,0,4,0,22,0,22,0,,,,,,,,,,,,,,,,,553.5491367997602,None,554.1994396997616,554.8000540998764,554.7829893999733,556.7841825000942,None,1,0.6096617304719985,2.61090353038162,increament,0.6,25,standard,None,100,,,,,,,,f,21,216,fr,r,0,raw,2022-05-31_10h06.04.061,oddball,2022.1.2,60.025919207589,
10,,,,,0,0,0,2,4,0,4,0,23,0,23,0,,,,,,,,,,,,,,,,,556.8002900998108,None,557.4171572998166,558.0173440999351,558.001225200016,560.0012797997333,None,1,0.6127824303694069,2.6127449302002788,increament,0.6,25,standard,None,100,,,,,,,,f,21,216,fr,r,0,raw,2022-05-31_10h06.04.061,oddball,2022.1.2,60.025919207589,
10,,,,,0,0,0,2,4,0,4,0,24,0,24,0,,,,,,,,,,,,,,,,,560.0180473998189,None,560.8186697997153,561.4190461998805,561.4023504997604,563.4030483998358,None,1,0.609022930264473,2.6097095301374793,increament,0.6,25,standard,None,100,,,,,,,,f,21,216,fr,r,0,raw,2022-05-31_10h06.04.061,oddball,2022.1.2,60.025919207589,
10,,,,,0,0,0,2,4,0,4,0,25,0,25,0,,,,,,,,,,,,,,,,,563.4193740999326,None,564.0531464000233,564.6534635997377,564.6367680998519,566.6374372998253,None,1,0.6131899305619299,2.6138644302263856,increament,0.6,25,standard,None,100,,,,,,,,f,21,216,fr,r,0,raw,2022-05-31_10h06.04.061,oddball,2022.1.2,60.025919207589,
10,,,,,0,0,0,2,4,0,4,0,26,0,26,0,,,,,,,,,,,,,,,,,566.6542696999386,None,567.1713970997371,567.7711887997575,567.7545783999376,569.7552573997527,None,1,0.6076329303905368,2.608262530528009,increament,0.6,25,standard,None,100,,,,,,,,f,21,216,fr,r,0,raw,2022-05-31_10h06.04.061,oddball,2022.1.2,60.025919207589,
10,,,,,0,0,0,2,4,0,4,0,27,0,27,0,,,,,,,,,,,,,,,,,569.771921500098,None,570.3887100997381,570.9891591998748,570.9724150998518,572.9735345998779,None,1,0.6125454301945865,2.6137119298800826,increament,0.6,25,standard,None,100,,,,,,,,f,21,216,fr,r,0,raw,2022-05-31_10h06.04.061,oddball,2022.1.2,60.025919207589,
10,,,,,0,0,0,2,4,0,4,0,28,0,28,0,,,,,,,,,,,,,,,,,572.9898558999412,None,573.6730068996549,574.273504700046,574.2573786000721,576.2575039998628,None,1,0.6150580300018191,2.6151143298484385,increament,0.6,25,standard,None,100,,,,,,,,f,21,216,fr,r,0,raw,2022-05-31_10h06.04.061,oddball,2022.1.2,60.025919207589,
10,,,,,0,0,0,2,4,0,4,0,29,0,29,0,,,,,,,,,,,,,,,,,576.2745006997138,None,576.9747966998257,577.8248522998765,577.791465099901,579.7924576997757,j,1,0.8426013295538723,2.8436496295034885,increament,0.84,27,oddball,j,140,0.27321300003677607,,,,,,,f,21,216,fr,r,0,raw,2022-05-31_10h06.04.061,oddball,2022.1.2,60.025919207589,
10,,,,,0,0,0,2,5,0,5,0,0,0,0,0,,,,,,,,,,,,,,,588.2183982999995,None,592.7471940997057,None,593.4641060996801,594.0646143998019,594.0481928000227,596.0487500000745,None,1,0.6127757299691439,2.613298430107534,decreament,0.6,21,standard,None,100,,579.8111318997107,None,,,,,f,21,216,fr,r,0,raw,2022-05-31_10h06.04.061,oddball,2022.1.2,60.025919207589,
10,,,,,0,0,0,2,5,0,5,0,1,0,1,0,,,,,,,,,,,,,,,,,596.0670733000152,None,596.8819689997472,597.4827115996741,597.4660255997442,599.4667612998746,None,1,0.6141310301609337,2.614883130416274,decreament,0.6,21,standard,None,100,,,,,,,,f,21,216,fr,r,0,raw,2022-05-31_10h06.04.061,oddball,2022.1.2,60.025919207589,
10,,,,,0,0,0,2,5,0,5,0,2,0,2,0,,,,,,,,,,,,,,,,,599.4838677998632,None,600.1339087998495,600.734039099887,600.7172888997011,602.7175094000995,None,1,0.6095876302570105,2.609759430401027,decreament,0.6,21,standard,None,100,,,,,,,,f,21,216,fr,r,0,raw,2022-05-31_10h06.04.061,oddball,2022.1.2,60.025919207589,
10,,,,,0,0,0,2,5,0,5,0,3,0,3,0,,,,,,,,,,,,,,,,,602.7344112000428,None,603.4345054998994,604.0349665000103,604.018372300081,606.0189839000814,None,1,0.6134993298910558,2.614067429676652,decreament,0.6,21,standard,None,100,,,,,,,,f,21,216,fr,r,0,raw,2022-05-31_10h06.04.061,oddball,2022.1.2,60.025919207589,
10,,,,,0,0,0,2,5,0,5,0,4,0,4,0,,,,,,,,,,,,,,,,,606.0356858996674,None,606.6358408997767,607.2361490000039,607.2194563997909,609.2204150999896,None,1,0.6114620300941169,2.6124395299702883,decreament,0.6,21,standard,None,100,,,,,,,,f,21,216,fr,r,0,raw,2022-05-31_10h06.04.061,oddball,2022.1.2,60.025919207589,
10,,,,,0,0,0,2,5,0,5,0,5,0,5,0,,,,,,,,,,,,,,,,,609.2371036997065,None,609.7704916996881,610.3706954000518,610.3542150999419,612.3545355997048,None,1,0.6129159303382039,2.6132474299520254,decreament,0.6,21,standard,None,100,,,,,,,,f,21,216,fr,r,0,raw,2022-05-31_10h06.04.061,oddball,2022.1.2,60.025919207589,
10,,,,,0,0,0,2,5,0,5,0,6,0,6,0,,,,,,,,,,,,,,,,,612.3716203998774,None,612.9888968998566,613.5883311000653,613.5717241996899,615.5727899000049,None,1,0.610594330355525,2.6117176301777363,decreament,0.6,21,standard,None,100,,,,,,,,f,21,216,fr,r,0,raw,2022-05-31_10h06.04.061,oddball,2022.1.2,60.025919207589,
10,,,,,0,0,0,2,5,0,5,0,7,0,7,0,,,,,,,,,,,,,,,,,615.5893743000925,None,616.2729858998209,616.7563014999032,616.7230177000165,618.7235782998614,j,1,0.49516403023153543,2.49592303019017,decreament,0.48,24,oddball,j,80,0.8283803001977503,,,,,,,f,21,216,fr,r,0,raw,2022-05-31_10h06.04.061,oddball,2022.1.2,60.025919207589,
10,,,,,0,0,0,2,5,0,5,0,8,0,8,0,,,,,,,,,,,,,,,,,618.7569033997133,None,619.440531599801,620.0410746997222,620.0245769997127,622.0249852999114,None,1,0.6136852302588522,2.6140623302198946,decreament,0.6,21,standard,None,100,,,,,,,,f,21,216,fr,r,0,raw,2022-05-31_10h06.04.061,oddball,2022.1.2,60.025919207589,
10,,,,,0,0,0,2,5,0,5,0,9,0,9,0,,,,,,,,,,,,,,,,,622.0417239996605,None,622.5588823999278,623.1591779999435,623.1422641999088,625.1430762000382,None,1,0.6097033298574388,2.610500629991293,decreament,0.6,21,standard,None,100,,,,,,,,f,21,216,fr,r,0,raw,2022-05-31_10h06.04.061,oddball,2022.1.2,60.025919207589,
10,,,,,0,0,0,2,5,0,5,0,10,0,10,0,,,,,,,,,,,,,,,,,625.1595640000887,None,625.9267079997808,626.5267998999916,626.510361999739,628.511270399671,None,1,0.6134092300198972,2.6143379299901426,decreament,0.6,21,standard,None,100,,,,,,,,f,21,216,fr,r,0,raw,2022-05-31_10h06.04.061,oddball,2022.1.2,60.025919207589,
10,,,,,0,0,0,2,5,0,5,0,11,0,11,0,,,,,,,,,,,,,,,,,628.5274298996665,None,629.2942836997099,629.8949285000563,629.8782057999633,631.8791117998771,None,1,0.6136804302223027,2.614621330052614,decreament,0.6,21,standard,None,100,,,,,,,,f,21,216,fr,r,0,raw,2022-05-31_10h06.04.061,oddball,2022.1.2,60.025919207589,
10,,,,,0,0,0,2,5,0,5,0,12,0,12,0,,,,,,,,,,,,,,,,,631.8961644996889,None,632.4458913998678,633.0461369999684,633.0291212997399,635.0300905997865,None,1,0.6125519298948348,2.6135778296738863,decreament,0.6,21,standard,None,100,,,,,,,,f,21,216,fr,r,0,raw,2022-05-31_10h06.04.061,oddball,2022.1.2,60.025919207589,
10,,,,,0,0,0,2,5,0,5,0,13,0,13,0,,,,,,,,,,,,,,,,,635.0465589999221,None,635.6970663997345,636.063514099922,636.0305351996794,638.0312509997748,None,0,0.36240612994879484,2.3631721301935613,decreament,0.36,23,oddball,j,60,,,,,,,,f,21,216,fr,r,0,raw,2022-05-31_10h06.04.061,oddball,2022.1.2,60.025919207589,
10,,,,,0,0,0,2,5,0,5,0,14,0,14,0,,,,,,,,,,,,,,,,,638.0478308997117,None,638.5986927999184,639.1982938000001,639.1818487998098,641.1820616996847,None,1,0.6083204299211502,2.608499830123037,decreament,0.6,21,standard,None,100,,,,,,,,f,21,216,fr,r,0,raw,2022-05-31_10h06.04.061,oddball,2022.1.2,60.025919207589,
10,,,,,0,0,0,2,5,0,5,0,15,0,15,0,,,,,,,,,,,,,,,,,641.1991795999929,None,641.7992209997028,642.3993194000795,642.3827161998488,644.3833645000122,None,1,0.611939930357039,2.6125851306132972,decreament,0.6,21,standard,None,100,,,,,,,,f,21,216,fr,r,0,raw,2022-05-31_10h06.04.061,oddball,2022.1.2,60.025919207589,
10,,,,,0,0,0,2,5,0,5,0,16,0,16,0,,,,,,,,,,,,,,,,,644.4001214997843,None,645.1508884998038,645.7510977997445,645.7341987998225,647.7351611997001,None,1,0.6099001299589872,2.61086912965402,decreament,0.6,21,standard,None,100,,,,,,,,f,21,216,fr,r,0,raw,2022-05-31_10h06.04.061,oddball,2022.1.2,60.025919207589,
10,,,,,0,0,0,2,5,0,5,0,17,0,17,0,,,,,,,,,,,,,,,,,647.7523711998947,None,648.4188748998567,649.0182771999389,649.0016177999787,651.0028613996692,None,1,0.6089183301664889,2.610239330213517,decreament,0.6,21,standard,None,100,,,,,,,,f,21,216,fr,r,0,raw,2022-05-31_10h06.04.061,oddball,2022.1.2,60.025919207589,
10,,,,,0,0,0,2,5,0,5,0,18,0,18,0,,,,,,,,,,,,,,,,,651.0196660999209,None,651.6530057997443,652.2532806997187,652.2368149999529,654.2369161997922,None,1,0.6100745303556323,2.610101530328393,decreament,0.6,21,standard,None,100,,,,,,,,f,21,216,fr,r,0,raw,2022-05-31_10h06.04.061,oddball,2022.1.2,60.025919207589,
10,,,,,0,0,0,2,5,0,5,0,19,0,19,0,,,,,,,,,,,,,,,,,654.2538004997186,None,654.9044049000368,655.5044120000675,655.4879133999348,657.4882453000173,None,1,0.6128658303059638,2.6131333303637803,decreament,0.6,21,standard,None,100,,,,,,,,f,21,216,fr,r,0,raw,2022-05-31_10h06.04.061,oddball,2022.1.2,60.025919207589,
10,,,,,0,0,0,2,5,0,5,0,20,0,20,0,,,,,,,,,,,,,,,,,657.5052406000905,None,658.2555764000863,658.8557680998929,658.8391296998598,660.8402505996637,None,1,0.6126303300261497,2.613766430411488,decreament,0.6,21,standard,None,100,,,,,,,,f,21,216,fr,r,0,raw,2022-05-31_10h06.04.061,oddball,2022.1.2,60.025919207589,
10,,,,,0,0,0,2,5,0,5,0,21,0,21,0,,,,,,,,,,,,,,,,,660.85742189968,None,661.556968699675,662.1571654998697,662.1406358000822,664.1408934998326,None,1,0.6097290301695466,2.6099255299195647,decreament,0.6,21,standard,None,100,,,,,,,,f,21,216,fr,r,0,raw,2022-05-31_10h06.04.061,oddball,2022.1.2,60.025919207589,
10,,,,,0,0,0,2,5,0,5,0,22,0,22,0,,,,,,,,,,,,,,,,,664.1577777001075,None,664.8248378001153,665.4249084000476,665.4080997998826,667.4088817997836,None,1,0.612329329829663,2.613139329943806,decreament,0.6,21,standard,None,100,,,,,,,,f,21,216,fr,r,0,raw,2022-05-31_10h06.04.061,oddball,2022.1.2,60.025919207589,
10,,,,,0,0,0,2,5,0,5,0,23,0,23,0,,,,,,,,,,,,,,,,,667.4255806999281,None,668.0425602998585,668.6431967997923,668.6263709999621,670.6268437998369,None,1,0.6129207299090922,2.613332229666412,decreament,0.6,21,standard,None,100,,,,,,,,f,21,216,fr,r,0,raw,2022-05-31_10h06.04.061,oddball,2022.1.2,60.025919207589,
10,,,,,0,0,0,2,5,0,5,0,24,0,24,0,,,,,,,,,,,,,,,,,670.643421899993,None,671.2604844998568,671.8607239997946,671.8441627998836,673.8450396996923,None,1,0.6123478300869465,2.6132925301790237,decreament,0.6,21,standard,None,100,,,,,,,,f,21,216,fr,r,0,raw,2022-05-31_10h06.04.061,oddball,2022.1.2,60.025919207589,
10,,,,,0,0,0,2,5,0,5,0,25,0,25,0,,,,,,,,,,,,,,,,,673.8616448999383,None,674.545436500106,675.1455371999182,675.1285538999364,677.129024699796,None,1,0.6092532305046916,2.609700030181557,decreament,0.6,21,standard,None,100,,,,,,,,f,21,216,fr,r,0,raw,2022-05-31_10h06.04.061,oddball,2022.1.2,60.025919207589,
10,,,,,0,0,0,2,5,0,5,0,26,0,26,0,,,,,,,,,,,,,,,,,677.1457886998542,None,677.863192900084,678.462847399991,678.4464443996549,680.4471092000604,None,1,0.6104956297203898,2.6111168297939003,decreament,0.6,21,standard,None,100,,,,,,,,f,21,216,fr,r,0,raw,2022-05-31_10h06.04.061,oddball,2022.1.2,60.025919207589,
10,,,,,0,0,0,2,5,0,5,0,27,0,27,0,,,,,,,,,,,,,,,,,680.463872499764,None,681.1639032000676,681.7644723998383,681.7473726999015,683.7486576000229,None,1,0.612026930321008,2.61332163028419,decreament,0.6,21,standard,None,100,,,,,,,,f,21,216,fr,r,0,raw,2022-05-31_10h06.04.061,oddball,2022.1.2,60.025919207589,
10,,,,,0,0,0,2,5,0,5,0,28,0,28,0,,,,,,,,,,,,,,,,,683.7651190999895,None,684.4319134997204,684.6821312000975,684.6486911000684,686.6494636996649,j,1,0.2463716296479106,2.247165529523045,decreament,0.24,22,oddball,j,40,0.6075963997282088,,,,,,,f,21,216,fr,r,0,raw,2022-05-31_10h06.04.061,oddball,2022.1.2,60.025919207589,
10,,,,,0,0,0,2,5,0,5,0,29,0,29,0,,,,,,,,,,,,,,,,,686.6661330997013,None,687.2663161000237,687.8667939999141,687.850100999698,689.8505398998968,None,1,0.6140312300994992,2.6144020301289856,decreament,0.6,21,standard,None,100,,,,,,,,f,21,216,fr,r,0,raw,2022-05-31_10h06.04.061,oddball,2022.1.2,60.025919207589,
10,,,,,0,0,0,2,6,0,6,0,0,0,0,0,,,,,,,,,,,,,,,693.7590616000816,None,698.3039808999747,None,698.9710109001026,699.5712415999733,699.5544635998085,701.5553804999217,None,1,0.6103424304164946,2.6112872301600873,increament,0.6,25,standard,None,100,,689.8677249997854,None,,,,,f,21,216,fr,r,0,raw,2022-05-31_10h06.04.061,oddball,2022.1.2,60.025919207589,
10,,,,,0,0,0,2,6,0,6,0,1,0,1,0,,,,,,,,,,,,,,,,,701.5719707999378,None,702.1889305999503,702.7890896997415,702.7728190999478,704.7735067997128,None,1,0.6134645296260715,2.6141475294716656,increament,0.6,25,standard,None,100,,,,,,,,f,21,216,fr,r,0,raw,2022-05-31_10h06.04.061,oddball,2022.1.2,60.025919207589,
10,,,,,0,0,0,2,6,0,6,0,2,0,2,0,,,,,,,,,,,,,,,,,704.7909554997459,None,705.4568344997242,706.0571846999228,706.0404610000551,708.0411248998716,None,1,0.6096964301541448,2.6102919299155474,increament,0.6,25,standard,None,100,,,,,,,,f,21,216,fr,r,0,raw,2022-05-31_10h06.04.061,oddball,2022.1.2,60.025919207589,
10,,,,,0,0,0,2,6,0,6,0,3,0,3,0,,,,,,,,,,,,,,,,,708.0575377000496,None,708.808249999769,709.4079156997614,709.3913102000952,711.3921738998033,None,1,0.6110086301341653,2.6119314301759005,increament,0.6,25,standard,None,100,,,,,,,,f,21,216,fr,r,0,raw,2022-05-31_10h06.04.061,oddball,2022.1.2,60.025919207589,
10,,,,,0,0,0,2,6,0,6,0,4,0,4,0,,,,,,,,,,,,,,,,,711.4090795996599,None,711.9760361998342,712.5758285997435,712.5595864998177,714.560379399918,None,1,0.6117701302282512,2.612530230078846,increament,0.6,25,standard,None,100,,,,,,,,f,21,216,fr,r,0,raw,2022-05-31_10h06.04.061,oddball,2022.1.2,60.025919207589,
10,,,,,0,0,0,2,6,0,6,0,5,0,5,0,,,,,,,,,,,,,,,,,714.5769584998488,None,715.2607911997475,715.8608196000569,715.8441568999551,717.8450719998218,None,1,0.6094651301391423,2.6104098302312195,increament,0.6,25,standard,None,100,,,,,,,,f,21,216,fr,r,0,raw,2022-05-31_10h06.04.061,oddball,2022.1.2,60.025919207589,
10,,,,,0,0,0,2,6,0,6,0,6,0,6,0,,,,,,,,,,,,,,,,,717.8624563999474,None,718.4282891997136,719.0285126999952,719.0119006000459,721.0125448997132,None,1,0.6118963304907084,2.612567830365151,increament,0.6,25,standard,None,100,,,,,,,,f,21,216,fr,r,0,raw,2022-05-31_10h06.04.061,oddball,2022.1.2,60.025919207589,
10,,,,,0,0,0,2,6,0,6,0,7,0,7,0,,,,,,,,,,,,,,,,,721.0292028998956,None,721.6461221999489,722.2462351997383,722.2299095997587,724.2305234996602,None,1,0.6128295296803117,2.6135240299627185,increament,0.6,25,standard,None,100,,,,,,,,f,21,216,fr,r,0,raw,2022-05-31_10h06.04.061,oddball,2022.1.2,60.025919207589,
10,,,,,0,0,0,2,6,0,6,0,8,0,8,0,,,,,,,,,,,,,,,,,724.2470478001051,None,724.9809689996764,725.5807889997959,725.5640762997791,727.5650424999185,None,1,0.6088123298250139,2.609810530208051,increament,0.6,25,standard,None,100,,,,,,,,f,21,216,fr,r,0,raw,2022-05-31_10h06.04.061,oddball,2022.1.2,60.025919207589,
10,,,,,0,0,0,2,6,0,6,0,9,0,9,0,,,,,,,,,,,,,,,,,727.5816500000656,None,728.1652301996946,728.7658321000636,728.7490048999898,730.7496589999646,None,1,0.6120938300155103,2.612769130151719,increament,0.6,25,standard,None,100,,,,,,,,f,21,216,fr,r,0,raw,2022-05-31_10h06.04.061,oddball,2022.1.2,60.025919207589,
10,,,,,0,0,0,2,6,0,6,0,10,0,10,0,,,,,,,,,,,,,,,,,730.7660133000463,None,731.4163869996555,732.0164823997766,731.999973599799,734.0011538998224,None,1,0.6124601298943162,2.613727129995823,increament,0.6,25,standard,None,100,,,,,,,,f,21,216,fr,r,0,raw,2022-05-31_10h06.04.061,oddball,2022.1.2,60.025919207589,
10,,,,,0,0,0,2,6,0,6,0,11,0,11,0,,,,,,,,,,,,,,,,,734.0179953998886,None,734.6340906000696,735.2346286000684,735.2178171998821,737.2190761999227,None,1,0.6132710296660662,2.6145929298363626,increament,0.6,25,standard,None,100,,,,,,,,f,21,216,fr,r,0,raw,2022-05-31_10h06.04.061,oddball,2022.1.2,60.025919207589,
10,,,,,0,0,0,2,6,0,6,0,12,0,12,0,,,,,,,,,,,,,,,,,737.2363837999292,None,737.8688942999579,738.4691622997634,738.4523304998875,740.4535185997374,None,1,0.6127053298987448,2.6139146299101412,increament,0.6,25,standard,None,100,,,,,,,,f,21,216,fr,r,0,raw,2022-05-31_10h06.04.061,oddball,2022.1.2,60.025919207589,
10,,,,,0,0,0,2,6,0,6,0,13,0,13,0,,,,,,,,,,,,,,,,,740.4696464999579,None,741.3037994997576,741.903842699714,741.8874785997905,743.8880223999731,None,1,0.6098587303422391,2.610389430075884,increament,0.6,25,standard,None,100,,,,,,,,f,21,216,fr,r,0,raw,2022-05-31_10h06.04.061,oddball,2022.1.2,60.025919207589,
10,,,,,0,0,0,2,6,0,6,0,14,0,14,0,,,,,,,,,,,,,,,,,743.9055298999883,None,744.805154199712,745.4051234996878,745.3883579997346,747.3895694999956,None,1,0.6090495297685266,2.6103403298184276,increament,0.6,25,standard,None,100,,,,,,,,f,21,216,fr,r,0,raw,2022-05-31_10h06.04.061,oddball,2022.1.2,60.025919207589,
10,,,,,0,0,0,2,6,0,6,0,15,0,15,0,,,,,,,,,,,,,,,,,747.405681299977,None,748.0731350998394,748.6733961999416,748.6564750000834,750.657062899787,None,1,0.6099168304353952,2.6104517304338515,increament,0.6,25,standard,None,100,,,,,,,,f,21,216,fr,r,0,raw,2022-05-31_10h06.04.061,oddball,2022.1.2,60.025919207589,
10,,,,,0,0,0,2,6,0,6,0,16,0,16,0,,,,,,,,,,,,,,,,,750.6737997001037,None,751.3576330998912,751.9574919999577,751.9414448998868,753.9417615998536,None,1,0.6120501300320029,2.612333029974252,increament,0.6,25,standard,None,100,,,,,,,,f,21,216,fr,r,0,raw,2022-05-31_10h06.04.061,oddball,2022.1.2,60.025919207589,
10,,,,,0,0,0,2,6,0,6,0,17,0,17,0,,,,,,,,,,,,,,,,,753.9583451999351,None,754.6751526999287,755.2756913998164,755.2593042999506,757.2598763001151,None,1,0.6130453301593661,2.613638530485332,increament,0.6,25,standard,None,100,,,,,,,,f,21,216,fr,r,0,raw,2022-05-31_10h06.04.061,oddball,2022.1.2,60.025919207589,
10,,,,,0,0,0,2,6,0,6,0,18,0,18,0,,,,,,,,,,,,,,,,,757.2765864999965,None,757.9430794999935,758.7933788998052,758.7600916000083,760.7607784997672,None,0,0.845458029769361,2.8461346300318837,increament,0.84,27,oddball,j,140,,,,,,,,f,21,216,fr,r,0,raw,2022-05-31_10h06.04.061,oddball,2022.1.2,60.025919207589,
10,,,,,0,0,0,2,6,0,6,0,19,0,19,0,,,,,,,,,,,,,,,,,760.7777271000668,None,761.4781586998142,762.0784085998312,762.0614574998617,764.0620881998911,None,1,0.6114423302933574,2.6120464303530753,increament,0.6,25,standard,None,100,,,,,,,,f,21,216,fr,r,0,raw,2022-05-31_10h06.04.061,oddball,2022.1.2,60.025919207589,
10,,,,,0,0,0,2,6,0,6,0,20,0,20,0,,,,,,,,,,,,,,,,,764.0788801996969,None,764.7790322001092,765.3796922997572,765.3631965997629,767.3636574996635,None,1,0.613298729993403,2.61373483017087,increament,0.6,25,standard,None,100,,,,,,,,f,21,216,fr,r,0,raw,2022-05-31_10h06.04.061,oddball,2022.1.2,60.025919207589,
10,,,,,0,0,0,2,6,0,6,0,21,0,21,0,,,,,,,,,,,,,,,,,767.3801645999774,None,767.9306210000068,768.5306877996773,768.5138186998665,770.5148764997721,None,1,0.6078375303186476,2.6089683300815523,increament,0.6,25,standard,None,100,,,,,,,,f,21,216,fr,r,0,raw,2022-05-31_10h06.04.061,oddball,2022.1.2,60.025919207589,
10,,,,,0,0,0,2,6,0,6,0,22,0,22,0,,,,,,,,,,,,,,,,,770.5314511000179,None,771.1318962997757,772.0989266000688,772.0654114997014,774.0659313998185,j,1,0.9606696306727827,2.961173630785197,increament,0.96,28,oddball,j,160,0.6309656999073923,,,,,,,f,21,216,fr,r,0,raw,2022-05-31_10h06.04.061,oddball,2022.1.2,60.025919207589,
10,,,,,0,0,0,2,6,0,6,0,23,0,23,0,,,,,,,,,,,,,,,,,774.0829376000911,None,774.6331380996853,775.2331548999064,775.2167000998743,777.2171605997719,None,1,0.609704730566591,2.6101130302995443,increament,0.6,25,standard,None,100,,,,,,,,f,21,216,fr,r,0,raw,2022-05-31_10h06.04.061,oddball,2022.1.2,60.025919207589,
10,,,,,0,0,0,2,6,0,6,0,24,0,24,0,,,,,,,,,,,,,,,,,777.2337210997939,None,777.8004959998652,778.400822499767,778.38450249983,780.3853958998807,None,1,0.6134359301067889,2.6143563301302493,increament,0.6,25,standard,None,100,,,,,,,,f,21,216,fr,r,0,raw,2022-05-31_10h06.04.061,oddball,2022.1.2,60.025919207589,
10,,,,,0,0,0,2,6,0,6,0,25,0,25,0,,,,,,,,,,,,,,,,,780.4016565000638,None,781.0688070999458,781.668738800101,781.6524108997546,783.652722899802,None,1,0.6097766305319965,2.6100579304620624,increament,0.6,25,standard,None,100,,,,,,,,f,21,216,fr,r,0,raw,2022-05-31_10h06.04.061,oddball,2022.1.2,60.025919207589,
10,,,,,0,0,0,2,6,0,6,0,26,0,26,0,,,,,,,,,,,,,,,,,783.6696663997136,None,784.4534833999351,785.0534017998725,785.0368931000121,787.0376740996726,None,1,0.6094504301436245,2.6103122299537063,increament,0.6,25,standard,None,100,,,,,,,,f,21,216,fr,r,0,raw,2022-05-31_10h06.04.061,oddball,2022.1.2,60.025919207589,
10,,,,,0,0,0,2,6,0,6,0,27,0,27,0,,,,,,,,,,,,,,,,,787.0543868998066,None,787.7210785998031,788.3212347999215,788.3051851997152,790.3056772998534,None,1,0.6111394301988184,2.611559229902923,increament,0.6,25,standard,None,100,,,,,,,,f,21,216,fr,r,0,raw,2022-05-31_10h06.04.061,oddball,2022.1.2,60.025919207589,
10,,,,,0,0,0,2,6,0,6,0,28,0,28,0,,,,,,,,,,,,,,,,,790.3222050000913,None,790.8555733999237,791.5890110000037,791.5565573996864,793.5567906000651,None,0,0.730929630342871,2.7311107302084565,increament,0.72,26,oddball,j,120,,,,,,,,f,21,216,fr,r,0,raw,2022-05-31_10h06.04.061,oddball,2022.1.2,60.025919207589,
10,,,,,0,0,0,2,6,0,6,0,29,0,29,0,,,,,,,,,,,,,,,,,793.5734113999642,None,794.3071019998752,794.9073442998342,794.8908232999966,796.8916595000774,None,1,0.6093796300701797,2.6102410298772156,increament,0.6,25,standard,None,100,,,,,,,,f,21,216,fr,r,0,raw,2022-05-31_10h06.04.061,oddball,2022.1.2,60.025919207589,
10,,,,,0,0,0,2,7,0,7,0,0,0,0,0,,,,,,,,,,,,,,,809.8305337000638,None,813.1306642997079,None,813.6810932997614,814.281181300059,814.2643363000825,816.2652153000236,None,1,0.6117819300852716,2.6126710302196443,decreament,0.6,21,standard,None,100,,796.9081314997748,None,,,,,f,21,216,fr,r,0,raw,2022-05-31_10h06.04.061,oddball,2022.1.2,60.025919207589,
10,,,,,0,0,0,2,7,0,7,0,1,0,1,0,,,,,,,,,,,,,,,,,816.2818951997906,None,816.9489051997662,817.5495957997628,817.532766699791,819.5330663998611,None,1,0.6125841303728521,2.612766430247575,decreament,0.6,21,standard,None,100,,,,,,,,f,21,216,fr,r,0,raw,2022-05-31_10h06.04.061,oddball,2022.1.2,60.025919207589,
10,,,,,0,0,0,2,7,0,7,0,2,0,2,0,,,,,,,,,,,,,,,,,819.5497666997835,None,820.2501415996812,820.850602099672,820.833856199868,822.8340795999393,None,1,0.6124328300356865,2.6126343300566077,decreament,0.6,21,standard,None,100,,,,,,,,f,21,216,fr,r,0,raw,2022-05-31_10h06.04.061,oddball,2022.1.2,60.025919207589,
10,,,,,0,0,0,2,7,0,7,0,3,0,3,0,,,,,,,,,,,,,,,,,822.8508514999412,None,823.6011584997177,824.2018458000384,824.185120199807,826.1856041001156,None,1,0.6149635300971568,2.6154017304070294,decreament,0.6,21,standard,None,100,,,,,,,,f,21,216,fr,r,0,raw,2022-05-31_10h06.04.061,oddball,2022.1.2,60.025919207589,
10,,,,,0,0,0,2,7,0,7,0,4,0,4,0,,,,,,,,,,,,,,,,,826.2025802000426,None,826.919397499878,827.5198144996539,827.5031844996847,829.5040959999897,None,1,0.6093494300730526,2.6103154299780726,decreament,0.6,21,standard,None,100,,,,,,,,f,21,216,fr,r,0,raw,2022-05-31_10h06.04.061,oddball,2022.1.2,60.025919207589,
10,,,,,0,0,0,2,7,0,7,0,5,0,5,0,,,,,,,,,,,,,,,,,829.5202685999684,None,830.08694429975,830.6874671997502,830.6712348996662,None,None,1,0.5991241303272545,2.599250830244273,decreament,0.6,21,standard,None,100,,,,,,,,f,21,216,fr,r,0,raw,2022-05-31_10h06.04.061,oddball,2022.1.2,60.025919207589,
10,,,,,0,0,0,2,7,0,7,0,6,0,6,0,,,,,,,,,,,,,,,,,832.6712535000406,None,833.2387178000063,833.4882064997219,833.4551625000313,835.4558560997248,j,1,0.24285693001002073,2.2435576301068068,decreament,0.24,22,oddball,j,40,0.8405622998252511,,,,,,,f,21,216,fr,r,0,raw,2022-05-31_10h06.04.061,oddball,2022.1.2,60.025919207589,
10,,,,,0,0,0,2,7,0,7,0,7,0,7,0,,,,,,,,,,,,,,,,,835.4727105996571,None,836.1397076998837,836.7398369000293,836.7232423997484,838.7239735997282,None,1,0.6120502301491797,2.612787330057472,decreament,0.6,21,standard,None,100,,,,,,,,f,21,216,fr,r,0,raw,2022-05-31_10h06.04.061,oddball,2022.1.2,60.025919207589,
10,,,,,0,0,0,2,7,0,7,0,8,0,8,0,,,,,,,,,,,,,,,,,838.7406787998043,None,839.4078269000165,840.007797499653,839.9912489000708,841.9919086000882,None,1,0.6094145299866796,2.6100691300816834,decreament,0.6,21,standard,None,100,,,,,,,,f,21,216,fr,r,0,raw,2022-05-31_10h06.04.061,oddball,2022.1.2,60.025919207589,
10,,,,,0,0,0,2,7,0,7,0,9,0,9,0,,,,,,,,,,,,,,,,,842.0084929000586,None,842.8086469001137,843.408712099772,843.3922028997913,845.3927591997199,None,1,0.6128578302450478,2.613406930118799,decreament,0.6,21,standard,None,100,,,,,,,,f,21,216,fr,r,0,raw,2022-05-31_10h06.04.061,oddball,2022.1.2,60.025919207589,
10,,,,,0,0,0,2,7,0,7,0,10,0,10,0,,,,,,,,,,,,,,,,,845.4095220998861,None,845.9767816998065,846.5769408997148,846.560689299833,848.5610822997987,None,1,0.6114373304881155,2.6118039302527905,decreament,0.6,21,standard,None,100,,,,,,,,f,21,216,fr,r,0,raw,2022-05-31_10h06.04.061,oddball,2022.1.2,60.025919207589,
10,,,,,0,0,0,2,7,0,7,0,11,0,11,0,,,,,,,,,,,,,,,,,848.578263499774,None,849.1947460998781,849.7945375000127,849.7779689999297,851.7787377000786,None,1,0.6116857300512493,2.6124431299977005,decreament,0.6,21,standard,None,100,,,,,,,,f,21,216,fr,r,0,raw,2022-05-31_10h06.04.061,oddball,2022.1.2,60.025919207589,
10,,,,,0,0,0,2,7,0,7,0,12,0,12,0,,,,,,,,,,,,,,,,,851.7953587998636,None,852.4288130998611,853.0288538997993,853.0122834998183,855.0130448997952,None,1,0.6119842301122844,2.6127503300085664,decreament,0.6,21,standard,None,100,,,,,,,,f,21,216,fr,r,0,raw,2022-05-31_10h06.04.061,oddball,2022.1.2,60.025919207589,
10,,,,,0,0,0,2,7,0,7,0,13,0,13,0,,,,,,,,,,,,,,,,,855.0300702997483,None,855.8135599996895,856.1804812001064,856.1471246997826,858.147761600092,j,1,0.36329133016988635,2.363912030123174,decreament,0.36,23,oddball,j,60,0.8034566999413073,,,,,,,f,21,216,fr,r,0,raw,2022-05-31_10h06.04.061,oddball,2022.1.2,60.025919207589,
10,,,,,0,0,0,2,7,0,7,0,14,0,14,0,,,,,,,,,,,,,,,,,858.1648009000346,None,858.8815423999913,859.4819684997201,859.4651605999097,861.4656312996522,None,1,0.6109205302782357,2.6112879305146635,decreament,0.6,21,standard,None,100,,,,,,,,f,21,216,fr,r,0,raw,2022-05-31_10h06.04.061,oddball,2022.1.2,60.025919207589,
10,,,,,0,0,0,2,7,0,7,0,15,0,15,0,,,,,,,,,,,,,,,,,861.4824399999343,None,862.1662983000278,862.7664304999635,862.7495602997951,864.7509789997712,None,1,0.6114700301550329,2.612962330225855,decreament,0.6,21,standard,None,100,,,,,,,,f,21,216,fr,r,0,raw,2022-05-31_10h06.04.061,oddball,2022.1.2,60.025919207589,
10,,,,,0,0,0,2,7,0,7,0,16,0,16,0,,,,,,,,,,,,,,,,,864.7672468996607,None,865.4338700999506,866.0342196999118,866.0177412997,868.0185026996769,None,1,0.6091773300431669,2.609925129916519,decreament,0.6,21,standard,None,100,,,,,,,,f,21,216,fr,r,0,raw,2022-05-31_10h06.04.061,oddball,2022.1.2,60.025919207589,
10,,,,,0,0,0,2,7,0,7,0,17,0,17,0,,,,,,,,,,,,,,,,,868.0348398997448,None,868.7687486000359,869.368729100097,869.3519353000447,871.3530199998058,None,1,0.6072919298894703,2.6084737298078835,decreament,0.6,21,standard,None,100,,,,,,,,f,21,216,fr,r,0,raw,2022-05-31_10h06.04.061,oddball,2022.1.2,60.025919207589,
10,,,,,0,0,0,2,7,0,7,0,18,0,18,0,,,,,,,,,,,,,,,,,871.3694122000597,None,871.9529498997144,872.5530091999099,872.5365643999539,874.5371946999803,None,1,0.6112222298979759,2.611865729559213,decreament,0.6,21,standard,None,100,,,,,,,,f,21,216,fr,r,0,raw,2022-05-31_10h06.04.061,oddball,2022.1.2,60.025919207589,
10,,,,,0,0,0,2,7,0,7,0,19,0,19,0,,,,,,,,,,,,,,,,,874.5539839998819,None,875.1875418000855,875.7883152998984,875.7715440997854,877.7716922997497,None,1,0.613048730418086,2.612905530259013,decreament,0.6,21,standard,None,100,,,,,,,,f,21,216,fr,r,0,raw,2022-05-31_10h06.04.061,oddball,2022.1.2,60.025919207589,
10,,,,,0,0,0,2,7,0,7,0,20,0,20,0,,,,,,,,,,,,,,,,,877.7884859996848,None,878.4387022997253,879.039478499908,879.022541699931,881.0228888997808,None,1,0.6128093302249908,2.613056730479002,decreament,0.6,21,standard,None,100,,,,,,,,f,21,216,fr,r,0,raw,2022-05-31_10h06.04.061,oddball,2022.1.2,60.025919207589,
10,,,,,0,0,0,2,7,0,7,0,21,0,21,0,,,,,,,,,,,,,,,,,881.0398539998569,None,881.7064740997739,882.3068964998238,882.2902385001071,884.2911028000526,None,1,0.6122408304363489,2.6131345303729177,decreament,0.6,21,standard,None,100,,,,,,,,f,21,216,fr,r,0,raw,2022-05-31_10h06.04.061,oddball,2022.1.2,60.025919207589,
10,,,,,0,0,0,2,7,0,7,0,22,0,22,0,,,,,,,,,,,,,,,,,884.3077885000966,None,884.9912775997072,885.5914115998894,885.5750273000449,887.5754311000928,None,1,0.6129756295122206,2.6133200298063457,decreament,0.6,21,standard,None,100,,,,,,,,f,21,216,fr,r,0,raw,2022-05-31_10h06.04.061,oddball,2022.1.2,60.025919207589,
10,,,,,0,0,0,2,7,0,7,0,23,0,23,0,,,,,,,,,,,,,,,,,887.5920742996968,None,888.2427302999422,888.7262244997546,888.6925646997988,890.6933613996953,None,0,0.48065042961388826,2.481475729495287,decreament,0.48,24,oddball,j,80,,,,,,,,f,21,216,fr,r,0,raw,2022-05-31_10h06.04.061,oddball,2022.1.2,60.025919207589,
10,,,,,0,0,0,2,7,0,7,0,24,0,24,0,,,,,,,,,,,,,,,,,890.7100447998382,None,891.4108934998512,892.010706699919,891.9939875998534,893.9947906997986,None,1,0.6093567302450538,2.610116130206734,decreament,0.6,21,standard,None,100,,,,,,,,f,21,216,fr,r,0,raw,2022-05-31_10h06.04.061,oddball,2022.1.2,60.025919207589,
10,,,,,0,0,0,2,7,0,7,0,25,0,25,0,,,,,,,,,,,,,,,,,894.0113768000156,None,894.8115624999627,895.4117982997559,895.3954489999451,897.3959172000177,None,1,0.6124796299263835,2.6129542300477624,decreament,0.6,21,standard,None,100,,,,,,,,f,21,216,fr,r,0,raw,2022-05-31_10h06.04.061,oddball,2022.1.2,60.025919207589,
10,,,,,0,0,0,2,7,0,7,0,26,0,26,0,,,,,,,,,,,,,,,,,897.4126363997348,None,897.9795055999421,898.5795921999961,898.5628802999854,900.5636128000915,None,1,0.6090970300137997,2.6098299296572804,decreament,0.6,21,standard,None,100,,,,,,,,f,21,216,fr,r,0,raw,2022-05-31_10h06.04.061,oddball,2022.1.2,60.025919207589,
10,,,,,0,0,0,2,7,0,7,0,27,0,27,0,,,,,,,,,,,,,,,,,900.5806100000627,None,901.1805727998726,901.7811878998764,901.7644952000119,903.7651448999532,None,1,0.6134269302710891,2.6140620303340256,decreament,0.6,21,standard,None,100,,,,,,,,f,21,216,fr,r,0,raw,2022-05-31_10h06.04.061,oddball,2022.1.2,60.025919207589,
10,,,,,0,0,0,2,7,0,7,0,28,0,28,0,,,,,,,,,,,,,,,,,903.7817123997957,None,904.332242500037,904.9320696000941,904.9155292999931,906.9167311000638,None,1,0.611837730742991,2.613182630389929,decreament,0.6,21,standard,None,100,,,,,,,,f,21,216,fr,r,0,raw,2022-05-31_10h06.04.061,oddball,2022.1.2,60.025919207589,
10,,,,,0,0,0,2,7,0,7,0,29,0,29,0,,,,,,,,,,,,,,,,,906.9336891998537,None,907.6664575999603,908.2671093996614,908.2501600999385,910.25099759968,None,1,0.6122471303679049,2.6131806303747,decreament,0.6,21,standard,None,100,,,,,,,,f,21,216,fr,r,0,raw,2022-05-31_10h06.04.061,oddball,2022.1.2,60.025919207589,
10,,,,,0,0,0,2,8,0,8,0,0,0,0,0,,,,,,,,,,,,,,,912.540355599951,None,917.9038555999286,None,918.5038772998378,919.1040250998922,919.088024399709,921.0884241000749,None,1,0.613649430219084,2.613983829971403,increament,0.6,25,standard,None,100,,910.2714649997652,None,,,,,f,21,216,fr,r,0,raw,2022-05-31_10h06.04.061,oddball,2022.1.2,60.025919207589,
10,,,,,0,0,0,2,8,0,8,0,1,0,1,0,,,,,,,,,,,,,,,,,921.1051338999532,None,921.638588400092,922.2388392998837,922.2219698000699,924.2231016000733,None,1,0.6111672301776707,2.6123465304262936,increament,0.6,25,standard,None,100,,,,,,,,f,21,216,fr,r,0,raw,2022-05-31_10h06.04.061,oddball,2022.1.2,60.025919207589,
10,,,,,0,0,0,2,8,0,8,0,2,0,2,0,,,,,,,,,,,,,,,,,924.2404408999719,None,925.0068247998133,925.6069585997611,925.590417099651,927.5905895996839,None,1,0.61304462980479,2.6131135299801826,increament,0.6,25,standard,None,100,,,,,,,,f,21,216,fr,r,0,raw,2022-05-31_10h06.04.061,oddball,2022.1.2,60.025919207589,
10,,,,,0,0,0,2,8,0,8,0,3,0,3,0,,,,,,,,,,,,,,,,,927.6075889999047,None,928.1575869000517,928.7577808001079,928.7414357000962,930.7418154999614,None,1,0.6108304304070771,2.611155930440873,increament,0.6,25,standard,None,100,,,,,,,,f,21,216,fr,r,0,raw,2022-05-31_10h06.04.061,oddball,2022.1.2,60.025919207589,
10,,,,,0,0,0,2,8,0,8,0,4,0,4,0,,,,,,,,,,,,,,,,,930.7585454997607,None,931.4088113000616,932.0088903000578,931.9923446998,933.9932289998978,None,1,0.6125760306604207,2.613503430504352,increament,0.6,25,standard,None,100,,,,,,,,f,21,216,fr,r,0,raw,2022-05-31_10h06.04.061,oddball,2022.1.2,60.025919207589,
10,,,,,0,0,0,2,8,0,8,0,5,0,5,0,,,,,,,,,,,,,,,,,934.0096975998022,None,934.5604155999608,935.1605481998995,935.143836800009,937.1449321997352,None,1,0.6123919300734997,2.613598930183798,increament,0.6,25,standard,None,100,,,,,,,,f,21,216,fr,r,0,raw,2022-05-31_10h06.04.061,oddball,2022.1.2,60.025919207589,
10,,,,,0,0,0,2,8,0,8,0,6,0,6,0,,,,,,,,,,,,,,,,,937.1628446998075,None,937.8782277996652,938.4779018997215,938.4612559997477,940.4624024997465,None,1,0.6091712298803031,2.61034253006801,increament,0.6,25,standard,None,100,,,,,,,,f,21,216,fr,r,0,raw,2022-05-31_10h06.04.061,oddball,2022.1.2,60.025919207589,
10,,,,,0,0,0,2,8,0,8,0,7,0,7,0,,,,,,,,,,,,,,,,,940.4788399999961,None,941.129378600046,941.7294226996601,941.7127073998563,943.7131399000064,None,1,0.6120397299528122,2.612456529866904,increament,0.6,25,standard,None,100,,,,,,,,f,21,216,fr,r,0,raw,2022-05-31_10h06.04.061,oddball,2022.1.2,60.025919207589,
10,,,,,0,0,0,2,8,0,8,0,8,0,8,0,,,,,,,,,,,,,,,,,943.7297991998494,None,944.3804566999897,944.9807381997816,944.9644025997259,946.9650734998286,None,1,0.6132968296296895,2.613972829654813,increament,0.6,25,standard,None,100,,,,,,,,f,21,216,fr,r,0,raw,2022-05-31_10h06.04.061,oddball,2022.1.2,60.025919207589,
10,,,,,0,0,0,2,8,0,8,0,9,0,9,0,,,,,,,,,,,,,,,,,946.9829572997987,None,947.6821596999653,948.2818863000721,948.2658373001032,950.2660366999917,None,1,0.608460929710418,2.6086388300172985,increament,0.6,25,standard,None,100,,,,,,,,f,21,216,fr,r,0,raw,2022-05-31_10h06.04.061,oddball,2022.1.2,60.025919207589,
10,,,,,0,0,0,2,8,0,8,0,10,0,10,0,,,,,,,,,,,,,,,,,950.2825160999782,None,950.8492270996794,951.4498894000426,951.4329924997874,953.4340531998314,None,1,0.6141559295356274,2.615236929617822,increament,0.6,25,standard,None,100,,,,,,,,f,21,216,fr,r,0,raw,2022-05-31_10h06.04.061,oddball,2022.1.2,60.025919207589,
10,,,,,0,0,0,2,8,0,8,0,11,0,11,0,,,,,,,,,,,,,,,,,953.4507431997918,None,954.1675701998174,954.7681960999034,954.751341199968,956.7520606000908,None,1,0.6120879300870001,2.612815230153501,increament,0.6,25,standard,None,100,,,,,,,,f,21,216,fr,r,0,raw,2022-05-31_10h06.04.061,oddball,2022.1.2,60.025919207589,
10,,,,,0,0,0,2,8,0,8,0,12,0,12,0,,,,,,,,,,,,,,,,,956.7685405998491,None,957.4188618999906,958.0192073998041,958.0027669998817,960.0031443000771,None,1,0.6102091302163899,2.610572330188006,increament,0.6,25,standard,None,100,,,,,,,,f,21,216,fr,r,0,raw,2022-05-31_10h06.04.061,oddball,2022.1.2,60.025919207589,
10,,,,,0,0,0,2,8,0,8,0,13,0,13,0,,,,,,,,,,,,,,,,,960.019641299732,None,960.5533241997473,961.1538658998907,961.1370155001059,963.1374431001022,None,1,0.613466729875654,2.61384573020041,increament,0.6,25,standard,None,100,,,,,,,,f,21,216,fr,r,0,raw,2022-05-31_10h06.04.061,oddball,2022.1.2,60.025919207589,
10,,,,,0,0,0,2,8,0,8,0,14,0,14,0,,,,,,,,,,,,,,,,,963.1541603999212,None,964.0213484000415,964.6216200999916,964.6049051997252,966.6055836998858,None,1,0.6103416299447417,2.6109842299483716,increament,0.6,25,standard,None,100,,,,,,,,f,21,216,fr,r,0,raw,2022-05-31_10h06.04.061,oddball,2022.1.2,60.025919207589,
10,,,,,0,0,0,2,8,0,8,0,15,0,15,0,,,,,,,,,,,,,,,,,966.6222848999314,None,967.2223725998774,967.8230812000111,967.8062383998185,969.8066890998743,None,1,0.6148478300310671,2.6151897301897407,increament,0.6,25,standard,None,100,,,,,,,,f,21,216,fr,r,0,raw,2022-05-31_10h06.04.061,oddball,2022.1.2,60.025919207589,
10,,,,,0,0,0,2,8,0,8,0,16,0,16,0,,,,,,,,,,,,,,,,,969.8234194996767,None,970.3903377996758,971.240700500086,971.207343599759,973.2078692000359,None,0,0.8447321304120123,2.845198730006814,increament,0.84,27,oddball,j,140,,,,,,,,f,21,216,fr,r,0,raw,2022-05-31_10h06.04.061,oddball,2022.1.2,60.025919207589,
10,,,,,0,0,0,2,8,0,8,0,17,0,17,0,,,,,,,,,,,,,,,,,973.2246505999938,None,973.8251755996607,974.4253488997929,974.4088571998291,976.4094453998841,None,1,0.6099166302010417,2.610471430234611,increament,0.6,25,standard,None,100,,,,,,,,f,21,216,fr,r,0,raw,2022-05-31_10h06.04.061,oddball,2022.1.2,60.025919207589,
10,,,,,0,0,0,2,8,0,8,0,18,0,18,0,,,,,,,,,,,,,,,,,976.425880599767,None,977.1597711998038,977.7601113999262,977.7434568000026,979.743855800014,None,1,0.6096302303485572,2.610024730209261,increament,0.6,25,standard,None,100,,,,,,,,f,21,216,fr,r,0,raw,2022-05-31_10h06.04.061,oddball,2022.1.2,60.025919207589,
10,,,,,0,0,0,2,8,0,8,0,19,0,19,0,,,,,,,,,,,,,,,,,979.760542999953,None,980.3442023997195,980.944269800093,980.927479499951,982.9284640997648,None,1,0.60928223002702,2.6103424299508333,increament,0.6,25,standard,None,100,,,,,,,,f,21,216,fr,r,0,raw,2022-05-31_10h06.04.061,oddball,2022.1.2,60.025919207589,
10,,,,,0,0,0,2,8,0,8,0,20,0,20,0,,,,,,,,,,,,,,,,,982.9451231998391,None,983.7453300999478,984.4791411999613,984.4461520998739,986.4467051997781,None,0,0.7295410297811031,2.730056829750538,increament,0.72,26,oddball,j,120,,,,,,,,f,21,216,fr,r,0,raw,2022-05-31_10h06.04.061,oddball,2022.1.2,60.025919207589,
10,,,,,0,0,0,2,8,0,8,0,21,0,21,0,,,,,,,,,,,,,,,,,986.4642666000873,None,987.12987970002,987.7301690001041,987.713649299927,989.7141676996835,None,1,0.6098196296952665,2.6103057297877967,increament,0.6,25,standard,None,100,,,,,,,,f,21,216,fr,r,0,raw,2022-05-31_10h06.04.061,oddball,2022.1.2,60.025919207589,
10,,,,,0,0,0,2,8,0,8,0,22,0,22,0,,,,,,,,,,,,,,,,,989.7307816999964,None,990.3480686997063,990.9481216999702,990.9314228999428,992.932533599902,None,1,0.6121342298574746,2.61336802970618,increament,0.6,25,standard,None,100,,,,,,,,f,21,216,fr,r,0,raw,2022-05-31_10h06.04.061,oddball,2022.1.2,60.025919207589,
10,,,,,0,0,0,2,8,0,8,0,23,0,23,0,,,,,,,,,,,,,,,,,992.948966300115,None,993.5496181999333,994.1493182000704,994.1325745997019,996.1334838997573,None,1,0.6089672301895916,2.6098569305613637,increament,0.6,25,standard,None,100,,,,,,,,f,21,216,fr,r,0,raw,2022-05-31_10h06.04.061,oddball,2022.1.2,60.025919207589,
10,,,,,0,0,0,2,8,0,8,0,24,0,24,0,,,,,,,,,,,,,,,,,996.1500558997504,None,996.7842337996699,997.3838893999346,997.3670065999031,999.3680886998773,None,1,0.6098954300396144,2.611048729624599,increament,0.6,25,standard,None,100,,,,,,,,f,21,216,fr,r,0,raw,2022-05-31_10h06.04.061,oddball,2022.1.2,60.025919207589,
10,,,,,0,0,0,2,8,0,8,0,25,0,25,0,,,,,,,,,,,,,,,,,999.3848711997271,None,999.9851744999178,1000.5850657001138,1000.5683395001106,1002.5693689999171,None,1,0.6095016300678253,2.6106163300573826,increament,0.6,25,standard,None,100,,,,,,,,f,21,216,fr,r,0,raw,2022-05-31_10h06.04.061,oddball,2022.1.2,60.025919207589,
10,,,,,0,0,0,2,8,0,8,0,26,0,26,0,,,,,,,,,,,,,,,,,1002.5862580998801,None,1003.1529445000924,1003.7525826999918,1003.7360231997445,1005.7366487998515,None,1,0.6113747297786176,2.612049730028957,increament,0.6,25,standard,None,100,,,,,,,,f,21,216,fr,r,0,raw,2022-05-31_10h06.04.061,oddball,2022.1.2,60.025919207589,
10,,,,,0,0,0,2,8,0,8,0,27,0,27,0,,,,,,,,,,,,,,,,,1005.7534523997456,None,1006.3875627000816,1006.9873684998602,1006.9708313997835,1008.9719603997655,None,1,0.6092209303751588,2.6104088304564357,increament,0.6,25,standard,None,100,,,,,,,,f,21,216,fr,r,0,raw,2022-05-31_10h06.04.061,oddball,2022.1.2,60.025919207589,
10,,,,,0,0,0,2,8,0,8,0,28,0,28,0,,,,,,,,,,,,,,,,,1008.9882001997903,None,1009.6385798999108,1010.6057414999232,1010.5721662999131,1012.5727784000337,None,0,0.9628679300658405,2.9634653301909566,increament,0.96,28,oddball,j,160,,,,,,,,f,21,216,fr,r,0,raw,2022-05-31_10h06.04.061,oddball,2022.1.2,60.025919207589,
10,,,,,0,0,0,2,8,0,8,0,29,0,29,0,,,,,,,,,,,,,,,,,1012.5894157998264,None,1013.1566836996935,1013.7567644999363,1013.740132200066,1015.7407800001092,None,1,0.6091996300965548,2.609799230005592,increament,0.6,25,standard,None,100,,,,,,,,f,21,216,fr,r,0,raw,2022-05-31_10h06.04.061,oddball,2022.1.2,60.025919207589,
10,,,,,0,0,0,2,9,0,9,0,0,0,0,0,,,,,,,,,,,,,,,1016.7846364998259,None,1025.2276432998478,None,1025.9780234000646,1026.578414299991,1026.5615698997863,1028.5624540001154,None,1,0.6119260299019516,2.6128047299571335,decreament,0.6,21,standard,None,100,,1015.7578173996881,None,,,,,f,21,216,fr,r,0,raw,2022-05-31_10h06.04.061,oddball,2022.1.2,60.025919207589,
10,,,,,0,0,0,2,9,0,9,0,1,0,1,0,,,,,,,,,,,,,,,,,1028.5790721001104,None,1029.1960950000212,1029.7958982000127,1029.7793566999026,1031.7803087998182,None,1,0.6121599301695824,2.6131256301887333,decreament,0.6,21,standard,None,100,,,,,,,,f,21,216,fr,r,0,raw,2022-05-31_10h06.04.061,oddball,2022.1.2,60.025919207589,
10,,,,,0,0,0,2,9,0,9,0,2,0,2,0,,,,,,,,,,,,,,,,,1031.7969988998957,None,1032.4137017000467,1033.0139160999097,1032.997379399836,1034.9978410997428,None,1,0.6123329303227365,2.6127905300818384,decreament,0.6,21,standard,None,100,,,,,,,,f,21,216,fr,r,0,raw,2022-05-31_10h06.04.061,oddball,2022.1.2,60.025919207589,
10,,,,,0,0,0,2,9,0,9,0,3,0,3,0,,,,,,,,,,,,,,,,,1035.0146335996687,None,1035.6481520999223,1036.2487298999913,1036.231933800038,1038.232502900064,None,1,0.6130153303965926,2.61355243017897,decreament,0.6,21,standard,None,100,,,,,,,,f,21,216,fr,r,0,raw,2022-05-31_10h06.04.061,oddball,2022.1.2,60.025919207589,
10,,,,,0,0,0,2,9,0,9,0,4,0,4,0,,,,,,,,,,,,,,,,,1038.2492912998423,None,1038.8995922999457,1039.4996501998976,1039.483287899755,1041.4838564996608,None,1,0.6132144299335778,2.6137674297206104,decreament,0.6,21,standard,None,100,,,,,,,,f,21,216,fr,r,0,raw,2022-05-31_10h06.04.061,oddball,2022.1.2,60.025919207589,
10,,,,,0,0,0,2,9,0,9,0,5,0,5,0,,,,,,,,,,,,,,,,,1041.5008066999726,None,1042.1011855998076,1042.7007944998331,1042.6846368997358,1044.6850644000806,None,1,0.6115596303716302,2.6120002306997776,decreament,0.6,21,standard,None,100,,,,,,,,f,21,216,fr,r,0,raw,2022-05-31_10h06.04.061,oddball,2022.1.2,60.025919207589,
10,,,,,0,0,0,2,9,0,9,0,6,0,6,0,,,,,,,,,,,,,,,,,1044.7017072997987,None,1045.268907399848,1045.8686953000724,1045.8522652997635,1047.8528800997883,None,1,0.6104579302482307,2.611063130199909,decreament,0.6,21,standard,None,100,,,,,,,,f,21,216,fr,r,0,raw,2022-05-31_10h06.04.061,oddball,2022.1.2,60.025919207589,
10,,,,,0,0,0,2,9,0,9,0,7,0,7,0,,,,,,,,,,,,,,,,,1047.8695749999024,None,1048.4704324998893,1049.070340000093,1049.0537640997209,1051.0542176999152,None,1,0.6100325300358236,2.61042582988739,decreament,0.6,21,standard,None,100,,,,,,,,f,21,216,fr,r,0,raw,2022-05-31_10h06.04.061,oddball,2022.1.2,60.025919207589,
10,,,,,0,0,0,2,9,0,9,0,8,0,8,0,,,,,,,,,,,,,,,,,1051.0708595998585,None,1051.6876996997744,1052.0549041000195,1052.0212439997122,1054.0218601999804,j,1,0.36210843035951257,2.3626955305226147,decreament,0.36,23,oddball,j,60,1.1367542003281415,,,,,,,f,21,216,fr,r,0,raw,2022-05-31_10h06.04.061,oddball,2022.1.2,60.025919207589,
10,,,,,0,0,0,2,9,0,9,0,9,0,9,0,,,,,,,,,,,,,,,,,1054.0387686998583,None,1054.5557113001123,1055.1559315999039,1055.139480299782,1057.1398299997672,None,1,0.6125367302447557,2.612848130054772,decreament,0.6,21,standard,None,100,,,,,,,,f,21,216,fr,r,0,raw,2022-05-31_10h06.04.061,oddball,2022.1.2,60.025919207589,
10,,,,,0,0,0,2,9,0,9,0,10,0,10,0,,,,,,,,,,,,,,,,,1057.1564885000698,None,1057.7900187997147,1058.390501999762,1058.3737053000368,1060.3744156998582,None,1,0.611991330049932,2.612664029933512,decreament,0.6,21,standard,None,100,,,,,,,,f,21,216,fr,r,0,raw,2022-05-31_10h06.04.061,oddball,2022.1.2,60.025919207589,
10,,,,,0,0,0,2,9,0,9,0,11,0,11,0,,,,,,,,,,,,,,,,,1060.3909503999166,None,1061.1582545996644,1061.758514400106,1061.7420143000782,1063.7422893997282,None,1,0.6097291298210621,2.6099740299396217,decreament,0.6,21,standard,None,100,,,,,,,,f,21,216,fr,r,0,raw,2022-05-31_10h06.04.061,oddball,2022.1.2,60.025919207589,
10,,,,,0,0,0,2,9,0,9,0,12,0,12,0,,,,,,,,,,,,,,,,,1063.759071199689,None,1064.492354199756,1065.0932141998783,1065.0762613997795,1067.0769940996543,None,1,0.6140164299868047,2.614651930052787,decreament,0.6,21,standard,None,100,,,,,,,,f,21,216,fr,r,0,raw,2022-05-31_10h06.04.061,oddball,2022.1.2,60.025919207589,
10,,,,,0,0,0,2,9,0,9,0,13,0,13,0,,,,,,,,,,,,,,,,,1067.093887399882,None,1067.7270180997439,1068.3273199000396,1068.3107614996843,1070.311694199685,None,1,0.6133988299407065,2.6143644298426807,decreament,0.6,21,standard,None,100,,,,,,,,f,21,216,fr,r,0,raw,2022-05-31_10h06.04.061,oddball,2022.1.2,60.025919207589,
10,,,,,0,0,0,2,9,0,9,0,14,0,14,0,,,,,,,,,,,,,,,,,1070.3288527000695,None,1071.011762399692,1071.6116801998578,1071.595112899784,1073.5960319996811,None,1,0.6115725296549499,2.6125201298855245,decreament,0.6,21,standard,None,100,,,,,,,,f,21,216,fr,r,0,raw,2022-05-31_10h06.04.061,oddball,2022.1.2,60.025919207589,
10,,,,,0,0,0,2,9,0,9,0,15,0,15,0,,,,,,,,,,,,,,,,,1073.6126129999757,None,1074.3132850998081,1074.9131859000772,1074.896490199957,1076.89724319987,None,1,0.6081734299659729,2.608948129694909,decreament,0.6,21,standard,None,100,,,,,,,,f,21,216,fr,r,0,raw,2022-05-31_10h06.04.061,oddball,2022.1.2,60.025919207589,
10,,,,,0,0,0,2,9,0,9,0,16,0,16,0,,,,,,,,,,,,,,,,,1076.9142873999663,None,1077.5815113997087,1078.1810754998587,1078.164864799939,1080.1654113000259,None,1,0.6101632299833,2.610668229870498,decreament,0.6,21,standard,None,100,,,,,,,,f,21,216,fr,r,0,raw,2022-05-31_10h06.04.061,oddball,2022.1.2,60.025919207589,
10,,,,,0,0,0,2,9,0,9,0,17,0,17,0,,,,,,,,,,,,,,,,,1080.1818051999435,None,1080.6990815000609,1081.1827464997768,1081.165802499745,1083.1663230000995,None,0,0.4916524300351739,2.4920933302491903,decreament,0.48,24,oddball,j,80,,,,,,,,f,21,216,fr,r,0,raw,2022-05-31_10h06.04.061,oddball,2022.1.2,60.025919207589,
10,,,,,0,0,0,2,9,0,9,0,18,0,18,0,,,,,,,,,,,,,,,,,1083.1829353999346,None,1083.8335754997097,1084.4335439000279,1084.416986499913,1086.4178132996894,None,1,0.6097083301283419,2.6105058300308883,decreament,0.6,21,standard,None,100,,,,,,,,f,21,216,fr,r,0,raw,2022-05-31_10h06.04.061,oddball,2022.1.2,60.025919207589,
10,,,,,0,0,0,2,9,0,9,0,19,0,19,0,,,,,,,,,,,,,,,,,1086.4342534998432,None,1087.0012479000725,1087.6014807997271,1087.5848762998357,1089.585878700018,None,1,0.6124339303933084,2.613497030455619,decreament,0.6,21,standard,None,100,,,,,,,,f,21,216,fr,r,0,raw,2022-05-31_10h06.04.061,oddball,2022.1.2,60.025919207589,
10,,,,,0,0,0,2,9,0,9,0,20,0,20,0,,,,,,,,,,,,,,,,,1089.6026645000093,None,1090.218760699965,1090.8193274997175,1090.8025468001142,1092.8036189000122,None,1,0.6147504295222461,2.6158806295134127,decreament,0.6,21,standard,None,100,,,,,,,,f,21,216,fr,r,0,raw,2022-05-31_10h06.04.061,oddball,2022.1.2,60.025919207589,
10,,,,,0,0,0,2,9,0,9,0,21,0,21,0,,,,,,,,,,,,,,,,,1092.8198188999668,None,1093.437182799913,1094.036962499842,1094.0203551999293,1096.0211551999673,None,1,0.6112542301416397,2.6121087302453816,decreament,0.6,21,standard,None,100,,,,,,,,f,21,216,fr,r,0,raw,2022-05-31_10h06.04.061,oddball,2022.1.2,60.025919207589,
10,,,,,0,0,0,2,9,0,9,0,22,0,22,0,,,,,,,,,,,,,,,,,1096.0383659000508,None,1096.6383307999931,1097.238275199663,1097.2216006000526,1099.222083099652,None,1,0.6122024301439524,2.612627930007875,decreament,0.6,21,standard,None,100,,,,,,,,f,21,216,fr,r,0,raw,2022-05-31_10h06.04.061,oddball,2022.1.2,60.025919207589,
10,,,,,0,0,0,2,9,0,9,0,23,0,23,0,,,,,,,,,,,,,,,,,1099.238878000062,None,1099.8225563000888,1100.4231476997957,1100.4067655000836,1102.4068613001145,None,1,0.6136654303409159,2.613662430550903,decreament,0.6,21,standard,None,100,,,,,,,,f,21,216,fr,r,0,raw,2022-05-31_10h06.04.061,oddball,2022.1.2,60.025919207589,
10,,,,,0,0,0,2,9,0,9,0,24,0,24,0,,,,,,,,,,,,,,,,,1102.4238388999365,None,1103.0741155999713,1103.6742551000789,1103.6577053996734,1105.6581270997413,None,1,0.610568730160594,2.610992530360818,decreament,0.6,21,standard,None,100,,,,,,,,f,21,216,fr,r,0,raw,2022-05-31_10h06.04.061,oddball,2022.1.2,60.025919207589,
10,,,,,0,0,0,2,9,0,9,0,25,0,25,0,,,,,,,,,,,,,,,,,1105.675071499776,None,1106.3419385999441,1106.9421083997004,1106.9256098996848,1108.9261400997639,None,1,0.6125749303027987,2.6131640300154686,decreament,0.6,21,standard,None,100,,,,,,,,f,21,216,fr,r,0,raw,2022-05-31_10h06.04.061,oddball,2022.1.2,60.025919207589,
10,,,,,0,0,0,2,9,0,9,0,26,0,26,0,,,,,,,,,,,,,,,,,1108.9427966997027,None,1109.5096946000122,1110.110111199785,1110.093662600033,1112.0937099996954,None,1,0.614063429646194,2.6140327295288444,decreament,0.6,21,standard,None,100,,,,,,,,f,21,216,fr,r,0,raw,2022-05-31_10h06.04.061,oddball,2022.1.2,60.025919207589,
10,,,,,0,0,0,2,9,0,9,0,27,0,27,0,,,,,,,,,,,,,,,,,1112.1104937996715,None,1112.8607509001158,1113.1111926999874,1113.077885699924,1115.078510500025,j,1,0.2468633302487433,2.247488030232489,decreament,0.24,22,oddball,j,40,0.8734184997156262,,,,,,,f,21,216,fr,r,0,raw,2022-05-31_10h06.04.061,oddball,2022.1.2,60.025919207589,
10,,,,,0,0,0,2,9,0,9,0,28,0,28,0,,,,,,,,,,,,,,,,,1115.0951080997474,None,1115.8288869000971,1116.429035099689,1116.412551699672,1118.4130552997813,None,1,0.6134239304810762,2.6138308304362,decreament,0.6,21,standard,None,100,,,,,,,,f,21,216,fr,r,0,raw,2022-05-31_10h06.04.061,oddball,2022.1.2,60.025919207589,
10,,,,,0,0,0,2,9,0,9,0,29,0,29,0,,,,,,,,,,,,,,,,,1118.4298048997298,None,1119.0130706997588,1119.6135684996843,1119.5969201000407,1121.5975428000093,None,1,0.6129632298834622,2.61359152989462,decreament,0.6,21,standard,None,100,,,,,,,,f,21,216,fr,r,0,raw,2022-05-31_10h06.04.061,oddball,2022.1.2,60.025919207589,
5,,,,,0,1,1,1,0,0,0,0,0,0,0,0,,,,,,,,,,,,,,,1307.5282212998718,None,1309.8524206997827,None,1310.6859740000218,1311.2859986000694,1311.2692857999355,1313.2699523996562,None,1,0.6111823301762342,2.611855630297214,increament,0.6,15,standard,None,100,,1301.6492361999117,None,1121.6342217000201,None,,,f,21,216,fr,r,0,raw,2022-05-31_10h06.04.061,oddball,2022.1.2,60.025919207589,
5,,,,,0,1,1,1,0,0,0,0,1,0,1,0,,,,,,,,,,,,,,,,,1313.286808299832,None,1313.9375367998146,1314.5377607997507,1314.5209031999111,1316.5213631996885,None,1,0.6084732306189835,2.608867930714041,increament,0.6,15,standard,None,100,,,,,,,,f,21,216,fr,r,0,raw,2022-05-31_10h06.04.061,oddball,2022.1.2,60.025919207589,
5,,,,,0,1,1,1,0,0,0,0,2,0,2,0,,,,,,,,,,,,,,,,,1316.5380359999835,None,1317.2385625001043,1317.8388580000028,1317.8220687997527,1319.8226406998,None,1,0.6088136304169893,2.6093263304792345,increament,0.6,15,standard,None,100,,,,,,,,f,21,216,fr,r,0,raw,2022-05-31_10h06.04.061,oddball,2022.1.2,60.025919207589,
5,,,,,0,1,1,1,0,0,0,0,3,0,3,0,,,,,,,,,,,,,,,,,1319.8394174999557,None,1320.5567679996602,1321.1564821996726,1321.1399056999944,1323.1403181999922,None,1,0.6090519302524626,2.6094431304372847,increament,0.6,15,standard,None,100,,,,,,,,f,21,216,fr,r,0,raw,2022-05-31_10h06.04.061,oddball,2022.1.2,60.025919207589,
5,,,,,0,1,1,1,0,0,0,0,4,0,4,0,,,,,,,,,,,,,,,,,1323.1572606996633,None,1323.9075116999447,1324.5078336996958,1324.4913453999907,1326.491813099943,None,1,0.6121504297479987,2.6124802296981215,increament,0.6,15,standard,None,100,,,,,,,,f,21,216,fr,r,0,raw,2022-05-31_10h06.04.061,oddball,2022.1.2,60.025919207589,
5,,,,,0,1,1,1,0,0,0,0,5,0,5,0,,,,,,,,,,,,,,,,,1326.508488399908,None,1327.1418906999752,1327.74260160001,1327.7259251996875,1329.7266641999595,None,1,0.6137074301950634,2.6144286300987005,increament,0.6,15,standard,None,100,,,,,,,,f,21,216,fr,r,0,raw,2022-05-31_10h06.04.061,oddball,2022.1.2,60.025919207589,
5,,,,,0,1,1,1,0,0,0,0,6,0,6,0,,,,,,,,,,,,,,,,,1329.7430328000337,None,1330.4767021997832,1331.0769533999264,1331.0603545997292,1333.0611662999727,None,1,0.6125641297549009,2.6134412297978997,increament,0.6,15,standard,None,100,,,,,,,,f,21,216,fr,r,0,raw,2022-05-31_10h06.04.061,oddball,2022.1.2,60.025919207589,
5,,,,,0,1,1,1,0,0,0,0,7,0,7,0,,,,,,,,,,,,,,,,,1333.077449799981,None,1333.7278672000393,1334.461710399948,1334.428460800089,1336.4288256000727,None,0,0.726275329478085,2.72660282952711,increament,0.72,16,oddball,j,120,,,,,,,,f,21,216,fr,r,0,raw,2022-05-31_10h06.04.061,oddball,2022.1.2,60.025919207589,
5,,,,,0,1,1,1,0,0,0,0,8,0,8,0,,,,,,,,,,,,,,,,,1336.4456277000718,None,1337.112696999684,1337.7126452997327,1337.6962214000523,1339.6970077999867,None,1,0.6128320298157632,2.6136734299361706,increament,0.6,15,standard,None,100,,,,,,,,f,21,216,fr,r,0,raw,2022-05-31_10h06.04.061,oddball,2022.1.2,60.025919207589,
5,,,,,0,1,1,1,0,0,0,0,9,0,9,0,,,,,,,,,,,,,,,,,1339.7136184996925,None,1340.2304662996903,1340.8305033999495,1340.814208699856,1342.8148485999554,None,1,0.6139700300991535,2.6145944301970303,increament,0.6,15,standard,None,100,,,,,,,,f,21,216,fr,r,0,raw,2022-05-31_10h06.04.061,oddball,2022.1.2,60.025919207589,
5,,,,,0,1,1,1,0,0,0,0,10,0,10,0,,,,,,,,,,,,,,,,,1342.8313938998617,None,1343.4983880999498,1344.0987042998895,1344.081829200033,1346.0826542000286,None,1,0.6122512305155396,2.613085630815476,increament,0.6,15,standard,None,100,,,,,,,,f,21,216,fr,r,0,raw,2022-05-31_10h06.04.061,oddball,2022.1.2,60.025919207589,
5,,,,,0,1,1,1,0,0,0,0,11,0,11,0,,,,,,,,,,,,,,,,,1346.09924949985,None,1346.7664012997411,1347.3664382998832,1347.349701799918,1349.3502332000062,None,1,0.6120399297215044,2.6125469296239316,increament,0.6,15,standard,None,100,,,,,,,,f,21,216,fr,r,0,raw,2022-05-31_10h06.04.061,oddball,2022.1.2,60.025919207589,
5,,,,,0,1,1,1,0,0,0,0,12,0,12,0,,,,,,,,,,,,,,,,,1349.367090899963,None,1349.917633399833,1350.5180699997582,1350.5010345000774,1352.5015589999966,None,1,0.6117849303409457,2.612275030463934,increament,0.6,15,standard,None,100,,,,,,,,f,21,216,fr,r,0,raw,2022-05-31_10h06.04.061,oddball,2022.1.2,60.025919207589,
5,,,,,0,1,1,1,0,0,0,0,13,0,13,0,,,,,,,,,,,,,,,,,1352.5183891998604,None,1353.1185180996545,1353.7191017000005,1353.702567699831,1355.7027773996815,None,1,0.6137486305087805,2.613852730486542,increament,0.6,15,standard,None,100,,,,,,,,f,21,216,fr,r,0,raw,2022-05-31_10h06.04.061,oddball,2022.1.2,60.025919207589,
5,,,,,0,1,1,1,0,0,0,0,14,0,14,0,,,,,,,,,,,,,,,,,1355.7196408999152,None,1356.436973599717,1357.036698400043,1357.0202195998281,1359.020930599887,None,1,0.6103597297333181,2.6111517297104,increament,0.6,15,standard,None,100,,,,,,,,f,21,216,fr,r,0,raw,2022-05-31_10h06.04.061,oddball,2022.1.2,60.025919207589,
5,,,,,0,1,1,1,0,0,0,0,15,0,15,0,,,,,,,,,,,,,,,,,1359.0376983997412,None,1359.570883399807,1360.17111320002,1360.15456599975,1362.155727100093,None,1,0.6121373306959867,2.6133867306634784,increament,0.6,15,standard,None,100,,,,,,,,f,21,216,fr,r,0,raw,2022-05-31_10h06.04.061,oddball,2022.1.2,60.025919207589,
