grating_freq,blocks_prac.thisRepN,blocks_prac.thisTrialN,blocks_prac.thisN,blocks_prac.thisIndex,blocks.thisRepN,blocks.thisTrialN,blocks.thisN,blocks.thisIndex,repeat_freq.thisRepN,repeat_freq.thisTrialN,repeat_freq.thisN,repeat_freq.thisIndex,trials.thisRepN,trials.thisTrialN,trials.thisN,trials.thisIndex,break_loop.thisRepN,break_loop.thisTrialN,break_loop.thisN,break_loop.thisIndex,rest_loop.thisRepN,rest_loop.thisTrialN,rest_loop.thisN,rest_loop.thisIndex,instruct_prac_text.started,instruct_prac_text.stopped,b_instruct_text_2_.started,b_instruct_text_2_.stopped,prac_done_text.started,prac_done_text.stopped,instruct_text.started,instruct_text.stopped,fixation.started,fixation.stopped,grating.started,grating.stopped,blank.started,blank.stopped,resp.keys,resp.corr,resp.started,resp.stopped,direction,duration,trigger,stim_type,corr_ans,scaling,resp.rt,rest_text.started,rest_text.stopped,text_2.started,text_2.stopped,thx_txt.started,thx_txt.stopped,gender,age,participant,language,main_hand,nBlock_prac,file_suffix,date,expName,psychopyVersion,frameRate,
20,,,,,0,0,0,3,0,0,0,0,0,0,0,0,,,,,,,,,26.888804299756885,None,39.671946099959314,None,41.77870289981365,None,45.183495100121945,None,52.192865899764,None,52.85407749982551,53.46020929981023,53.39344169991091,55.39454559981823,None,1,0.6086784498766065,2.609889649786055,increament,0.6,45,standard,None,100,,,,,,,,f,21,218,fr,r,0,raw,2022-06-03_10h22.16.241,oddball,2022.1.2,60.03615369759294,
20,,,,,0,0,0,3,0,0,0,0,1,0,1,0,,,,,,,,,,,,,,,,,55.41090379981324,None,55.97770899999887,56.578093599993736,56.56136990012601,58.56211580010131,None,1,0.612905350048095,2.613639250397682,increament,0.6,45,standard,None,100,,,,,,,,f,21,218,fr,r,0,raw,2022-06-03_10h22.16.241,oddball,2022.1.2,60.03615369759294,
20,,,,,0,0,0,3,0,0,0,0,2,0,2,0,,,,,,,,,,,,,,,,,58.57882060017437,None,59.26243030000478,59.86261470010504,59.84635559981689,61.846845199819654,None,1,0.6121269497089088,2.6126043498516083,increament,0.6,45,standard,None,100,,,,,,,,f,21,218,fr,r,0,raw,2022-06-03_10h22.16.241,oddball,2022.1.2,60.03615369759294,
20,,,,,0,0,0,3,0,0,0,0,3,0,3,0,,,,,,,,,,,,,,,,,61.86372270016,None,62.41377170011401,63.01369210006669,62.99698479985818,64.99772940017283,None,1,0.611037049908191,2.611759649589658,increament,0.6,45,standard,None,100,,,,,,,,f,21,218,fr,r,0,raw,2022-06-03_10h22.16.241,oddball,2022.1.2,60.03615369759294,
20,,,,,0,0,0,3,0,0,0,0,4,0,4,0,,,,,,,,,,,,,,,,,65.01447949977592,None,65.71467979997396,66.31476440001279,66.29823900014162,68.29904939979315,None,1,0.6128718499094248,2.613713650032878,increament,0.6,45,standard,None,100,,,,,,,,f,21,218,fr,r,0,raw,2022-06-03_10h22.16.241,oddball,2022.1.2,60.03615369759294,
20,,,,,0,0,0,3,0,0,0,0,5,0,5,0,,,,,,,,,,,,,,,,,68.31580629991367,None,68.86584089975804,69.46613609977067,69.44955929974094,71.45048190001398,None,1,0.6121777505613863,2.6131316502578557,increament,0.6,45,standard,None,100,,,,,,,,f,21,218,fr,r,0,raw,2022-06-03_10h22.16.241,oddball,2022.1.2,60.03615369759294,
20,,,,,0,0,0,3,0,0,0,0,6,0,6,0,,,,,,,,,,,,,,,,,71.46707279980183,None,72.16723230015486,72.76732849981636,72.751070600003,74.75203029997647,None,1,0.6097074500285089,2.6107993498444557,increament,0.6,45,standard,None,100,,,,,,,,f,21,218,fr,r,0,raw,2022-06-03_10h22.16.241,oddball,2022.1.2,60.03615369759294,
20,,,,,0,0,0,3,0,0,0,0,7,0,7,0,,,,,,,,,,,,,,,,,74.7707067001611,None,75.43521070014685,76.03531919978559,76.01857399987057,78.01925370004028,None,1,0.6133014499209821,2.613972050137818,increament,0.6,45,standard,None,100,,,,,,,,f,21,218,fr,r,0,raw,2022-06-03_10h22.16.241,oddball,2022.1.2,60.03615369759294,
20,,,,,0,0,0,3,0,0,0,0,8,0,8,0,,,,,,,,,,,,,,,,,78.03612479986623,None,78.73636560002342,79.33662390010431,79.31997769977897,81.32057480001822,None,1,0.6130766496062279,2.6136539499275386,increament,0.6,45,standard,None,100,,,,,,,,f,21,218,fr,r,0,raw,2022-06-03_10h22.16.241,oddball,2022.1.2,60.03615369759294,
20,,,,,0,0,0,3,0,0,0,0,9,0,9,0,,,,,,,,,,,,,,,,,81.33746080007404,None,82.02108330000192,82.98810780001804,82.95468749990687,84.95532139996067,j,1,0.9626910500228405,2.9632939496077597,increament,0.96,48,oddball,j,160,0.012960600201040506,,,,,,,f,21,218,fr,r,0,raw,2022-06-03_10h22.16.241,oddball,2022.1.2,60.03615369759294,
20,,,,,0,0,0,3,0,0,0,0,10,0,10,0,,,,,,,,,,,,,,,,,84.9721642001532,None,85.68920380016789,86.28923270013183,86.27306069992483,88.27388759981841,None,1,0.6126960502006114,2.6135487500578165,increament,0.6,45,standard,None,100,,,,,,,,f,21,218,fr,r,0,raw,2022-06-03_10h22.16.241,oddball,2022.1.2,60.03615369759294,
20,,,,,0,0,0,3,0,0,0,0,11,0,11,0,,,,,,,,,,,,,,,,,88.29002319974825,None,88.99012359976768,89.59043700015172,89.5738380998373,91.57491059973836,None,1,0.612508149817586,2.6137108500115573,increament,0.6,45,standard,None,100,,,,,,,,f,21,218,fr,r,0,raw,2022-06-03_10h22.16.241,oddball,2022.1.2,60.03615369759294,
20,,,,,0,0,0,3,0,0,0,0,12,0,12,0,,,,,,,,,,,,,,,,,91.59146460006014,None,92.34143259981647,92.9419619999826,92.92514599999413,94.92604599986225,None,1,0.6133286505937576,2.6142301503568888,increament,0.6,45,standard,None,100,,,,,,,,f,21,218,fr,r,0,raw,2022-06-03_10h22.16.241,oddball,2022.1.2,60.03615369759294,
20,,,,,0,0,0,3,0,0,0,0,13,0,13,0,,,,,,,,,,,,,,,,,94.9427442997694,None,95.65932209976017,96.25979640008882,96.24351100018248,98.24384729983285,None,1,0.6138040497899055,2.6140895495191216,increament,0.6,45,standard,None,100,,,,,,,,f,21,218,fr,r,0,raw,2022-06-03_10h22.16.241,oddball,2022.1.2,60.03615369759294,
20,,,,,0,0,0,3,0,0,0,0,14,0,14,0,,,,,,,,,,,,,,,,,98.26055660005659,None,98.91069140005857,99.5109228999354,99.49426549999043,101.49486779980361,None,1,0.6132998499087989,2.6138777500018477,increament,0.6,45,standard,None,100,,,,,,,,f,21,218,fr,r,0,raw,2022-06-03_10h22.16.241,oddball,2022.1.2,60.03615369759294,
20,,,,,0,0,0,3,0,0,0,0,15,0,15,0,,,,,,,,,,,,,,,,,101.5116034001112,None,102.16196350008249,102.76251209992915,102.74572179978713,104.74644370004535,None,1,0.6135862497612834,2.6144746500067413,increament,0.6,45,standard,None,100,,,,,,,,f,21,218,fr,r,0,raw,2022-06-03_10h22.16.241,oddball,2022.1.2,60.03615369759294,
20,,,,,0,0,0,3,0,0,0,0,16,0,16,0,,,,,,,,,,,,,,,,,104.76305670011789,None,105.59680539974943,106.44719670014456,106.4135019001551,108.41436319984496,None,0,0.8428930500522256,2.8437821501865983,increament,0.84,47,oddball,j,140,,,,,,,,f,21,218,fr,r,0,raw,2022-06-03_10h22.16.241,oddball,2022.1.2,60.03615369759294,
20,,,,,0,0,0,3,0,0,0,0,17,0,17,0,,,,,,,,,,,,,,,,,108.43122799973935,None,109.08107780013233,109.6816330999136,109.66481520002708,111.66539620002732,None,1,0.6135796499438584,2.6141357496380806,increament,0.6,45,standard,None,100,,,,,,,,f,21,218,fr,r,0,raw,2022-06-03_10h22.16.241,oddball,2022.1.2,60.03615369759294,
20,,,,,0,0,0,3,0,0,0,0,18,0,18,0,,,,,,,,,,,,,,,,,111.68221820006147,None,112.19933759979904,112.79936969978735,112.78303210018203,114.78355700010434,None,1,0.6121466495096684,2.6127276495099068,increament,0.6,45,standard,None,100,,,,,,,,f,21,218,fr,r,0,raw,2022-06-03_10h22.16.241,oddball,2022.1.2,60.03615369759294,
20,,,,,0,0,0,3,0,0,0,0,19,0,19,0,,,,,,,,,,,,,,,,,114.80046229995787,None,115.40070619992912,116.0001838998869,115.98354570008814,117.98457970004529,None,1,0.6093406500294805,2.6104170503094792,increament,0.6,45,standard,None,100,,,,,,,,f,21,218,fr,r,0,raw,2022-06-03_10h22.16.241,oddball,2022.1.2,60.03615369759294,
20,,,,,0,0,0,3,0,0,0,0,20,0,20,0,,,,,,,,,,,,,,,,,118.0012678001076,None,118.70151469996199,119.30213219998404,119.28501929994673,121.28592350007966,j,0,0.6092283502221107,2.6101858499459922,increament,0.6,45,standard,None,100,1.2023622002452612,,,,,,,f,21,218,fr,r,0,raw,2022-06-03_10h22.16.241,oddball,2022.1.2,60.03615369759294,
20,,,,,0,0,0,3,0,0,0,0,21,0,21,0,,,,,,,,,,,,,,,,,121.302355799824,None,121.96936379978433,122.56973670003936,122.5531994998455,124.55374660016969,None,1,0.6135854497551918,2.6141391494311392,increament,0.6,45,standard,None,100,,,,,,,,f,21,218,fr,r,0,raw,2022-06-03_10h22.16.241,oddball,2022.1.2,60.03615369759294,
20,,,,,0,0,0,3,0,0,0,0,22,0,22,0,,,,,,,,,,,,,,,,,124.57070889975876,None,125.23754550004378,125.83747019991279,125.82088869996369,127.82186059979722,None,1,0.6120970495976508,2.6131305499002337,increament,0.6,45,standard,None,100,,,,,,,,f,21,218,fr,r,0,raw,2022-06-03_10h22.16.241,oddball,2022.1.2,60.03615369759294,
20,,,,,0,0,0,3,0,0,0,0,23,0,23,0,,,,,,,,,,,,,,,,,127.83962059998885,None,128.48877030005679,129.08869080012664,129.0722869997844,131.07302800007164,None,1,0.6113457498140633,2.6121261501684785,increament,0.6,45,standard,None,100,,,,,,,,f,21,218,fr,r,0,raw,2022-06-03_10h22.16.241,oddball,2022.1.2,60.03615369759294,
20,,,,,0,0,0,3,0,0,0,0,24,0,24,0,,,,,,,,,,,,,,,,,131.08993390016258,None,131.88989870017394,132.48998539987952,132.47329739993438,134.47420280007645,None,1,0.6117720501497388,2.6126873502507806,increament,0.6,45,standard,None,100,,,,,,,,f,21,218,fr,r,0,raw,2022-06-03_10h22.16.241,oddball,2022.1.2,60.03615369759294,
20,,,,,0,0,0,3,0,0,0,0,25,0,25,0,,,,,,,,,,,,,,,,,134.49107859982178,None,135.15765629988164,135.75795170012861,135.7412668997422,137.74194259988144,None,1,0.6132550500333309,2.6139044500887394,increament,0.6,45,standard,None,100,,,,,,,,f,21,218,fr,r,0,raw,2022-06-03_10h22.16.241,oddball,2022.1.2,60.03615369759294,
20,,,,,0,0,0,3,0,0,0,0,26,0,26,0,,,,,,,,,,,,,,,,,137.7585613001138,None,138.37559599988163,138.97611819999292,138.9595932001248,140.96005839994177,j,0,0.6139731495641172,2.614384749904275,increament,0.6,45,standard,None,100,0.5923698004335165,,,,,,,f,21,218,fr,r,0,raw,2022-06-03_10h22.16.241,oddball,2022.1.2,60.03615369759294,
20,,,,,0,0,0,3,0,0,0,0,27,0,27,0,,,,,,,,,,,,,,,,,140.9766804999672,None,141.5105245001614,142.1106281997636,142.09393130009994,144.09432499995455,None,1,0.6079100500792265,2.6082713501527905,increament,0.6,45,standard,None,100,,,,,,,,f,21,218,fr,r,0,raw,2022-06-03_10h22.16.241,oddball,2022.1.2,60.03615369759294,
20,,,,,0,0,0,3,0,0,0,0,28,0,28,0,,,,,,,,,,,,,,,,,144.11114729987457,None,144.77813610015437,145.51172180008143,145.4787229001522,147.4789980999194,j,1,0.7292833500541747,2.729483850300312,increament,0.72,46,oddball,j,120,0.3837523004040122,,,,,,,f,21,218,fr,r,0,raw,2022-06-03_10h22.16.241,oddball,2022.1.2,60.03615369759294,
20,,,,,0,0,0,3,0,0,0,0,29,0,29,0,,,,,,,,,,,,,,,,,147.49583589984104,None,148.2465019999072,148.8463213001378,148.82954890001565,150.8304257998243,None,1,0.60912024974823,2.6100034499540925,increament,0.6,45,standard,None,100,,,,,,,,f,21,218,fr,r,0,raw,2022-06-03_10h22.16.241,oddball,2022.1.2,60.03615369759294,
20,,,,,0,0,0,3,1,0,1,0,0,0,0,0,,,,,,,,,,,,,,,157.7312892000191,None,161.41762399999425,None,162.03475099988282,162.6347958999686,162.6180513999425,164.61913920007646,None,1,0.6108653503470123,2.61201945040375,decreament,0.6,41,standard,None,100,,150.84760079998523,None,,,,,f,21,218,fr,r,0,raw,2022-06-03_10h22.16.241,oddball,2022.1.2,60.03615369759294,
20,,,,,0,0,0,3,1,0,1,0,1,0,1,0,,,,,,,,,,,,,,,,,164.63730539986864,None,165.33612990006804,165.93606079975143,165.90255660004914,167.903735099826,None,1,0.5990526503883302,2.6003386504016817,decreament,0.6,41,standard,None,100,,,,,,,,f,21,218,fr,r,0,raw,2022-06-03_10h22.16.241,oddball,2022.1.2,60.03615369759294,
20,,,,,0,0,0,3,1,0,1,0,2,0,2,0,,,,,,,,,,,,,,,,,167.9202934000641,None,168.55363949993625,169.15419009979814,169.13746930006891,171.13805399974808,None,1,0.613478550221771,2.614075650461018,decreament,0.6,41,standard,None,100,,,,,,,,f,21,218,fr,r,0,raw,2022-06-03_10h22.16.241,oddball,2022.1.2,60.03615369759294,
20,,,,,0,0,0,3,1,0,1,0,3,0,3,0,,,,,,,,,,,,,,,,,171.15467429999262,None,171.80503739975393,172.40520559996367,172.38864440005273,174.389625699725,None,1,0.6125782504677773,2.6136348503641784,decreament,0.6,41,standard,None,100,,,,,,,,f,21,218,fr,r,0,raw,2022-06-03_10h22.16.241,oddball,2022.1.2,60.03615369759294,
20,,,,,0,0,0,3,1,0,1,0,4,0,4,0,,,,,,,,,,,,,,,,,174.40615249983966,None,175.1398939001374,175.74013709975407,175.7230940000154,177.72413240000606,None,1,0.6093068495392799,2.6103796497918665,decreament,0.6,41,standard,None,100,,,,,,,,f,21,218,fr,r,0,raw,2022-06-03_10h22.16.241,oddball,2022.1.2,60.03615369759294,
20,,,,,0,0,0,3,1,0,1,0,5,0,5,0,,,,,,,,,,,,,,,,,177.74072120012715,None,178.45744229992852,178.707613799721,178.6742825000547,180.67510510003194,j,1,0.2472960501909256,2.248093150090426,decreament,0.24,42,oddball,j,40,0.8696465003304183,,,,,,,f,21,218,fr,r,0,raw,2022-06-03_10h22.16.241,oddball,2022.1.2,60.03615369759294,
20,,,,,0,0,0,3,1,0,1,0,6,0,6,0,,,,,,,,,,,,,,,,,180.69169929996133,None,181.27507139975205,181.875301099848,181.8587477998808,183.85995909990743,None,1,0.6133507499471307,2.614698850084096,decreament,0.6,41,standard,None,100,,,,,,,,f,21,218,fr,r,0,raw,2022-06-03_10h22.16.241,oddball,2022.1.2,60.03615369759294,
20,,,,,0,0,0,3,1,0,1,0,7,0,7,0,,,,,,,,,,,,,,,,,183.876176699996,None,184.4428932000883,185.0431655999273,185.02672159997746,187.02745229983702,None,1,0.6125268503092229,2.6133150500245392,decreament,0.6,41,standard,None,100,,,,,,,,f,21,218,fr,r,0,raw,2022-06-03_10h22.16.241,oddball,2022.1.2,60.03615369759294,
20,,,,,0,0,0,3,1,0,1,0,8,0,8,0,,,,,,,,,,,,,,,,,187.04440589994192,None,187.79436289984733,188.3946369001642,188.37783619994298,190.378841499798,None,1,0.6138520501554012,2.6148962499573827,decreament,0.6,41,standard,None,100,,,,,,,,f,21,218,fr,r,0,raw,2022-06-03_10h22.16.241,oddball,2022.1.2,60.03615369759294,
20,,,,,0,0,0,3,1,0,1,0,9,0,9,0,,,,,,,,,,,,,,,,,190.39554419973865,None,190.92917850008234,191.52898859977722,191.512682300061,193.51301279990003,None,1,0.6115115499123931,2.6118189501576126,decreament,0.6,41,standard,None,100,,,,,,,,f,21,218,fr,r,0,raw,2022-06-03_10h22.16.241,oddball,2022.1.2,60.03615369759294,
20,,,,,0,0,0,3,1,0,1,0,10,0,10,0,,,,,,,,,,,,,,,,,193.52972010010853,None,194.1303783999756,194.73026289977133,194.71353380009532,196.71522209979594,None,1,0.6115469499491155,2.613398150075227,decreament,0.6,41,standard,None,100,,,,,,,,f,21,218,fr,r,0,raw,2022-06-03_10h22.16.241,oddball,2022.1.2,60.03615369759294,
20,,,,,0,0,0,3,1,0,1,0,11,0,11,0,,,,,,,,,,,,,,,,,196.73133479990065,None,197.41498130001128,198.01481809979305,197.99869279982522,199.99963680002838,None,1,0.6113867494277656,2.6124151493422687,decreament,0.6,41,standard,None,100,,,,,,,,f,21,218,fr,r,0,raw,2022-06-03_10h22.16.241,oddball,2022.1.2,60.03615369759294,
20,,,,,0,0,0,3,1,0,1,0,12,0,12,0,,,,,,,,,,,,,,,,,200.01791519997641,None,200.6155201997608,201.2165643000044,201.19960429985076,203.199684899766,None,1,0.6145815500058234,2.6145496503449976,decreament,0.6,41,standard,None,100,,,,,,,,f,21,218,fr,r,0,raw,2022-06-03_10h22.16.241,oddball,2022.1.2,60.03615369759294,
20,,,,,0,0,0,3,1,0,1,0,13,0,13,0,,,,,,,,,,,,,,,,,203.21636539977044,None,203.81688689999282,204.41726210014895,204.40078310016543,206.4013446001336,None,1,0.6154608498327434,2.6157118501141667,decreament,0.6,41,standard,None,100,,,,,,,,f,21,218,fr,r,0,raw,2022-06-03_10h22.16.241,oddball,2022.1.2,60.03615369759294,
20,,,,,0,0,0,3,1,0,1,0,14,0,14,0,,,,,,,,,,,,,,,,,206.41798269981518,None,207.11833359999582,207.718434299808,207.70184639981017,209.70298240007833,None,1,0.612100750207901,2.613289849832654,decreament,0.6,41,standard,None,100,,,,,,,,f,21,218,fr,r,0,raw,2022-06-03_10h22.16.241,oddball,2022.1.2,60.03615369759294,
20,,,,,0,0,0,3,1,0,1,0,15,0,15,0,,,,,,,,,,,,,,,,,209.71956919971853,None,210.33619009982795,210.93636479973793,210.91958869993687,212.92076169978827,None,1,0.6138025503605604,2.615011450368911,decreament,0.6,41,standard,None,100,,,,,,,,f,21,218,fr,r,0,raw,2022-06-03_10h22.16.241,oddball,2022.1.2,60.03615369759294,
20,,,,,0,0,0,3,1,0,1,0,16,0,16,0,,,,,,,,,,,,,,,,,212.9377334001474,None,213.57065320014954,214.0543590998277,214.02122339978814,216.02179889986292,None,0,0.48091714968904853,2.4814448496326804,decreament,0.48,44,oddball,j,80,,,,,,,,f,21,218,fr,r,0,raw,2022-06-03_10h22.16.241,oddball,2022.1.2,60.03615369759294,
20,,,,,0,0,0,3,1,0,1,0,17,0,17,0,,,,,,,,,,,,,,,,,216.03839469980448,None,216.75541889993474,217.35585180018097,217.33898880006745,219.33974230010062,None,1,0.609674250241369,2.6104002501815557,decreament,0.6,41,standard,None,100,,,,,,,,f,21,218,fr,r,0,raw,2022-06-03_10h22.16.241,oddball,2022.1.2,60.03615369759294,
20,,,,,0,0,0,3,1,0,1,0,18,0,18,0,,,,,,,,,,,,,,,,,219.3563708998263,None,220.03993179975078,220.6400659000501,220.62348179984838,222.6245217998512,None,1,0.612878349609673,2.6139963497407734,decreament,0.6,41,standard,None,100,,,,,,,,f,21,218,fr,r,0,raw,2022-06-03_10h22.16.241,oddball,2022.1.2,60.03615369759294,
20,,,,,0,0,0,3,1,0,1,0,19,0,19,0,,,,,,,,,,,,,,,,,222.64097529975697,None,223.30776350013912,223.90801039990038,223.89156239992008,225.89202769985422,None,1,0.6106357499957085,2.6110631502233446,decreament,0.6,41,standard,None,100,,,,,,,,f,21,218,fr,r,0,raw,2022-06-03_10h22.16.241,oddball,2022.1.2,60.03615369759294,
20,,,,,0,0,0,3,1,0,1,0,20,0,20,0,,,,,,,,,,,,,,,,,225.90854369988665,None,226.57630420010537,227.17591719981283,227.15902369981632,229.16008719988167,j,0,0.6125407502986491,2.6136353500187397,decreament,0.6,41,standard,None,100,0.24868129985406995,,,,,,,f,21,218,fr,r,0,raw,2022-06-03_10h22.16.241,oddball,2022.1.2,60.03615369759294,
20,,,,,0,0,0,3,1,0,1,0,21,0,21,0,,,,,,,,,,,,,,,,,229.1767609999515,None,229.94417499983683,230.5440850998275,230.5272025000304,232.52828249987215,None,1,0.6075725499540567,2.60868205036968,decreament,0.6,41,standard,None,100,,,,,,,,f,21,218,fr,r,0,raw,2022-06-03_10h22.16.241,oddball,2022.1.2,60.03615369759294,
20,,,,,0,0,0,3,1,0,1,0,22,0,22,0,,,,,,,,,,,,,,,,,232.5466140001081,None,233.17789130005985,233.544581099879,233.5113054998219,235.51202220004052,j,1,0.3644944499246776,2.3651747503317893,decreament,0.36,43,oddball,j,60,0.8000588999129832,,,,,,,f,21,218,fr,r,0,raw,2022-06-03_10h22.16.241,oddball,2022.1.2,60.03615369759294,
20,,,,,0,0,0,3,1,0,1,0,23,0,23,0,,,,,,,,,,,,,,,,,235.52862050011754,None,236.2458457001485,236.84629180002958,236.8295613997616,238.83039729995653,None,1,0.6146333497017622,2.6155078494921327,decreament,0.6,41,standard,None,100,,,,,,,,f,21,218,fr,r,0,raw,2022-06-03_10h22.16.241,oddball,2022.1.2,60.03615369759294,
20,,,,,0,0,0,3,1,0,1,0,24,0,24,0,,,,,,,,,,,,,,,,,238.84695559972897,None,239.4974309997633,240.09745540004224,240.08115219976753,242.08158050011843,None,1,0.6099775498732924,2.61044484982267,decreament,0.6,41,standard,None,100,,,,,,,,f,21,218,fr,r,0,raw,2022-06-03_10h22.16.241,oddball,2022.1.2,60.03615369759294,
20,,,,,0,0,0,3,1,0,1,0,25,0,25,0,,,,,,,,,,,,,,,,,242.09818980004638,None,242.73175129992887,243.33225119998679,243.31569280009717,245.3157236999832,None,1,0.614402649924159,2.614320649765432,decreament,0.6,41,standard,None,100,,,,,,,,f,21,218,fr,r,0,raw,2022-06-03_10h22.16.241,oddball,2022.1.2,60.03615369759294,
20,,,,,0,0,0,3,1,0,1,0,26,0,26,0,,,,,,,,,,,,,,,,,245.33251310000196,None,245.966347000096,246.5665866001509,246.5500670997426,248.55064789997414,None,1,0.612230550032109,2.6127739502117038,decreament,0.6,41,standard,None,100,,,,,,,,f,21,218,fr,r,0,raw,2022-06-03_10h22.16.241,oddball,2022.1.2,60.03615369759294,
20,,,,,0,0,0,3,1,0,1,0,27,0,27,0,,,,,,,,,,,,,,,,,248.5674350000918,None,249.30108249979094,249.90112489974126,249.884912900161,251.88521890016273,None,1,0.6127889500930905,2.6130741499364376,decreament,0.6,41,standard,None,100,,,,,,,,f,21,218,fr,r,0,raw,2022-06-03_10h22.16.241,oddball,2022.1.2,60.03615369759294,
20,,,,,0,0,0,3,1,0,1,0,28,0,28,0,,,,,,,,,,,,,,,,,251.90180329978466,None,252.6193674998358,253.2190331001766,253.20255680009723,255.20322290016338,None,1,0.6128452494740486,2.613485749345273,decreament,0.6,41,standard,None,100,,,,,,,,f,21,218,fr,r,0,raw,2022-06-03_10h22.16.241,oddball,2022.1.2,60.03615369759294,
20,,,,,0,0,0,3,1,0,1,0,29,0,29,0,,,,,,,,,,,,,,,,,255.2197866998613,None,255.90364959975705,256.5036967997439,256.48720089998096,258.48854959988967,None,1,0.6117259496822953,2.6131402496248484,decreament,0.6,41,standard,None,100,,,,,,,,f,21,218,fr,r,0,raw,2022-06-03_10h22.16.241,oddball,2022.1.2,60.03615369759294,
20,,,,,0,0,0,3,2,0,2,0,0,0,0,0,,,,,,,,,,,,,,,262.3454554998316,None,265.0735780997202,None,265.67398239998147,266.27427949989215,266.2575603998266,268.2583364001475,None,1,0.61213035043329,2.6128948503173888,increament,0.6,45,standard,None,100,,258.5091205998324,None,,,,,f,21,218,fr,r,0,raw,2022-06-03_10h22.16.241,oddball,2022.1.2,60.03615369759294,
20,,,,,0,0,0,3,2,0,2,0,1,0,1,0,,,,,,,,,,,,,,,,,268.2749751000665,None,269.0086436998099,269.60878149978817,269.5921090999618,271.59300450002775,None,1,0.6124906502664089,2.6134790503419936,increament,0.6,45,standard,None,100,,,,,,,,f,21,218,fr,r,0,raw,2022-06-03_10h22.16.241,oddball,2022.1.2,60.03615369759294,
20,,,,,0,0,0,3,2,0,2,0,2,0,2,0,,,,,,,,,,,,,,,,,271.6095122997649,None,272.27662089979276,272.87623209971935,272.85965889971703,274.86079469975084,None,1,0.610799249727279,2.611959249712527,increament,0.6,45,standard,None,100,,,,,,,,f,21,218,fr,r,0,raw,2022-06-03_10h22.16.241,oddball,2022.1.2,60.03615369759294,
20,,,,,0,0,0,3,2,0,2,0,3,0,3,0,,,,,,,,,,,,,,,,,274.87769699981436,None,275.5779173998162,276.17782020010054,276.1612205998972,278.1622592001222,None,1,0.6113955504260957,2.6124971504323184,increament,0.6,45,standard,None,100,,,,,,,,f,21,218,fr,r,0,raw,2022-06-03_10h22.16.241,oddball,2022.1.2,60.03615369759294,
20,,,,,0,0,0,3,2,0,2,0,4,0,4,0,,,,,,,,,,,,,,,,,278.17882259981707,None,278.86215719999745,279.4626473998651,279.4455578001216,281.4464067998342,None,1,0.6121309502050281,2.6129668499343097,increament,0.6,45,standard,None,100,,,,,,,,f,21,218,fr,r,0,raw,2022-06-03_10h22.16.241,oddball,2022.1.2,60.03615369759294,
20,,,,,0,0,0,3,2,0,2,0,5,0,5,0,,,,,,,,,,,,,,,,,281.46319699985906,None,282.01370960008353,282.6134608001448,282.5968225998804,284.5980735998601,None,1,0.6094627501443028,2.610794949810952,increament,0.6,45,standard,None,100,,,,,,,,f,21,218,fr,r,0,raw,2022-06-03_10h22.16.241,oddball,2022.1.2,60.03615369759294,
20,,,,,0,0,0,3,2,0,2,0,6,0,6,0,,,,,,,,,,,,,,,,,284.61455219984055,None,285.2145467000082,285.8148416997865,285.7981576998718,287.79889359977096,None,1,0.6124077495187521,2.6131057497113943,increament,0.6,45,standard,None,100,,,,,,,,f,21,218,fr,r,0,raw,2022-06-03_10h22.16.241,oddball,2022.1.2,60.03615369759294,
20,,,,,0,0,0,3,2,0,2,0,7,0,7,0,,,,,,,,,,,,,,,,,287.8156123999506,None,288.499709200114,289.0997327999212,289.08305969974026,291.08393150009215,None,1,0.6127245500683784,2.613615350332111,increament,0.6,45,standard,None,100,,,,,,,,f,21,218,fr,r,0,raw,2022-06-03_10h22.16.241,oddball,2022.1.2,60.03615369759294,
20,,,,,0,0,0,3,2,0,2,0,8,0,8,0,,,,,,,,,,,,,,,,,291.1017165998928,None,291.8006489998661,292.4008732000366,292.38388710003346,294.3847623998299,None,1,0.6123515497893095,2.6132714496925473,increament,0.6,45,standard,None,100,,,,,,,,f,21,218,fr,r,0,raw,2022-06-03_10h22.16.241,oddball,2022.1.2,60.03615369759294,
20,,,,,0,0,0,3,2,0,2,0,9,0,9,0,,,,,,,,,,,,,,,,,294.4017058997415,None,295.08513709995896,295.68532430008054,295.66853879997507,297.66988099971786,None,1,0.6131352493539453,2.6145866494625807,increament,0.6,45,standard,None,100,,,,,,,,f,21,218,fr,r,0,raw,2022-06-03_10h22.16.241,oddball,2022.1.2,60.03615369759294,
20,,,,,0,0,0,3,2,0,2,0,10,0,10,0,,,,,,,,,,,,,,,,,297.68595900014043,None,298.3031371999532,298.9033324001357,298.8863989999518,300.88728749984875,None,1,0.6093056499958038,2.610183050390333,increament,0.6,45,standard,None,100,,,,,,,,f,21,218,fr,r,0,raw,2022-06-03_10h22.16.241,oddball,2022.1.2,60.03615369759294,
20,,,,,0,0,0,3,2,0,2,0,11,0,11,0,,,,,,,,,,,,,,,,,300.9039257997647,None,301.65433599986136,302.2541809999384,302.23764519998804,304.2386583001353,None,1,0.6102500502020121,2.6113549498841166,increament,0.6,45,standard,None,100,,,,,,,,f,21,218,fr,r,0,raw,2022-06-03_10h22.16.241,oddball,2022.1.2,60.03615369759294,
20,,,,,0,0,0,3,2,0,2,0,12,0,12,0,,,,,,,,,,,,,,,,,304.25625950004905,None,304.95541949989274,305.55565400002524,305.5390797997825,307.53935649991035,None,1,0.6140144499950111,2.6142444498836994,increament,0.6,45,standard,None,100,,,,,,,,f,21,218,fr,r,0,raw,2022-06-03_10h22.16.241,oddball,2022.1.2,60.03615369759294,
20,,,,,0,0,0,3,2,0,2,0,13,0,13,0,,,,,,,,,,,,,,,,,307.55608259979635,None,308.2735745999962,309.2404666999355,309.2071027001366,311.2078503998928,j,1,0.96177624957636,2.9625355498865247,increament,0.96,48,oddball,j,160,0.29596030013635755,,,,,,,f,21,218,fr,r,0,raw,2022-06-03_10h22.16.241,oddball,2022.1.2,60.03615369759294,
20,,,,,0,0,0,3,2,0,2,0,14,0,14,0,,,,,,,,,,,,,,,,,311.22449659975246,None,312.04138359986246,312.64167239982635,312.6251956997439,314.6260771001689,None,1,0.612661549821496,2.613567150197923,increament,0.6,45,standard,None,100,,,,,,,,f,21,218,fr,r,0,raw,2022-06-03_10h22.16.241,oddball,2022.1.2,60.03615369759294,
20,,,,,0,0,0,3,2,0,2,0,15,0,15,0,,,,,,,,,,,,,,,,,314.6424505999312,None,315.24284560000524,315.8433102001436,315.8264902001247,317.82714230008423,None,1,0.6123422500677407,2.6129958499222994,increament,0.6,45,standard,None,100,,,,,,,,f,21,218,fr,r,0,raw,2022-06-03_10h22.16.241,oddball,2022.1.2,60.03615369759294,
20,,,,,0,0,0,3,2,0,2,0,16,0,16,0,,,,,,,,,,,,,,,,,317.84360729996115,None,318.4610346998088,319.0606968998909,319.04415579978377,321.0447656000033,None,1,0.6106955497525632,2.6113330498337746,increament,0.6,45,standard,None,100,,,,,,,,f,21,218,fr,r,0,raw,2022-06-03_10h22.16.241,oddball,2022.1.2,60.03615369759294,
20,,,,,0,0,0,3,2,0,2,0,17,0,17,0,,,,,,,,,,,,,,,,,321.06147009972483,None,321.8618247997947,322.4620134001598,322.44555239984766,324.4462259998545,None,1,0.6095295501872897,2.610207950230688,increament,0.6,45,standard,None,100,,,,,,,,f,21,218,fr,r,0,raw,2022-06-03_10h22.16.241,oddball,2022.1.2,60.03615369759294,
20,,,,,0,0,0,3,2,0,2,0,18,0,18,0,,,,,,,,,,,,,,,,,324.46295329974964,None,325.1468563997187,325.74663359997794,325.73014030000195,327.7307767998427,None,1,0.6075670500285923,2.6082380497828126,increament,0.6,45,standard,None,100,,,,,,,,f,21,218,fr,r,0,raw,2022-06-03_10h22.16.241,oddball,2022.1.2,60.03615369759294,
20,,,,,0,0,0,3,2,0,2,0,19,0,19,0,,,,,,,,,,,,,,,,,327.74757830007,None,328.3975598998368,329.2478410000913,329.21451460011303,331.2159023997374,None,0,0.8459655502811074,2.847443450242281,increament,0.84,47,oddball,j,140,,,,,,,,f,21,218,fr,r,0,raw,2022-06-03_10h22.16.241,oddball,2022.1.2,60.03615369759294,
20,,,,,0,0,0,3,2,0,2,0,20,0,20,0,,,,,,,,,,,,,,,,,331.2320424001664,None,331.99919909983873,332.59907530015334,332.58247969998047,334.58294979995117,None,1,0.6101637496612966,2.6106130494736135,increament,0.6,45,standard,None,100,,,,,,,,f,21,218,fr,r,0,raw,2022-06-03_10h22.16.241,oddball,2022.1.2,60.03615369759294,
20,,,,,0,0,0,3,2,0,2,0,21,0,21,0,,,,,,,,,,,,,,,,,334.5996340001002,None,335.13352489983663,335.73374069994316,335.7171597997658,337.7178678000346,None,1,0.6132458504289389,2.6139904502779245,increament,0.6,45,standard,None,100,,,,,,,,f,21,218,fr,r,0,raw,2022-06-03_10h22.16.241,oddball,2022.1.2,60.03615369759294,
20,,,,,0,0,0,3,2,0,2,0,22,0,22,0,,,,,,,,,,,,,,,,,337.7347250999883,None,338.4348581000231,339.0348772001453,339.0182988997549,341.019062299747,None,1,0.6104321498423815,2.611192049924284,increament,0.6,45,standard,None,100,,,,,,,,f,21,218,fr,r,0,raw,2022-06-03_10h22.16.241,oddball,2022.1.2,60.03615369759294,
20,,,,,0,0,0,3,2,0,2,0,23,0,23,0,,,,,,,,,,,,,,,,,341.03588279988617,None,341.75294779986143,342.35268240002915,342.3360850000754,344.3370783999562,None,1,0.6120885498821735,2.61312274960801,increament,0.6,45,standard,None,100,,,,,,,,f,21,218,fr,r,0,raw,2022-06-03_10h22.16.241,oddball,2022.1.2,60.03615369759294,
20,,,,,0,0,0,3,2,0,2,0,24,0,24,0,,,,,,,,,,,,,,,,,344.35366629995406,None,344.95389600005,345.55427879979834,345.5376961999573,347.53814199985936,None,1,0.6144201504066586,2.6148365503177047,increament,0.6,45,standard,None,100,,,,,,,,f,21,218,fr,r,0,raw,2022-06-03_10h22.16.241,oddball,2022.1.2,60.03615369759294,
20,,,,,0,0,0,3,2,0,2,0,25,0,25,0,,,,,,,,,,,,,,,,,347.55482729990035,None,348.22171289986,348.821761299856,348.80570220015943,350.80601739976555,j,0,0.6140406504273415,2.614355850033462,increament,0.6,45,standard,None,100,0.7373616001568735,,,,,,,f,21,218,fr,r,0,raw,2022-06-03_10h22.16.241,oddball,2022.1.2,60.03615369759294,
20,,,,,0,0,0,3,2,0,2,0,26,0,26,0,,,,,,,,,,,,,,,,,350.82276770006865,None,351.4730207999237,352.07332179974765,352.0564188999124,354.05744800018147,None,1,0.6126369498670101,2.613681450020522,increament,0.6,45,standard,None,100,,,,,,,,f,21,218,fr,r,0,raw,2022-06-03_10h22.16.241,oddball,2022.1.2,60.03615369759294,
20,,,,,0,0,0,3,2,0,2,0,27,0,27,0,,,,,,,,,,,,,,,,,354.07402839977294,None,354.65762139996514,355.391279600095,355.35776059981436,357.3584690997377,j,1,0.7264727498404682,2.7271590498276055,increament,0.72,46,oddball,j,120,0.3369927001185715,,,,,,,f,21,218,fr,r,0,raw,2022-06-03_10h22.16.241,oddball,2022.1.2,60.03615369759294,
20,,,,,0,0,0,3,2,0,2,0,28,0,28,0,,,,,,,,,,,,,,,,,357.375186199788,None,358.07567439973354,358.6756808999926,358.6590776001103,360.66034319996834,None,1,0.6114558498375118,2.612824350129813,increament,0.6,45,standard,None,100,,,,,,,,f,21,218,fr,r,0,raw,2022-06-03_10h22.16.241,oddball,2022.1.2,60.03615369759294,
20,,,,,0,0,0,3,2,0,2,0,29,0,29,0,,,,,,,,,,,,,,,,,360.67668720008805,None,361.32670240011066,361.9270843998529,361.9104360998608,363.91112220007926,None,1,0.6131166499108076,2.6138119497336447,increament,0.6,45,standard,None,100,,,,,,,,f,21,218,fr,r,0,raw,2022-06-03_10h22.16.241,oddball,2022.1.2,60.03615369759294,
20,,,,,0,0,0,3,3,0,3,0,0,0,0,0,,,,,,,,,,,,,,,370.5036806999706,None,376.6327881999314,None,377.24954590015113,377.84955309983343,377.83328500017524,379.83380259992555,None,1,0.6126420497894287,2.6131674493663013,decreament,0.6,41,standard,None,100,,363.9282419998199,None,,,,,f,21,218,fr,r,0,raw,2022-06-03_10h22.16.241,oddball,2022.1.2,60.03615369759294,
20,,,,,0,0,0,3,3,0,3,0,1,0,1,0,,,,,,,,,,,,,,,,,379.8508255998604,None,380.5007829000242,381.1008929000236,381.08434529975057,383.0849268999882,None,1,0.61376315029338,2.6143649499863386,decreament,0.6,41,standard,None,100,,,,,,,,f,21,218,fr,r,0,raw,2022-06-03_10h22.16.241,oddball,2022.1.2,60.03615369759294,
20,,,,,0,0,0,3,3,0,3,0,2,0,2,0,,,,,,,,,,,,,,,,,383.1017463998869,None,383.90196429984644,384.5027538998984,384.48609489994124,386.4858272001147,None,1,0.6138763502240181,2.613482150249183,decreament,0.6,41,standard,None,100,,,,,,,,f,21,218,fr,r,0,raw,2022-06-03_10h22.16.241,oddball,2022.1.2,60.03615369759294,
20,,,,,0,0,0,3,3,0,3,0,3,0,3,0,,,,,,,,,,,,,,,,,386.5024955999106,None,387.152828999795,387.75299130007625,387.7364071998745,389.73815430002287,None,1,0.6147744501940906,2.6166539499536157,decreament,0.6,41,standard,None,100,,,,,,,,f,21,218,fr,r,0,raw,2022-06-03_10h22.16.241,oddball,2022.1.2,60.03615369759294,
20,,,,,0,0,0,3,3,0,3,0,4,0,4,0,,,,,,,,,,,,,,,,,389.75413460005075,None,390.33805330004543,390.93781189993024,390.9211967997253,392.9221998997964,None,1,0.6120404493995011,2.6131179495714605,decreament,0.6,41,standard,None,100,,,,,,,,f,21,218,fr,r,0,raw,2022-06-03_10h22.16.241,oddball,2022.1.2,60.03615369759294,
20,,,,,0,0,0,3,3,0,3,0,5,0,5,0,,,,,,,,,,,,,,,,,392.9389367001131,None,393.6556791998446,394.2561411000788,394.23926609987393,396.24009869992733,None,1,0.6094378503039479,2.610310550313443,decreament,0.6,41,standard,None,100,,,,,,,,f,21,218,fr,r,0,raw,2022-06-03_10h22.16.241,oddball,2022.1.2,60.03615369759294,
20,,,,,0,0,0,3,3,0,3,0,6,0,6,0,,,,,,,,,,,,,,,,,396.25683329999447,None,396.9402680997737,397.5404179999605,397.523802400101,399.5247400999069,None,1,0.6129355495795608,2.614237649831921,decreament,0.6,41,standard,None,100,,,,,,,,f,21,218,fr,r,0,raw,2022-06-03_10h22.16.241,oddball,2022.1.2,60.03615369759294,
20,,,,,0,0,0,3,3,0,3,0,7,0,7,0,,,,,,,,,,,,,,,,,399.54119809996337,None,400.2080576000735,400.80831879982725,400.79179499996826,402.7926456001587,None,1,0.6128137498162687,2.6137367500923574,decreament,0.6,41,standard,None,100,,,,,,,,f,21,218,fr,r,0,raw,2022-06-03_10h22.16.241,oddball,2022.1.2,60.03615369759294,
20,,,,,0,0,0,3,3,0,3,0,8,0,8,0,,,,,,,,,,,,,,,,,402.8098343000747,None,403.42586810002103,404.0263736997731,404.0096263997257,406.0106003000401,None,1,0.6145389503799379,2.6155608505941927,decreament,0.6,41,standard,None,100,,,,,,,,f,21,218,fr,r,0,raw,2022-06-03_10h22.16.241,oddball,2022.1.2,60.03615369759294,
20,,,,,0,0,0,3,3,0,3,0,9,0,9,0,,,,,,,,,,,,,,,,,406.0272797001526,None,406.64398630009964,407.24423279985785,407.22768419981,409.2282672999427,None,1,0.6125283497385681,2.6130459499545395,decreament,0.6,41,standard,None,100,,,,,,,,f,21,218,fr,r,0,raw,2022-06-03_10h22.16.241,oddball,2022.1.2,60.03615369759294,
20,,,,,0,0,0,3,3,0,3,0,10,0,10,0,,,,,,,,,,,,,,,,,409.24500760016963,None,409.8116286001168,410.41222180007026,410.3956379001029,412.3961688997224,None,1,0.6138686500489712,2.6143994498997927,decreament,0.6,41,standard,None,100,,,,,,,,f,21,218,fr,r,0,raw,2022-06-03_10h22.16.241,oddball,2022.1.2,60.03615369759294,
20,,,,,0,0,0,3,3,0,3,0,11,0,11,0,,,,,,,,,,,,,,,,,412.41282310010865,None,413.0629107998684,413.5465561999008,413.51378499995917,415.5142792998813,None,0,0.4815383502282202,2.4820608501322567,decreament,0.48,44,oddball,j,80,,,,,,,,f,21,218,fr,r,0,raw,2022-06-03_10h22.16.241,oddball,2022.1.2,60.03615369759294,
20,,,,,0,0,0,3,3,0,3,0,12,0,12,0,,,,,,,,,,,,,,,,,415.5312342001125,None,416.28095829999074,416.8812673999928,416.86453279992566,418.8656000997871,None,1,0.6093325493857265,2.6104433494620025,decreament,0.6,41,standard,None,100,,,,,,,,f,21,218,fr,r,0,raw,2022-06-03_10h22.16.241,oddball,2022.1.2,60.03615369759294,
20,,,,,0,0,0,3,3,0,3,0,13,0,13,0,,,,,,,,,,,,,,,,,418.8825777997263,None,419.59906509984285,420.1992524000816,420.1828697999008,422.1833162000403,None,1,0.6123961498960853,2.6128055499866605,decreament,0.6,41,standard,None,100,,,,,,,,f,21,218,fr,r,0,raw,2022-06-03_10h22.16.241,oddball,2022.1.2,60.03615369759294,
20,,,,,0,0,0,3,3,0,3,0,14,0,14,0,,,,,,,,,,,,,,,,,422.19987289980054,None,422.7836871999316,423.3835382000543,423.3671495998278,425.3676106999628,None,1,0.6116357501596212,2.612078850157559,decreament,0.6,41,standard,None,100,,,,,,,,f,21,218,fr,r,0,raw,2022-06-03_10h22.16.241,oddball,2022.1.2,60.03615369759294,
20,,,,,0,0,0,3,3,0,3,0,15,0,15,0,,,,,,,,,,,,,,,,,425.3846477000043,None,426.16804450005293,426.76828189985827,426.75162110012025,428.7523778001778,None,1,0.610364549793303,2.611109049990773,decreament,0.6,41,standard,None,100,,,,,,,,f,21,218,fr,r,0,raw,2022-06-03_10h22.16.241,oddball,2022.1.2,60.03615369759294,
20,,,,,0,0,0,3,3,0,3,0,16,0,16,0,,,,,,,,,,,,,,,,,428.7688992000185,None,429.4692853000015,430.06944390013814,430.0526765999384,432.05328449979424,None,1,0.6132188499905169,2.613824150059372,decreament,0.6,41,standard,None,100,,,,,,,,f,21,218,fr,r,0,raw,2022-06-03_10h22.16.241,oddball,2022.1.2,60.03615369759294,
20,,,,,0,0,0,3,3,0,3,0,17,0,17,0,,,,,,,,,,,,,,,,,432.0701540997252,None,432.6372106000781,433.23736480018124,433.22067609988153,435.22126699984074,None,1,0.6127031496725976,2.613285149913281,decreament,0.6,41,standard,None,100,,,,,,,,f,21,218,fr,r,0,raw,2022-06-03_10h22.16.241,oddball,2022.1.2,60.03615369759294,
20,,,,,0,0,0,3,3,0,3,0,18,0,18,0,,,,,,,,,,,,,,,,,435.2380436998792,None,435.83831869997084,436.08846980007365,436.05524600017816,438.05580079974607,j,1,0.24562154989689589,2.24616044992581,decreament,0.24,42,oddball,j,40,0.6632441002875566,,,,,,,f,21,218,fr,r,0,raw,2022-06-03_10h22.16.241,oddball,2022.1.2,60.03615369759294,
20,,,,,0,0,0,3,3,0,3,0,19,0,19,0,,,,,,,,,,,,,,,,,438.0725159998983,None,438.7562313997187,439.3562571001239,439.339601600077,441.34031029976904,None,1,0.6124434503726661,2.613151450175792,decreament,0.6,41,standard,None,100,,,,,,,,f,21,218,fr,r,0,raw,2022-06-03_10h22.16.241,oddball,2022.1.2,60.03615369759294,
20,,,,,0,0,0,3,3,0,3,0,20,0,20,0,,,,,,,,,,,,,,,,,441.3572137998417,None,441.9237136999145,442.52441379986703,442.5078214998357,444.5087546999566,None,1,0.6124736499041319,2.6134425499476492,decreament,0.6,41,standard,None,100,,,,,,,,f,21,218,fr,r,0,raw,2022-06-03_10h22.16.241,oddball,2022.1.2,60.03615369759294,
20,,,,,0,0,0,3,3,0,3,0,21,0,21,0,,,,,,,,,,,,,,,,,444.5271839997731,None,445.12541639991105,445.72600679984316,445.70890139974654,447.70924369990826,None,1,0.6096965498290956,2.609943150077015,decreament,0.6,41,standard,None,100,,,,,,,,f,21,218,fr,r,0,raw,2022-06-03_10h22.16.241,oddball,2022.1.2,60.03615369759294,
20,,,,,0,0,0,3,3,0,3,0,22,0,22,0,,,,,,,,,,,,,,,,,447.72603739984334,None,448.44322940008715,449.04321649996564,449.0268125999719,451.02743359981105,None,1,0.611065249890089,2.6117009497247636,decreament,0.6,41,standard,None,100,,,,,,,,f,21,218,fr,r,0,raw,2022-06-03_10h22.16.241,oddball,2022.1.2,60.03615369759294,
20,,,,,0,0,0,3,3,0,3,0,23,0,23,0,,,,,,,,,,,,,,,,,451.0440778997727,None,451.64466769993305,452.2441945997998,452.2275239001028,454.22857300005853,None,1,0.6113881496712565,2.6125252498313785,decreament,0.6,41,standard,None,100,,,,,,,,f,21,218,fr,r,0,raw,2022-06-03_10h22.16.241,oddball,2022.1.2,60.03615369759294,
20,,,,,0,0,0,3,3,0,3,0,24,0,24,0,,,,,,,,,,,,,,,,,454.2456753998995,None,455.01256550010294,455.6125766998157,455.5958817000501,457.59634489985183,None,1,0.6115549500100315,2.6119787502102554,decreament,0.6,41,standard,None,100,,,,,,,,f,21,218,fr,r,0,raw,2022-06-03_10h22.16.241,oddball,2022.1.2,60.03615369759294,
20,,,,,0,0,0,3,3,0,3,0,25,0,25,0,,,,,,,,,,,,,,,,,457.61310569988564,None,458.31341749988496,458.9135766001418,458.89747700002044,460.8976573999971,None,1,0.6107099503278732,2.6108539500273764,decreament,0.6,41,standard,None,100,,,,,,,,f,21,218,fr,r,0,raw,2022-06-03_10h22.16.241,oddball,2022.1.2,60.03615369759294,
20,,,,,0,0,0,3,3,0,3,0,26,0,26,0,,,,,,,,,,,,,,,,,460.91433809977025,None,461.5148789999075,462.11520749982446,462.09838749980554,464.09904110012576,None,1,0.6123213497921824,2.612898349761963,decreament,0.6,41,standard,None,100,,,,,,,,f,21,218,fr,r,0,raw,2022-06-03_10h22.16.241,oddball,2022.1.2,60.03615369759294,
20,,,,,0,0,0,3,3,0,3,0,27,0,27,0,,,,,,,,,,,,,,,,,464.1158660999499,None,464.73257899982855,465.33275720011443,465.31620310014114,467.3170849001035,None,1,0.6142799505032599,2.6152101503685117,decreament,0.6,41,standard,None,100,,,,,,,,f,21,218,fr,r,0,raw,2022-06-03_10h22.16.241,oddball,2022.1.2,60.03615369759294,
20,,,,,0,0,0,3,3,0,3,0,28,0,28,0,,,,,,,,,,,,,,,,,467.3346636998467,None,468.1670944998041,468.5342949000187,468.50101559981704,470.5012944000773,j,1,0.36362265003845096,2.3638362498022616,decreament,0.36,43,oddball,j,60,0.8004976999945939,,,,,,,f,21,218,fr,r,0,raw,2022-06-03_10h22.16.241,oddball,2022.1.2,60.03615369759294,
20,,,,,0,0,0,3,3,0,3,0,29,0,29,0,,,,,,,,,,,,,,,,,470.5181216998026,None,471.11822520010173,471.7185229999013,471.7019877000712,473.7028537001461,None,1,0.612383050378412,2.613328250590712,decreament,0.6,41,standard,None,100,,,,,,,,f,21,218,fr,r,0,raw,2022-06-03_10h22.16.241,oddball,2022.1.2,60.03615369759294,
20,,,,,0,0,0,3,4,0,4,0,0,0,0,0,,,,,,,,,,,,,,,479.2340569999069,None,483.356395999901,None,484.0899197999388,484.6899564997293,484.67342879995704,486.6742714997381,None,1,0.6107158502563834,2.6115892501547933,increament,0.6,45,standard,None,100,,473.72084659989923,None,,,,,f,21,218,fr,r,0,raw,2022-06-03_10h22.16.241,oddball,2022.1.2,60.03615369759294,
20,,,,,0,0,0,3,4,0,4,0,1,0,1,0,,,,,,,,,,,,,,,,,486.6909246998839,None,487.2577029997483,487.85810690000653,487.84148469986394,489.842046499718,None,1,0.6123993499204516,2.61291024973616,increament,0.6,45,standard,None,100,,,,,,,,f,21,218,fr,r,0,raw,2022-06-03_10h22.16.241,oddball,2022.1.2,60.03615369759294,
20,,,,,0,0,0,3,4,0,4,0,2,0,2,0,,,,,,,,,,,,,,,,,489.85876580001786,None,490.6424279999919,491.2426360999234,491.22616489976645,493.22667470015585,None,1,0.6122396499849856,2.612700750119984,increament,0.6,45,standard,None,100,,,,,,,,f,21,218,fr,r,0,raw,2022-06-03_10h22.16.241,oddball,2022.1.2,60.03615369759294,
20,,,,,0,0,0,3,4,0,4,0,3,0,3,0,,,,,,,,,,,,,,,,,493.2436621999368,None,493.92740379972383,494.527462199796,494.51084830006585,496.5112104001455,None,1,0.6094398498535156,2.609783449675888,increament,0.6,45,standard,None,100,,,,,,,,f,21,218,fr,r,0,raw,2022-06-03_10h22.16.241,oddball,2022.1.2,60.03615369759294,
20,,,,,0,0,0,3,4,0,4,0,4,0,4,0,,,,,,,,,,,,,,,,,496.5282866000198,None,497.1620233999565,497.7615902000107,497.7449256000109,499.74605670012534,None,1,0.6106005501933396,2.611933350097388,increament,0.6,45,standard,None,100,,,,,,,,f,21,218,fr,r,0,raw,2022-06-03_10h22.16.241,oddball,2022.1.2,60.03615369759294,
20,,,,,0,0,0,3,4,0,4,0,5,0,5,0,,,,,,,,,,,,,,,,,499.76283530006185,None,500.29645959986374,500.8964468999766,500.87944580009207,502.88082670001313,None,1,0.6114905499853194,2.6129470500163734,increament,0.6,45,standard,None,100,,,,,,,,f,21,218,fr,r,0,raw,2022-06-03_10h22.16.241,oddball,2022.1.2,60.03615369759294,
20,,,,,0,0,0,3,4,0,4,0,6,0,6,0,,,,,,,,,,,,,,,,,502.8971592998132,None,503.5804751999676,504.18082229979336,504.1646046000533,506.1649655001238,None,1,0.612561949994415,2.612913549877703,increament,0.6,45,standard,None,100,,,,,,,,f,21,218,fr,r,0,raw,2022-06-03_10h22.16.241,oddball,2022.1.2,60.03615369759294,
20,,,,,0,0,0,3,4,0,4,0,7,0,7,0,,,,,,,,,,,,,,,,,506.1817681998946,None,506.79862520005554,507.6487830998376,507.6154867997393,509.616127199959,None,0,0.8473176499828696,2.8479683501645923,increament,0.84,47,oddball,j,140,,,,,,,,f,21,218,fr,r,0,raw,2022-06-03_10h22.16.241,oddball,2022.1.2,60.03615369759294,
20,,,,,0,0,0,3,4,0,4,0,8,0,8,0,,,,,,,,,,,,,,,,,509.6328683998436,None,510.3164472999051,510.91700199991465,510.90062130009755,512.9007701999508,None,1,0.6128201498650014,2.61285114986822,increament,0.6,45,standard,None,100,,,,,,,,f,21,218,fr,r,0,raw,2022-06-03_10h22.16.241,oddball,2022.1.2,60.03615369759294,
20,,,,,0,0,0,3,4,0,4,0,9,0,9,0,,,,,,,,,,,,,,,,,512.9174819998443,None,513.6512492997572,514.2512801000848,514.2351961000822,516.2355404999107,None,1,0.6125861499458551,2.6128955497406423,increament,0.6,45,standard,None,100,,,,,,,,f,21,218,fr,r,0,raw,2022-06-03_10h22.16.241,oddball,2022.1.2,60.03615369759294,
20,,,,,0,0,0,3,4,0,4,0,10,0,10,0,,,,,,,,,,,,,,,,,516.2522510997951,None,516.9024473000318,517.5023298999295,517.4859138000757,519.4873449997976,None,1,0.6129084499552846,2.614490349777043,increament,0.6,45,standard,None,100,,,,,,,,f,21,218,fr,r,0,raw,2022-06-03_10h22.16.241,oddball,2022.1.2,60.03615369759294,
20,,,,,0,0,0,3,4,0,4,0,11,0,11,0,,,,,,,,,,,,,,,,,519.5049415999092,None,520.2037504999898,520.8037938000634,520.7872272999957,522.7880677999929,None,1,0.6077906498685479,2.6086809495463967,increament,0.6,45,standard,None,100,,,,,,,,f,21,218,fr,r,0,raw,2022-06-03_10h22.16.241,oddball,2022.1.2,60.03615369759294,
20,,,,,0,0,0,3,4,0,4,0,12,0,12,0,,,,,,,,,,,,,,,,,522.8045854000375,None,523.4215426999144,524.1551330001093,524.1217402000912,526.1230234997347,None,0,0.7290249499492347,2.7303599501028657,increament,0.72,46,oddball,j,120,,,,,,,,f,21,218,fr,r,0,raw,2022-06-03_10h22.16.241,oddball,2022.1.2,60.03615369759294,
20,,,,,0,0,0,3,4,0,4,0,13,0,13,0,,,,,,,,,,,,,,,,,526.1399456001818,None,526.6894155000336,527.2896098000929,527.2728919000365,529.2738012000918,None,1,0.6122970497235656,2.613271649926901,increament,0.6,45,standard,None,100,,,,,,,,f,21,218,fr,r,0,raw,2022-06-03_10h22.16.241,oddball,2022.1.2,60.03615369759294,
20,,,,,0,0,0,3,4,0,4,0,14,0,14,0,,,,,,,,,,,,,,,,,529.2902227998711,None,530.0405890997499,530.6409284998663,530.6245315000415,532.6249333997257,None,1,0.6130273505114019,2.6133933505043387,increament,0.6,45,standard,None,100,,,,,,,,f,21,218,fr,r,0,raw,2022-06-03_10h22.16.241,oddball,2022.1.2,60.03615369759294,
20,,,,,0,0,0,3,4,0,4,0,15,0,15,0,,,,,,,,,,,,,,,,,532.6415726998821,None,533.341985899955,533.9420823999681,533.9254696001299,535.9262930001132,None,1,0.6130258501507342,2.6138671501539648,increament,0.6,45,standard,None,100,,,,,,,,f,21,218,fr,r,0,raw,2022-06-03_10h22.16.241,oddball,2022.1.2,60.03615369759294,
20,,,,,0,0,0,3,4,0,4,0,16,0,16,0,,,,,,,,,,,,,,,,,535.9428678997792,None,536.6099426997826,537.210415400099,537.1935334997252,539.1940578999929,None,1,0.6128589496947825,2.613333350047469,increament,0.6,45,standard,None,100,,,,,,,,f,21,218,fr,r,0,raw,2022-06-03_10h22.16.241,oddball,2022.1.2,60.03615369759294,
20,,,,,0,0,0,3,4,0,4,0,17,0,17,0,,,,,,,,,,,,,,,,,539.2111105998047,None,540.0110011999495,540.611283400096,540.5948266000487,542.5952858999372,None,1,0.6132593499496579,2.613672450184822,increament,0.6,45,standard,None,100,,,,,,,,f,21,218,fr,r,0,raw,2022-06-03_10h22.16.241,oddball,2022.1.2,60.03615369759294,
20,,,,,0,0,0,3,4,0,4,0,18,0,18,0,,,,,,,,,,,,,,,,,542.6118442001753,None,543.1456940998323,543.7458731001243,543.7290786998346,545.7297779000364,None,1,0.6135197500698268,2.6142702498473227,increament,0.6,45,standard,None,100,,,,,,,,f,21,218,fr,r,0,raw,2022-06-03_10h22.16.241,oddball,2022.1.2,60.03615369759294,
20,,,,,0,0,0,3,4,0,4,0,19,0,19,0,,,,,,,,,,,,,,,,,545.7466914998367,None,546.3136732997373,546.9137287000194,546.8969636000693,548.8978145997971,None,1,0.6113452496938407,2.612177249509841,increament,0.6,45,standard,None,100,,,,,,,,f,21,218,fr,r,0,raw,2022-06-03_10h22.16.241,oddball,2022.1.2,60.03615369759294,
20,,,,,0,0,0,3,4,0,4,0,20,0,20,0,,,,,,,,,,,,,,,,,548.9146549999714,None,549.4981360998936,550.4651154000312,550.4316901997663,552.4327328000218,None,0,0.9628108497709036,2.963906249497086,increament,0.96,48,oddball,j,160,,,,,,,,f,21,218,fr,r,0,raw,2022-06-03_10h22.16.241,oddball,2022.1.2,60.03615369759294,
20,,,,,0,0,0,3,4,0,4,0,21,0,21,0,,,,,,,,,,,,,,,,,552.4492628001608,None,553.0996702997945,553.6998282000422,553.6832447997294,555.6834864001721,None,1,0.6131884497590363,2.613350949715823,increament,0.6,45,standard,None,100,,,,,,,,f,21,218,fr,r,0,raw,2022-06-03_10h22.16.241,oddball,2022.1.2,60.03615369759294,
20,,,,,0,0,0,3,4,0,4,0,22,0,22,0,,,,,,,,,,,,,,,,,555.7002930999734,None,556.3673606999218,556.967468699906,556.9507335997187,558.9515839000233,None,1,0.611058949958533,2.611904149875045,increament,0.6,45,standard,None,100,,,,,,,,f,21,218,fr,r,0,raw,2022-06-03_10h22.16.241,oddball,2022.1.2,60.03615369759294,
20,,,,,0,0,0,3,4,0,4,0,23,0,23,0,,,,,,,,,,,,,,,,,558.9681347999722,None,559.6019155997783,560.2019309001043,560.1854983000085,562.1860132999718,None,1,0.6117342500947416,2.612234950065613,increament,0.6,45,standard,None,100,,,,,,,,f,21,218,fr,r,0,raw,2022-06-03_10h22.16.241,oddball,2022.1.2,60.03615369759294,
20,,,,,0,0,0,3,4,0,4,0,24,0,24,0,,,,,,,,,,,,,,,,,562.2028124998324,None,563.0361509001814,563.6369803999551,563.6208231998608,565.620730499737,None,1,0.6153684495948255,2.6151681495830417,increament,0.6,45,standard,None,100,,,,,,,,f,21,218,fr,r,0,raw,2022-06-03_10h22.16.241,oddball,2022.1.2,60.03615369759294,
20,,,,,0,0,0,3,4,0,4,0,25,0,25,0,,,,,,,,,,,,,,,,,565.6376271001063,None,566.2876257998869,566.8877523001283,566.871598099824,568.8720189998858,None,1,0.6134792501106858,2.6138316500000656,increament,0.6,45,standard,None,100,,,,,,,,f,21,218,fr,r,0,raw,2022-06-03_10h22.16.241,oddball,2022.1.2,60.03615369759294,
20,,,,,0,0,0,3,4,0,4,0,26,0,26,0,,,,,,,,,,,,,,,,,568.8888078001328,None,569.5723210000433,570.172715799883,570.1560192997567,572.1566067999229,None,1,0.6134596499614418,2.6140345502644777,increament,0.6,45,standard,None,100,,,,,,,,f,21,218,fr,r,0,raw,2022-06-03_10h22.16.241,oddball,2022.1.2,60.03615369759294,
20,,,,,0,0,0,3,4,0,4,0,27,0,27,0,,,,,,,,,,,,,,,,,572.1732779000886,None,572.8401635000482,573.4404039997607,573.4239512998611,575.4244718998671,None,1,0.6125849494710565,2.6130840494297445,increament,0.6,45,standard,None,100,,,,,,,,f,21,218,fr,r,0,raw,2022-06-03_10h22.16.241,oddball,2022.1.2,60.03615369759294,
20,,,,,0,0,0,3,4,0,4,0,28,0,28,0,,,,,,,,,,,,,,,,,575.4413685998879,None,576.2250047000125,576.8250790000893,576.8084339001216,578.8093487997539,None,1,0.6103990501724184,2.611323649995029,increament,0.6,45,standard,None,100,,,,,,,,f,21,218,fr,r,0,raw,2022-06-03_10h22.16.241,oddball,2022.1.2,60.03615369759294,
20,,,,,0,0,0,3,4,0,4,0,29,0,29,0,,,,,,,,,,,,,,,,,578.8257729997858,None,579.5093999998644,580.1097031999379,580.0929149999283,582.0938570997678,None,1,0.6116996495984495,2.6126528498716652,increament,0.6,45,standard,None,100,,,,,,,,f,21,218,fr,r,0,raw,2022-06-03_10h22.16.241,oddball,2022.1.2,60.03615369759294,
20,,,,,0,0,0,3,5,0,5,0,0,0,0,0,,,,,,,,,,,,,,,590.4972107000649,None,594.7149753998965,None,595.5325899999589,596.1325285001658,596.1156746000051,598.1164875999093,None,1,0.6116620502434671,2.6124668503180146,decreament,0.6,41,standard,None,100,,582.1106293997727,None,,,,,f,21,218,fr,r,0,raw,2022-06-03_10h22.16.241,oddball,2022.1.2,60.03615369759294,
20,,,,,0,0,0,3,5,0,5,0,1,0,1,0,,,,,,,,,,,,,,,,,598.1333026997745,None,599.0834066001698,599.6839393000118,599.6671950998716,601.6676813997328,None,1,0.6139880497939885,2.6144512495957315,decreament,0.6,41,standard,None,100,,,,,,,,f,21,218,fr,r,0,raw,2022-06-03_10h22.16.241,oddball,2022.1.2,60.03615369759294,
20,,,,,0,0,0,3,5,0,5,0,2,0,2,0,,,,,,,,,,,,,,,,,601.6845172997564,None,602.2682262999006,602.8685641000047,602.8516064998694,604.8528758999892,None,1,0.6095798499882221,2.6109073502011597,decreament,0.6,41,standard,None,100,,,,,,,,f,21,218,fr,r,0,raw,2022-06-03_10h22.16.241,oddball,2022.1.2,60.03615369759294,
20,,,,,0,0,0,3,5,0,5,0,3,0,3,0,,,,,,,,,,,,,,,,,604.8695970997214,None,605.502489999868,606.1027771001682,606.086025999859,608.0870038000867,None,1,0.613049550447613,2.6140617500059307,decreament,0.6,41,standard,None,100,,,,,,,,f,21,218,fr,r,0,raw,2022-06-03_10h22.16.241,oddball,2022.1.2,60.03615369759294,
20,,,,,0,0,0,3,5,0,5,0,4,0,4,0,,,,,,,,,,,,,,,,,608.1037443997338,None,608.9540709997527,609.5539060998708,609.5374754997902,611.5382325998507,None,1,0.6104266499169171,2.6111999498680234,decreament,0.6,41,standard,None,100,,,,,,,,f,21,218,fr,r,0,raw,2022-06-03_10h22.16.241,oddball,2022.1.2,60.03615369759294,
20,,,,,0,0,0,3,5,0,5,0,5,0,5,0,,,,,,,,,,,,,,,,,611.5549842999317,None,612.3219876000658,612.9221359998919,612.9053794001229,614.90666410001,None,1,0.6123699499294162,2.6136702499352396,decreament,0.6,41,standard,None,100,,,,,,,,f,21,218,fr,r,0,raw,2022-06-03_10h22.16.241,oddball,2022.1.2,60.03615369759294,
20,,,,,0,0,0,3,5,0,5,0,6,0,6,0,,,,,,,,,,,,,,,,,614.9245315999724,None,615.5898656998761,615.8399424999952,615.8063126001507,617.807385600172,None,0,0.244322850368917,2.2454295502975583,decreament,0.24,42,oddball,j,40,,,,,,,,f,21,218,fr,r,0,raw,2022-06-03_10h22.16.241,oddball,2022.1.2,60.03615369759294,
20,,,,,0,0,0,3,5,0,5,0,7,0,7,0,,,,,,,,,,,,,,,,,617.823941799812,None,618.3907400001772,618.9908762001432,618.9742664997466,620.9752567000687,None,1,0.612569950055331,2.6136074499227107,decreament,0.6,41,standard,None,100,,,,,,,,f,21,218,fr,r,0,raw,2022-06-03_10h22.16.241,oddball,2022.1.2,60.03615369759294,
20,,,,,0,0,0,3,5,0,5,0,8,0,8,0,,,,,,,,,,,,,,,,,620.991745499894,None,621.6919678999111,622.2921091001481,622.2757695000619,624.2762621999718,None,1,0.6135999499820173,2.614127050153911,decreament,0.6,41,standard,None,100,,,,,,,,f,21,218,fr,r,0,raw,2022-06-03_10h22.16.241,oddball,2022.1.2,60.03615369759294,
20,,,,,0,0,0,3,5,0,5,0,9,0,9,0,,,,,,,,,,,,,,,,,624.2933376999572,None,625.009818200022,625.6104326001368,625.5939183998853,627.5944074001163,None,1,0.6134328497573733,2.613918049726635,decreament,0.6,41,standard,None,100,,,,,,,,f,21,218,fr,r,0,raw,2022-06-03_10h22.16.241,oddball,2022.1.2,60.03615369759294,
20,,,,,0,0,0,3,5,0,5,0,10,0,10,0,,,,,,,,,,,,,,,,,627.6114431000315,None,628.294934200123,628.6613965998404,628.6282017999329,630.6295051998459,None,0,0.3624799498356879,2.3638851498253644,decreament,0.36,43,oddball,j,60,,,,,,,,f,21,218,fr,r,0,raw,2022-06-03_10h22.16.241,oddball,2022.1.2,60.03615369759294,
20,,,,,0,0,0,3,5,0,5,0,11,0,11,0,,,,,,,,,,,,,,,,,630.6455024997704,None,631.3291047997773,631.9293316998519,631.9125394001603,633.9132085000165,None,1,0.6126703498885036,2.613354349974543,decreament,0.6,41,standard,None,100,,,,,,,,f,21,218,fr,r,0,raw,2022-06-03_10h22.16.241,oddball,2022.1.2,60.03615369759294,
20,,,,,0,0,0,3,5,0,5,0,12,0,12,0,,,,,,,,,,,,,,,,,633.929764600005,None,634.4965622001328,635.0968037000857,635.0801995000802,637.0818372997455,None,1,0.6143326498568058,2.6160729499533772,decreament,0.6,41,standard,None,100,,,,,,,,f,21,218,fr,r,0,raw,2022-06-03_10h22.16.241,oddball,2022.1.2,60.03615369759294,
20,,,,,0,0,0,3,5,0,5,0,13,0,13,0,,,,,,,,,,,,,,,,,637.0977079998702,None,637.9482005997561,638.5483085997403,638.5323057998903,640.5326375998557,None,1,0.6140165496617556,2.614327249582857,decreament,0.6,41,standard,None,100,,,,,,,,f,21,218,fr,r,0,raw,2022-06-03_10h22.16.241,oddball,2022.1.2,60.03615369759294,
20,,,,,0,0,0,3,5,0,5,0,14,0,14,0,,,,,,,,,,,,,,,,,640.5493379998952,None,641.0996433999389,641.7002026000991,641.6832694998011,643.6835930999368,None,1,0.6124233501031995,2.6126531497575343,decreament,0.6,41,standard,None,100,,,,,,,,f,21,218,fr,r,0,raw,2022-06-03_10h22.16.241,oddball,2022.1.2,60.03615369759294,
20,,,,,0,0,0,3,5,0,5,0,15,0,15,0,,,,,,,,,,,,,,,,,643.7004975001328,None,644.3008778998628,644.9008550997823,644.8841122998856,646.8847797997296,None,1,0.6121471500955522,2.612812750041485,decreament,0.6,41,standard,None,100,,,,,,,,f,21,218,fr,r,0,raw,2022-06-03_10h22.16.241,oddball,2022.1.2,60.03615369759294,
20,,,,,0,0,0,3,5,0,5,0,16,0,16,0,,,,,,,,,,,,,,,,,646.9015963999555,None,647.768724499736,648.2520276997238,648.2356026000343,650.2362192999572,j,1,0.49500284995883703,2.4956276500597596,decreament,0.48,44,oddball,j,80,0.5625057001598179,,,,,,,f,21,218,fr,r,0,raw,2022-06-03_10h22.16.241,oddball,2022.1.2,60.03615369759294,
20,,,,,0,0,0,3,5,0,5,0,17,0,17,0,,,,,,,,,,,,,,,,,650.2527180998586,None,650.7695464999415,651.3700457001105,651.3535206001252,653.3541794000193,None,1,0.6147639499977231,2.6154140499420464,decreament,0.6,41,standard,None,100,,,,,,,,f,21,218,fr,r,0,raw,2022-06-03_10h22.16.241,oddball,2022.1.2,60.03615369759294,
20,,,,,0,0,0,3,5,0,5,0,18,0,18,0,,,,,,,,,,,,,,,,,653.3707580999471,None,654.0209002001211,654.6211811001413,654.6046635000966,656.605120500084,None,1,0.6113195498473942,2.611776949837804,decreament,0.6,41,standard,None,100,,,,,,,,f,21,218,fr,r,0,raw,2022-06-03_10h22.16.241,oddball,2022.1.2,60.03615369759294,
20,,,,,0,0,0,3,5,0,5,0,19,0,19,0,,,,,,,,,,,,,,,,,656.6222447999753,None,657.3226771997288,657.9226024998352,657.9058232000098,659.9064970999025,None,1,0.6090485500171781,2.6097696502692997,decreament,0.6,41,standard,None,100,,,,,,,,f,21,218,fr,r,0,raw,2022-06-03_10h22.16.241,oddball,2022.1.2,60.03615369759294,
20,,,,,0,0,0,3,5,0,5,0,20,0,20,0,,,,,,,,,,,,,,,,,659.9233622001484,None,660.6237508999184,661.2235421999358,661.2069695000537,663.20762069989,None,1,0.6104732505045831,2.611140750348568,decreament,0.6,41,standard,None,100,,,,,,,,f,21,218,fr,r,0,raw,2022-06-03_10h22.16.241,oddball,2022.1.2,60.03615369759294,
20,,,,,0,0,0,3,5,0,5,0,21,0,21,0,,,,,,,,,,,,,,,,,663.2245808998123,None,663.7413157001138,664.3414076999761,664.3247907999903,666.3260176000185,None,1,0.6126698502339423,2.6139542502351105,decreament,0.6,41,standard,None,100,,,,,,,,f,21,218,fr,r,0,raw,2022-06-03_10h22.16.241,oddball,2022.1.2,60.03615369759294,
20,,,,,0,0,0,3,5,0,5,0,22,0,22,0,,,,,,,,,,,,,,,,,666.3422509999946,None,667.1094629000872,667.7089726999402,667.6923644999042,669.6936862999573,None,1,0.6115805492736399,2.6129970494657755,decreament,0.6,41,standard,None,100,,,,,,,,f,21,218,fr,r,0,raw,2022-06-03_10h22.16.241,oddball,2022.1.2,60.03615369759294,
20,,,,,0,0,0,3,5,0,5,0,23,0,23,0,,,,,,,,,,,,,,,,,669.7105184998363,None,670.4940712000243,671.0941222999245,671.0773983001709,673.0783551000059,None,1,0.6123863495886326,2.613398749381304,decreament,0.6,41,standard,None,100,,,,,,,,f,21,218,fr,r,0,raw,2022-06-03_10h22.16.241,oddball,2022.1.2,60.03615369759294,
20,,,,,0,0,0,3,5,0,5,0,24,0,24,0,,,,,,,,,,,,,,,,,673.0954215000384,None,673.7951245000586,674.3953303997405,674.3789800000377,676.3799463999458,None,1,0.6127359494566917,2.613731049466878,decreament,0.6,41,standard,None,100,,,,,,,,f,21,218,fr,r,0,raw,2022-06-03_10h22.16.241,oddball,2022.1.2,60.03615369759294,
20,,,,,0,0,0,3,5,0,5,0,25,0,25,0,,,,,,,,,,,,,,,,,676.3962854999118,None,677.0128771001473,677.6134118000045,677.5966962999664,679.5974209001288,None,1,0.61392044974491,2.6145913498476148,decreament,0.6,41,standard,None,100,,,,,,,,f,21,218,fr,r,0,raw,2022-06-03_10h22.16.241,oddball,2022.1.2,60.03615369759294,
20,,,,,0,0,0,3,5,0,5,0,26,0,26,0,,,,,,,,,,,,,,,,,679.6139683001675,None,680.330885599833,680.9312225999311,680.9145470000803,682.9152820999734,None,1,0.6134575502946973,2.614222350064665,decreament,0.6,41,standard,None,100,,,,,,,,f,21,218,fr,r,0,raw,2022-06-03_10h22.16.241,oddball,2022.1.2,60.03615369759294,
20,,,,,0,0,0,3,5,0,5,0,27,0,27,0,,,,,,,,,,,,,,,,,682.932033999823,None,683.5984924999066,684.1991170998663,684.1823279000819,686.1833345000632,None,1,0.6149550504051149,2.616019950248301,decreament,0.6,41,standard,None,100,,,,,,,,f,21,218,fr,r,0,raw,2022-06-03_10h22.16.241,oddball,2022.1.2,60.03615369759294,
20,,,,,0,0,0,3,5,0,5,0,28,0,28,0,,,,,,,,,,,,,,,,,686.2005313998088,None,686.8001855001785,687.400016900152,687.3835971001536,689.3844869001769,None,1,0.6127384495921433,2.613656449597329,decreament,0.6,41,standard,None,100,,,,,,,,f,21,218,fr,r,0,raw,2022-06-03_10h22.16.241,oddball,2022.1.2,60.03615369759294,
20,,,,,0,0,0,3,5,0,5,0,29,0,29,0,,,,,,,,,,,,,,,,,689.4009634000249,None,690.0680077997968,690.6681881998666,690.6518040001392,692.6522976001725,None,1,0.6130092502571642,2.6135042500682175,decreament,0.6,41,standard,None,100,,,,,,,,f,21,218,fr,r,0,raw,2022-06-03_10h22.16.241,oddball,2022.1.2,60.03615369759294,
20,,,,,0,0,0,3,6,0,6,0,0,0,0,0,,,,,,,,,,,,,,,705.998661399819,None,709.4751924998127,None,710.0924681997858,710.6925984001718,710.6759250997566,712.6767716999166,None,1,0.6088541503995657,2.609759650193155,increament,0.6,45,standard,None,100,,692.669206299819,None,,,,,f,21,218,fr,r,0,raw,2022-06-03_10h22.16.241,oddball,2022.1.2,60.03615369759294,
20,,,,,0,0,0,3,6,0,6,0,1,0,1,0,,,,,,,,,,,,,,,,,712.6933184997179,None,713.3767516999505,713.9769339999184,713.960665800143,715.9610458998941,None,1,0.6139119500294328,2.614270850084722,increament,0.6,45,standard,None,100,,,,,,,,f,21,218,fr,r,0,raw,2022-06-03_10h22.16.241,oddball,2022.1.2,60.03615369759294,
20,,,,,0,0,0,3,6,0,6,0,2,0,2,0,,,,,,,,,,,,,,,,,715.9779070001096,None,716.728201400023,717.3284077998251,717.3117272001691,719.3127435999922,None,1,0.6117844497784972,2.612830549944192,increament,0.6,45,standard,None,100,,,,,,,,f,21,218,fr,r,0,raw,2022-06-03_10h22.16.241,oddball,2022.1.2,60.03615369759294,
20,,,,,0,0,0,3,6,0,6,0,3,0,3,0,,,,,,,,,,,,,,,,,719.3290738998912,None,719.9459315999411,720.5462965997867,720.52978360001,722.5310209998861,None,1,0.6128423502668738,2.6140618501231074,increament,0.6,45,standard,None,100,,,,,,,,f,21,218,fr,r,0,raw,2022-06-03_10h22.16.241,oddball,2022.1.2,60.03615369759294,
20,,,,,0,0,0,3,6,0,6,0,4,0,4,0,,,,,,,,,,,,,,,,,722.5469198999926,None,723.1640901998617,723.7639377000742,723.7471110997722,725.7484133001417,None,1,0.6104428498074412,2.611843049991876,increament,0.6,45,standard,None,100,,,,,,,,f,21,218,fr,r,0,raw,2022-06-03_10h22.16.241,oddball,2022.1.2,60.03615369759294,
20,,,,,0,0,0,3,6,0,6,0,5,0,5,0,,,,,,,,,,,,,,,,,725.7649429999292,None,726.3152482998557,726.9154424997978,726.898651599884,728.8996846000664,None,1,0.6098110498860478,2.610909250099212,increament,0.6,45,standard,None,100,,,,,,,,f,21,218,fr,r,0,raw,2022-06-03_10h22.16.241,oddball,2022.1.2,60.03615369759294,
20,,,,,0,0,0,3,6,0,6,0,6,0,6,0,,,,,,,,,,,,,,,,,728.9158092001453,None,729.566389999818,730.1662678001449,730.1501941001043,732.1503114998341,None,1,0.6137840496376157,2.613872649613768,increament,0.6,45,standard,None,100,,,,,,,,f,21,218,fr,r,0,raw,2022-06-03_10h22.16.241,oddball,2022.1.2,60.03615369759294,
20,,,,,0,0,0,3,6,0,6,0,7,0,7,0,,,,,,,,,,,,,,,,,732.1672430997714,None,732.7173538999632,733.3174859001301,733.3010490997694,735.3015756001696,None,1,0.6129414499737322,2.6134418500587344,increament,0.6,45,standard,None,100,,,,,,,,f,21,218,fr,r,0,raw,2022-06-03_10h22.16.241,oddball,2022.1.2,60.03615369759294,
20,,,,,0,0,0,3,6,0,6,0,8,0,8,0,,,,,,,,,,,,,,,,,735.3185593001544,None,736.0355662000366,736.6355698001571,736.6190352998674,738.6198793998919,None,1,0.6123668495565653,2.613269649911672,increament,0.6,45,standard,None,100,,,,,,,,f,21,218,fr,r,0,raw,2022-06-03_10h22.16.241,oddball,2022.1.2,60.03615369759294,
20,,,,,0,0,0,3,6,0,6,0,9,0,9,0,,,,,,,,,,,,,,,,,738.6363806999288,None,739.2865113997832,739.8868120997213,739.8701500999741,741.8711661999114,j,0,0.6098771500401199,2.610862450208515,increament,0.6,45,standard,None,100,0.7200334002263844,,,,,,,f,21,218,fr,r,0,raw,2022-06-03_10h22.16.241,oddball,2022.1.2,60.03615369759294,
20,,,,,0,0,0,3,6,0,6,0,10,0,10,0,,,,,,,,,,,,,,,,,741.8878278001212,None,742.6211751997471,743.2215354000218,743.2047717999667,745.2054058001377,None,1,0.6140856496058404,2.61469394993037,increament,0.6,45,standard,None,100,,,,,,,,f,21,218,fr,r,0,raw,2022-06-03_10h22.16.241,oddball,2022.1.2,60.03615369759294,
20,,,,,0,0,0,3,6,0,6,0,11,0,11,0,,,,,,,,,,,,,,,,,745.2220805999823,None,745.772557400167,746.3725951998495,746.3558809999377,748.3567801001482,None,1,0.6120845498517156,2.612989949993789,increament,0.6,45,standard,None,100,,,,,,,,f,21,218,fr,r,0,raw,2022-06-03_10h22.16.241,oddball,2022.1.2,60.03615369759294,
20,,,,,0,0,0,3,6,0,6,0,12,0,12,0,,,,,,,,,,,,,,,,,748.3736521997489,None,748.957184500061,749.9240500000305,749.8906875997782,751.8914181999862,None,0,0.9599590497091413,2.9606350497342646,increament,0.96,48,oddball,j,160,,,,,,,,f,21,218,fr,r,0,raw,2022-06-03_10h22.16.241,oddball,2022.1.2,60.03615369759294,
20,,,,,0,0,0,3,6,0,6,0,13,0,13,0,,,,,,,,,,,,,,,,,751.9083170001395,None,752.6251469999552,753.2253359998576,753.2088640001602,755.2093680999242,None,1,0.6123065501451492,2.612779150251299,increament,0.6,45,standard,None,100,,,,,,,,f,21,218,fr,r,0,raw,2022-06-03_10h22.16.241,oddball,2022.1.2,60.03615369759294,
20,,,,,0,0,0,3,6,0,6,0,14,0,14,0,,,,,,,,,,,,,,,,,755.2261306997389,None,755.9428483997472,756.5433441000059,756.5271779997274,758.5273349997588,None,1,0.6135671497322619,2.613645249977708,increament,0.6,45,standard,None,100,,,,,,,,f,21,218,fr,r,0,raw,2022-06-03_10h22.16.241,oddball,2022.1.2,60.03615369759294,
20,,,,,0,0,0,3,6,0,6,0,15,0,15,0,,,,,,,,,,,,,,,,,758.5441986001097,None,759.144288700074,759.7444929997437,759.727614399977,761.7285015997477,None,1,0.610939749982208,2.611865949817002,increament,0.6,45,standard,None,100,,,,,,,,f,21,218,fr,r,0,raw,2022-06-03_10h22.16.241,oddball,2022.1.2,60.03615369759294,
20,,,,,0,0,0,3,6,0,6,0,16,0,16,0,,,,,,,,,,,,,,,,,761.7453120001592,None,762.5288566001691,763.1288971998729,763.1122757000849,765.1130141001195,j,0,0.6092579499818385,2.610004249960184,increament,0.6,45,standard,None,100,1.5411354000680149,,,,,,,f,21,218,fr,r,0,raw,2022-06-03_10h22.16.241,oddball,2022.1.2,60.03615369759294,
20,,,,,0,0,0,3,6,0,6,0,17,0,17,0,,,,,,,,,,,,,,,,,765.1298194997944,None,765.6631585001014,766.2636576998048,766.2474758001044,768.2474027997814,None,1,0.6128569501452148,2.612726650200784,increament,0.6,45,standard,None,100,,,,,,,,f,21,218,fr,r,0,raw,2022-06-03_10h22.16.241,oddball,2022.1.2,60.03615369759294,
20,,,,,0,0,0,3,6,0,6,0,18,0,18,0,,,,,,,,,,,,,,,,,768.2643340998329,None,768.7815646999516,769.3812056998722,769.3645556997508,771.365286000073,None,1,0.610709750559181,2.6114248502999544,increament,0.6,45,standard,None,100,,,,,,,,f,21,218,fr,r,0,raw,2022-06-03_10h22.16.241,oddball,2022.1.2,60.03615369759294,
20,,,,,0,0,0,3,6,0,6,0,19,0,19,0,,,,,,,,,,,,,,,,,771.3823473998345,None,772.0326970000751,772.8824587999843,772.8493999000639,774.8502958999015,None,0,0.8428516495041549,2.8437571497634053,increament,0.84,47,oddball,j,140,,,,,,,,f,21,218,fr,r,0,raw,2022-06-03_10h22.16.241,oddball,2022.1.2,60.03615369759294,
20,,,,,0,0,0,3,6,0,6,0,20,0,20,0,,,,,,,,,,,,,,,,,774.8667525001802,None,775.567359900102,776.1673834999092,776.1505939997733,778.1511349999346,None,1,0.6115466500632465,2.6119100502692163,increament,0.6,45,standard,None,100,,,,,,,,f,21,218,fr,r,0,raw,2022-06-03_10h22.16.241,oddball,2022.1.2,60.03615369759294,
20,,,,,0,0,0,3,6,0,6,0,21,0,21,0,,,,,,,,,,,,,,,,,778.1679670000449,None,778.7681232001632,779.3684364999644,779.3515977999195,781.352386099752,None,1,0.6122921495698392,2.613092149607837,increament,0.6,45,standard,None,100,,,,,,,,f,21,218,fr,r,0,raw,2022-06-03_10h22.16.241,oddball,2022.1.2,60.03615369759294,
20,,,,,0,0,0,3,6,0,6,0,22,0,22,0,,,,,,,,,,,,,,,,,781.3693293998949,None,781.9864118997939,782.5864145997912,782.5697105000727,784.5703384000808,None,1,0.6080165496096015,2.6086419499479234,increament,0.6,45,standard,None,100,,,,,,,,f,21,218,fr,r,0,raw,2022-06-03_10h22.16.241,oddball,2022.1.2,60.03615369759294,
20,,,,,0,0,0,3,6,0,6,0,23,0,23,0,,,,,,,,,,,,,,,,,784.587287500035,None,785.2206846000627,785.8210440999828,785.8042437001131,787.8047487000003,None,1,0.6113142501562834,2.6118398499675095,increament,0.6,45,standard,None,100,,,,,,,,f,21,218,fr,r,0,raw,2022-06-03_10h22.16.241,oddball,2022.1.2,60.03615369759294,
20,,,,,0,0,0,3,6,0,6,0,24,0,24,0,,,,,,,,,,,,,,,,,787.8216446000151,None,788.4050517999567,789.0053237001412,788.9890036997385,790.9896852998063,None,1,0.6138246497139335,2.614595149643719,increament,0.6,45,standard,None,100,,,,,,,,f,21,218,fr,r,0,raw,2022-06-03_10h22.16.241,oddball,2022.1.2,60.03615369759294,
20,,,,,0,0,0,3,6,0,6,0,25,0,25,0,,,,,,,,,,,,,,,,,791.0060779000632,None,791.6904158000834,792.29040180007,792.2734607001767,794.2740561999381,None,1,0.6102021499536932,2.6107347500510514,increament,0.6,45,standard,None,100,,,,,,,,f,21,218,fr,r,0,raw,2022-06-03_10h22.16.241,oddball,2022.1.2,60.03615369759294,
20,,,,,0,0,0,3,6,0,6,0,26,0,26,0,,,,,,,,,,,,,,,,,794.2906264998019,None,794.941232000012,795.5412524999119,795.524569099769,797.5250964001752,None,1,0.6082505499944091,2.608777050394565,increament,0.6,45,standard,None,100,,,,,,,,f,21,218,fr,r,0,raw,2022-06-03_10h22.16.241,oddball,2022.1.2,60.03615369759294,
20,,,,,0,0,0,3,6,0,6,0,27,0,27,0,,,,,,,,,,,,,,,,,797.5421315999702,None,798.326033799909,798.9253755998798,798.9088113000616,800.9099435997196,None,1,0.6108236503787339,2.61199945025146,increament,0.6,45,standard,None,100,,,,,,,,f,21,218,fr,r,0,raw,2022-06-03_10h22.16.241,oddball,2022.1.2,60.03615369759294,
20,,,,,0,0,0,3,6,0,6,0,28,0,28,0,,,,,,,,,,,,,,,,,800.9265189999714,None,801.7435554000549,802.4772365000099,802.4441935000941,804.4443143997341,j,1,0.7303822496905923,2.730448150075972,increament,0.72,46,oddball,j,120,0.5930991000495851,,,,,,,f,21,218,fr,r,0,raw,2022-06-03_10h22.16.241,oddball,2022.1.2,60.03615369759294,
20,,,,,0,0,0,3,6,0,6,0,29,0,29,0,,,,,,,,,,,,,,,,,804.4609603998251,None,805.1615777998231,805.7615907997824,805.745099300053,807.7457157997414,None,1,0.6123518501408398,2.612969150301069,increament,0.6,45,standard,None,100,,,,,,,,f,21,218,fr,r,0,raw,2022-06-03_10h22.16.241,oddball,2022.1.2,60.03615369759294,
20,,,,,0,0,0,3,7,0,7,0,0,0,0,0,,,,,,,,,,,,,,,826.3454824001528,None,827.8535680999048,None,828.570344099775,829.1705106999725,829.1538603999652,831.1546646999195,None,1,0.6126950494945049,2.6135493498295546,decreament,0.6,41,standard,None,100,,807.7629098999314,None,,,,,f,21,218,fr,r,0,raw,2022-06-03_10h22.16.241,oddball,2022.1.2,60.03615369759294,
20,,,,,0,0,0,3,7,0,7,0,1,0,1,0,,,,,,,,,,,,,,,,,831.1715319999494,None,831.7051836000755,832.3051053001545,832.2886557998136,834.2892784001306,None,1,0.6091635501943529,2.609802349936217,decreament,0.6,41,standard,None,100,,,,,,,,f,21,218,fr,r,0,raw,2022-06-03_10h22.16.241,oddball,2022.1.2,60.03615369759294,
20,,,,,0,0,0,3,7,0,7,0,2,0,2,0,,,,,,,,,,,,,,,,,834.305855799932,None,835.0562313999981,835.6564755998552,835.6401255000383,837.6407535998151,None,1,0.6113502494990826,2.6119567495770752,decreament,0.6,41,standard,None,100,,,,,,,,f,21,218,fr,r,0,raw,2022-06-03_10h22.16.241,oddball,2022.1.2,60.03615369759294,
20,,,,,0,0,0,3,7,0,7,0,3,0,3,0,,,,,,,,,,,,,,,,,837.656996499747,None,838.324413199909,838.9246147000231,838.9079698999412,840.9086154997349,None,1,0.6121178497560322,2.612786449957639,decreament,0.6,41,standard,None,100,,,,,,,,f,21,218,fr,r,0,raw,2022-06-03_10h22.16.241,oddball,2022.1.2,60.03615369759294,
20,,,,,0,0,0,3,7,0,7,0,4,0,4,0,,,,,,,,,,,,,,,,,840.9254867001437,None,841.6923301001079,842.2924077999778,842.2759483000264,844.2764229997993,None,1,0.6130413501523435,2.613502750173211,decreament,0.6,41,standard,None,100,,,,,,,,f,21,218,fr,r,0,raw,2022-06-03_10h22.16.241,oddball,2022.1.2,60.03615369759294,
20,,,,,0,0,0,3,7,0,7,0,5,0,5,0,,,,,,,,,,,,,,,,,844.2930720001459,None,845.1102618998848,845.7104092999361,845.6936058998108,847.6943807001226,None,1,0.609684850089252,2.6104826498776674,decreament,0.6,41,standard,None,100,,,,,,,,f,21,218,fr,r,0,raw,2022-06-03_10h22.16.241,oddball,2022.1.2,60.03615369759294,
20,,,,,0,0,0,3,7,0,7,0,6,0,6,0,,,,,,,,,,,,,,,,,847.7112079998478,None,848.2781321997754,848.8783800997771,848.8616939000785,850.8619651999325,None,1,0.6093852501362562,2.609574449714273,decreament,0.6,41,standard,None,100,,,,,,,,f,21,218,fr,r,0,raw,2022-06-03_10h22.16.241,oddball,2022.1.2,60.03615369759294,
20,,,,,0,0,0,3,7,0,7,0,7,0,7,0,,,,,,,,,,,,,,,,,850.8788565997966,None,851.5127260000445,851.9958238000982,851.9793822998181,853.9801042997278,None,0,0.49502234952524304,2.495741649530828,decreament,0.48,44,oddball,j,80,,,,,,,,f,21,218,fr,r,0,raw,2022-06-03_10h22.16.241,oddball,2022.1.2,60.03615369759294,
20,,,,,0,0,0,3,7,0,7,0,8,0,8,0,,,,,,,,,,,,,,,,,853.9972139997408,None,854.547023399733,855.1472391998395,855.1303945998661,857.1312802997418,j,0,0.6127577503211796,2.6136404504068196,decreament,0.6,41,standard,None,100,0.8190377997234464,,,,,,,f,21,218,fr,r,0,raw,2022-06-03_10h22.16.241,oddball,2022.1.2,60.03615369759294,
20,,,,,0,0,0,3,7,0,7,0,9,0,9,0,,,,,,,,,,,,,,,,,857.1480792001821,None,857.8649246999994,858.4654386001639,858.4484655000269,860.4494306999259,None,1,0.6128517501056194,2.6139265499077737,decreament,0.6,41,standard,None,100,,,,,,,,f,21,218,fr,r,0,raw,2022-06-03_10h22.16.241,oddball,2022.1.2,60.03615369759294,
20,,,,,0,0,0,3,7,0,7,0,10,0,10,0,,,,,,,,,,,,,,,,,860.4661984001286,None,861.0326441000216,861.6332772998139,861.61630780017,863.6172417001799,None,1,0.6127159502357244,2.613649550359696,decreament,0.6,41,standard,None,100,,,,,,,,f,21,218,fr,r,0,raw,2022-06-03_10h22.16.241,oddball,2022.1.2,60.03615369759294,
20,,,,,0,0,0,3,7,0,7,0,11,0,11,0,,,,,,,,,,,,,,,,,863.6335486001335,None,864.2340271999128,864.4836667999625,864.4506891998462,866.4514599000104,j,1,0.24455665005370975,2.245394450146705,decreament,0.24,42,oddball,j,40,0.7143784002400935,,,,,,,f,21,218,fr,r,0,raw,2022-06-03_10h22.16.241,oddball,2022.1.2,60.03615369759294,
20,,,,,0,0,0,3,7,0,7,0,12,0,12,0,,,,,,,,,,,,,,,,,866.4679509000853,None,867.1184853999875,867.7186460997909,867.7019496001303,869.7025565998629,None,1,0.6118498500436544,2.612448750063777,decreament,0.6,41,standard,None,100,,,,,,,,f,21,218,fr,r,0,raw,2022-06-03_10h22.16.241,oddball,2022.1.2,60.03615369759294,
20,,,,,0,0,0,3,7,0,7,0,13,0,13,0,,,,,,,,,,,,,,,,,869.7191865001805,None,870.3697558999993,870.9696522997692,870.9530540998094,872.9539605998434,None,1,0.6132590500637889,2.6142198499292135,decreament,0.6,41,standard,None,100,,,,,,,,f,21,218,fr,r,0,raw,2022-06-03_10h22.16.241,oddball,2022.1.2,60.03615369759294,
20,,,,,0,0,0,3,7,0,7,0,14,0,14,0,,,,,,,,,,,,,,,,,872.9708615997806,None,873.6374598997645,874.2375178998336,874.2213292000815,876.221699600108,None,1,0.6140401503071189,2.61441335035488,decreament,0.6,41,standard,None,100,,,,,,,,f,21,218,fr,r,0,raw,2022-06-03_10h22.16.241,oddball,2022.1.2,60.03615369759294,
20,,,,,0,0,0,3,7,0,7,0,15,0,15,0,,,,,,,,,,,,,,,,,876.2384747001342,None,876.8386630001478,877.4394783000462,877.422658899799,879.4229827998206,None,1,0.6127457502298057,2.6129892501048744,decreament,0.6,41,standard,None,100,,,,,,,,f,21,218,fr,r,0,raw,2022-06-03_10h22.16.241,oddball,2022.1.2,60.03615369759294,
20,,,,,0,0,0,3,7,0,7,0,16,0,16,0,,,,,,,,,,,,,,,,,879.4400834999979,None,879.9902698001824,880.5900901998393,880.5734973000363,882.5739954998717,None,1,0.6105655496940017,2.6110440497286618,decreament,0.6,41,standard,None,100,,,,,,,,f,21,218,fr,r,0,raw,2022-06-03_10h22.16.241,oddball,2022.1.2,60.03615369759294,
20,,,,,0,0,0,3,7,0,7,0,17,0,17,0,,,,,,,,,,,,,,,,,882.5909756999463,None,883.1580904000439,883.7578726997599,883.7414037999697,885.7421113997698,None,1,0.6112459497526288,2.612011049874127,decreament,0.6,41,standard,None,100,,,,,,,,f,21,218,fr,r,0,raw,2022-06-03_10h22.16.241,oddball,2022.1.2,60.03615369759294,
20,,,,,0,0,0,3,7,0,7,0,18,0,18,0,,,,,,,,,,,,,,,,,885.7586332000792,None,886.4422303000465,886.8092029001564,886.7758229998872,888.7764441999607,None,0,0.36285874992609024,2.363462249748409,decreament,0.36,43,oddball,j,60,,,,,,,,f,21,218,fr,r,0,raw,2022-06-03_10h22.16.241,oddball,2022.1.2,60.03615369759294,
20,,,,,0,0,0,3,7,0,7,0,19,0,19,0,,,,,,,,,,,,,,,,,888.7932290998287,None,889.5102701997384,890.110225699842,890.0936714001,892.0943036000244,None,1,0.6120761497877538,2.6127046500332654,decreament,0.6,41,standard,None,100,,,,,,,,f,21,218,fr,r,0,raw,2022-06-03_10h22.16.241,oddball,2022.1.2,60.03615369759294,
20,,,,,0,0,0,3,7,0,7,0,20,0,20,0,,,,,,,,,,,,,,,,,892.111056199763,None,892.7781273000874,893.3784356997348,893.3617476997897,895.3622594000772,None,1,0.6123243500478566,2.612800749950111,decreament,0.6,41,standard,None,100,,,,,,,,f,21,218,fr,r,0,raw,2022-06-03_10h22.16.241,oddball,2022.1.2,60.03615369759294,
20,,,,,0,0,0,3,7,0,7,0,21,0,21,0,,,,,,,,,,,,,,,,,895.3790031997487,None,895.9295088001527,896.5293875997886,896.5128051000647,898.5137783000246,None,1,0.6113246497698128,2.6123761497437954,decreament,0.6,41,standard,None,100,,,,,,,,f,21,218,fr,r,0,raw,2022-06-03_10h22.16.241,oddball,2022.1.2,60.03615369759294,
20,,,,,0,0,0,3,7,0,7,0,22,0,22,0,,,,,,,,,,,,,,,,,898.5309117999859,None,899.11361700017,899.7139706998132,899.6974426000379,901.6980587998405,None,1,0.6136726504191756,2.614354850258678,decreament,0.6,41,standard,None,100,,,,,,,,f,21,218,fr,r,0,raw,2022-06-03_10h22.16.241,oddball,2022.1.2,60.03615369759294,
20,,,,,0,0,0,3,7,0,7,0,23,0,23,0,,,,,,,,,,,,,,,,,901.7149069998413,None,902.4651683997363,903.0651138001122,903.0483609000221,905.0498130000196,None,1,0.6105280499905348,2.612190050072968,decreament,0.6,41,standard,None,100,,,,,,,,f,21,218,fr,r,0,raw,2022-06-03_10h22.16.241,oddball,2022.1.2,60.03615369759294,
20,,,,,0,0,0,3,7,0,7,0,24,0,24,0,,,,,,,,,,,,,,,,,905.0658410000615,None,905.8498523999006,906.4498570999131,906.4334470001049,908.4341786000878,None,1,0.6125947497785091,2.613406850025058,decreament,0.6,41,standard,None,100,,,,,,,,f,21,218,fr,r,0,raw,2022-06-03_10h22.16.241,oddball,2022.1.2,60.03615369759294,
20,,,,,0,0,0,3,7,0,7,0,25,0,25,0,,,,,,,,,,,,,,,,,908.4512836998329,None,909.1008570999838,909.7010010997765,909.6843801001087,911.684932500124,None,1,0.6094439500011504,2.6099552498199046,decreament,0.6,41,standard,None,100,,,,,,,,f,21,218,fr,r,0,raw,2022-06-03_10h22.16.241,oddball,2022.1.2,60.03615369759294,
20,,,,,0,0,0,3,7,0,7,0,26,0,26,0,,,,,,,,,,,,,,,,,911.7018200997263,None,912.4192288997583,913.0190159999765,913.0026539997198,915.0035827998072,None,1,0.6106828502379358,2.6116439499892294,decreament,0.6,41,standard,None,100,,,,,,,,f,21,218,fr,r,0,raw,2022-06-03_10h22.16.241,oddball,2022.1.2,60.03615369759294,
20,,,,,0,0,0,3,7,0,7,0,27,0,27,0,,,,,,,,,,,,,,,,,915.0197862000205,None,915.5867010997608,916.1870375000872,916.1704492997378,918.17092269985,None,1,0.6131620495580137,2.6136084496974945,decreament,0.6,41,standard,None,100,,,,,,,,f,21,218,fr,r,0,raw,2022-06-03_10h22.16.241,oddball,2022.1.2,60.03615369759294,
20,,,,,0,0,0,3,7,0,7,0,28,0,28,0,,,,,,,,,,,,,,,,,918.187866399996,None,918.9882704997435,919.5882341000251,919.5716655999422,921.5722603001632,j,0,0.6118145501241088,2.6123864501714706,decreament,0.6,41,standard,None,100,0.5458129001781344,,,,,,,f,21,218,fr,r,0,raw,2022-06-03_10h22.16.241,oddball,2022.1.2,60.03615369759294,
20,,,,,0,0,0,3,7,0,7,0,29,0,29,0,,,,,,,,,,,,,,,,,921.5890274001285,None,922.3393184999004,922.9394511999562,922.9228858998977,924.9240037999116,None,1,0.6124082496389747,2.613989149685949,decreament,0.6,41,standard,None,100,,,,,,,,f,21,218,fr,r,0,raw,2022-06-03_10h22.16.241,oddball,2022.1.2,60.03615369759294,
20,,,,,0,0,0,3,8,0,8,0,0,0,0,0,,,,,,,,,,,,,,,939.1667256997898,None,943.480591500178,None,944.0641307998449,944.6641828999855,944.6475363001227,946.6490798001178,None,1,0.6081749498844147,2.6098948498256505,increament,0.6,45,standard,None,100,,924.9424533997662,None,,,,,f,21,218,fr,r,0,raw,2022-06-03_10h22.16.241,oddball,2022.1.2,60.03615369759294,
20,,,,,0,0,0,3,8,0,8,0,1,0,1,0,,,,,,,,,,,,,,,,,946.66498149978,None,947.2822620999068,947.8820981001481,947.865778000094,949.8662076997571,None,1,0.609538349788636,2.6099605499766767,increament,0.6,45,standard,None,100,,,,,,,,f,21,218,fr,r,0,raw,2022-06-03_10h22.16.241,oddball,2022.1.2,60.03615369759294,
20,,,,,0,0,0,3,8,0,8,0,2,0,2,0,,,,,,,,,,,,,,,,,949.882958999835,None,950.5502844997682,951.1503145000897,951.1338145998307,953.134387999773,None,1,0.6130467494949698,2.6136000496335328,increament,0.6,45,standard,None,100,,,,,,,,f,21,218,fr,r,0,raw,2022-06-03_10h22.16.241,oddball,2022.1.2,60.03615369759294,
20,,,,,0,0,0,3,8,0,8,0,3,0,3,0,,,,,,,,,,,,,,,,,953.1509441998787,None,953.7346930000931,954.3349751997739,954.3181007998064,956.3188884998672,None,1,0.6122335498221219,2.6130273500457406,increament,0.6,45,standard,None,100,,,,,,,,f,21,218,fr,r,0,raw,2022-06-03_10h22.16.241,oddball,2022.1.2,60.03615369759294,
20,,,,,0,0,0,3,8,0,8,0,4,0,4,0,,,,,,,,,,,,,,,,,956.3354402999394,None,957.0358397997916,957.6359601998702,957.6192059000023,959.6198470997624,None,1,0.6122803497128189,2.6128866500221193,increament,0.6,45,standard,None,100,,,,,,,,f,21,218,fr,r,0,raw,2022-06-03_10h22.16.241,oddball,2022.1.2,60.03615369759294,
20,,,,,0,0,0,3,8,0,8,0,5,0,5,0,,,,,,,,,,,,,,,,,959.6365475999191,None,960.170042600017,960.7704512998462,960.7537978999317,962.7548993001692,None,1,0.6133741498924792,2.614552649669349,increament,0.6,45,standard,None,100,,,,,,,,f,21,218,fr,r,0,raw,2022-06-03_10h22.16.241,oddball,2022.1.2,60.03615369759294,
20,,,,,0,0,0,3,8,0,8,0,6,0,6,0,,,,,,,,,,,,,,,,,962.7722877999768,None,963.3214341001585,963.9217546000145,963.9052724000067,965.9055980998091,None,1,0.614050549454987,2.6143244495615363,increament,0.6,45,standard,None,100,,,,,,,,f,21,218,fr,r,0,raw,2022-06-03_10h22.16.241,oddball,2022.1.2,60.03615369759294,
20,,,,,0,0,0,3,8,0,8,0,7,0,7,0,,,,,,,,,,,,,,,,,965.9226216999814,None,966.5226406999864,967.1226288997568,967.106144499965,969.1074163001031,None,1,0.6121875504031777,2.6136208502575755,increament,0.6,45,standard,None,100,,,,,,,,f,21,218,fr,r,0,raw,2022-06-03_10h22.16.241,oddball,2022.1.2,60.03615369759294,
20,,,,,0,0,0,3,8,0,8,0,8,0,8,0,,,,,,,,,,,,,,,,,969.1237379000522,None,969.7237287997268,970.3245528000407,970.3075851998292,972.3083230000921,None,1,0.6134361498989165,2.614188449922949,increament,0.6,45,standard,None,100,,,,,,,,f,21,218,fr,r,0,raw,2022-06-03_10h22.16.241,oddball,2022.1.2,60.03615369759294,
20,,,,,0,0,0,3,8,0,8,0,9,0,9,0,,,,,,,,,,,,,,,,,972.3250981001183,None,973.1251175999641,973.9753388999961,973.9426237000152,975.9427461000159,j,1,0.8467886499129236,2.846815850120038,increament,0.84,47,oddball,j,140,0.3655621004290879,,,,,,,f,21,218,fr,r,0,raw,2022-06-03_10h22.16.241,oddball,2022.1.2,60.03615369759294,
20,,,,,0,0,0,3,8,0,8,0,10,0,10,0,,,,,,,,,,,,,,,,,975.9594940999523,None,976.526670999825,977.1267800000496,977.1106607001275,979.1107475999743,None,1,0.6102121500298381,2.610207250341773,increament,0.6,45,standard,None,100,,,,,,,,f,21,218,fr,r,0,raw,2022-06-03_10h22.16.241,oddball,2022.1.2,60.03615369759294,
20,,,,,0,0,0,3,8,0,8,0,11,0,11,0,,,,,,,,,,,,,,,,,979.1273604999296,None,979.7946367999539,980.3947783000767,980.3780975998379,982.378896499984,None,1,0.6098990496248007,2.6107721496373415,increament,0.6,45,standard,None,100,,,,,,,,f,21,218,fr,r,0,raw,2022-06-03_10h22.16.241,oddball,2022.1.2,60.03615369759294,
20,,,,,0,0,0,3,8,0,8,0,12,0,12,0,,,,,,,,,,,,,,,,,982.3951789997518,None,982.978807900101,983.5790089997463,983.5624961000867,985.5628411001526,None,1,0.6124408496543765,2.612756549846381,increament,0.6,45,standard,None,100,,,,,,,,f,21,218,fr,r,0,raw,2022-06-03_10h22.16.241,oddball,2022.1.2,60.03615369759294,
20,,,,,0,0,0,3,8,0,8,0,13,0,13,0,,,,,,,,,,,,,,,,,985.5798589000478,None,986.2468086001463,986.9803144000471,986.9472763999365,988.9477627999149,None,0,0.7288697496987879,2.7293375497683883,increament,0.72,46,oddball,j,120,,,,,,,,f,21,218,fr,r,0,raw,2022-06-03_10h22.16.241,oddball,2022.1.2,60.03615369759294,
20,,,,,0,0,0,3,8,0,8,0,14,0,14,0,,,,,,,,,,,,,,,,,988.9646304999478,None,989.5483046001755,990.1481487001292,990.1315438998863,992.1324159000069,None,1,0.6097345501184464,2.610621649771929,increament,0.6,45,standard,None,100,,,,,,,,f,21,218,fr,r,0,raw,2022-06-03_10h22.16.241,oddball,2022.1.2,60.03615369759294,
20,,,,,0,0,0,3,8,0,8,0,15,0,15,0,,,,,,,,,,,,,,,,,992.1490166997537,None,992.6660949997604,993.26619629981,993.2497768998146,995.2500141998753,None,1,0.6111000496894121,2.6112572494894266,increament,0.6,45,standard,None,100,,,,,,,,f,21,218,fr,r,0,raw,2022-06-03_10h22.16.241,oddball,2022.1.2,60.03615369759294,
20,,,,,0,0,0,3,8,0,8,0,16,0,16,0,,,,,,,,,,,,,,,,,995.266879200004,None,995.8334392998368,996.4341971999966,996.4173078997992,998.4179038000293,None,1,0.6148084499873221,2.6153558497317135,increament,0.6,45,standard,None,100,,,,,,,,f,21,218,fr,r,0,raw,2022-06-03_10h22.16.241,oddball,2022.1.2,60.03615369759294,
20,,,,,0,0,0,3,8,0,8,0,17,0,17,0,,,,,,,,,,,,,,,,,998.4344731001183,None,999.118326399941,999.7182644000277,999.7018587999046,1001.7025068998337,None,1,0.6136619495227933,2.614287049975246,increament,0.6,45,standard,None,100,,,,,,,,f,21,218,fr,r,0,raw,2022-06-03_10h22.16.241,oddball,2022.1.2,60.03615369759294,
20,,,,,0,0,0,3,8,0,8,0,18,0,18,0,,,,,,,,,,,,,,,,,1001.7195383999497,None,1002.5528759998269,1003.1530896998011,1003.1371447001584,1005.1372559997253,None,1,0.6130941496230662,2.613136449828744,increament,0.6,45,standard,None,100,,,,,,,,f,21,218,fr,r,0,raw,2022-06-03_10h22.16.241,oddball,2022.1.2,60.03615369759294,
20,,,,,0,0,0,3,8,0,8,0,19,0,19,0,,,,,,,,,,,,,,,,,1005.1540163997561,None,1005.6708937999792,1006.2709189997986,1006.2546270997263,1008.2550379000604,None,1,0.6127586499787867,2.613169649615884,increament,0.6,45,standard,None,100,,,,,,,,f,21,218,fr,r,0,raw,2022-06-03_10h22.16.241,oddball,2022.1.2,60.03615369759294,
20,,,,,0,0,0,3,8,0,8,0,20,0,20,0,,,,,,,,,,,,,,,,,1008.2719856998883,None,1008.8223232999444,1009.4223707998171,1009.4058187999763,1011.4063916997984,None,1,0.612018050160259,2.612555450294167,increament,0.6,45,standard,None,100,,,,,,,,f,21,218,fr,r,0,raw,2022-06-03_10h22.16.241,oddball,2022.1.2,60.03615369759294,
20,,,,,0,0,0,3,8,0,8,0,21,0,21,0,,,,,,,,,,,,,,,,,1011.4233896997757,None,1012.1231287000701,1012.7234286000021,1012.7070800000802,1014.707525299862,None,1,0.6134228501468897,2.6138100498355925,increament,0.6,45,standard,None,100,,,,,,,,f,21,218,fr,r,0,raw,2022-06-03_10h22.16.241,oddball,2022.1.2,60.03615369759294,
20,,,,,0,0,0,3,8,0,8,0,22,0,22,0,,,,,,,,,,,,,,,,,1014.7243685000576,None,1015.5078953001648,1016.1078610997647,1016.0915056001395,1018.0924037997611,None,1,0.611933549400419,2.6128476494923234,increament,0.6,45,standard,None,100,,,,,,,,f,21,218,fr,r,0,raw,2022-06-03_10h22.16.241,oddball,2022.1.2,60.03615369759294,
20,,,,,0,0,0,3,8,0,8,0,23,0,23,0,,,,,,,,,,,,,,,,,1018.1090370998718,None,1018.8425190001726,1019.4426064998843,1019.4259091001004,1021.4267430999316,None,1,0.6115157497115433,2.612382949795574,increament,0.6,45,standard,None,100,,,,,,,,f,21,218,fr,r,0,raw,2022-06-03_10h22.16.241,oddball,2022.1.2,60.03615369759294,
20,,,,,0,0,0,3,8,0,8,0,24,0,24,0,,,,,,,,,,,,,,,,,1021.4434317997657,None,1021.9935150998645,1022.5937477997504,1022.5769728999585,1024.5777805000544,None,1,0.6129214493557811,2.613751649390906,increament,0.6,45,standard,None,100,,,,,,,,f,21,218,fr,r,0,raw,2022-06-03_10h22.16.241,oddball,2022.1.2,60.03615369759294,
20,,,,,0,0,0,3,8,0,8,0,25,0,25,0,,,,,,,,,,,,,,,,,1024.5945986001752,None,1025.1617529997602,1026.12860979978,1026.0955199999735,1028.0958447000012,j,1,0.9627771493978798,2.963048849720508,increament,0.96,48,oddball,j,160,0.4198733000084758,,,,,,,f,21,218,fr,r,0,raw,2022-06-03_10h22.16.241,oddball,2022.1.2,60.03615369759294,
20,,,,,0,0,0,3,8,0,8,0,26,0,26,0,,,,,,,,,,,,,,,,,1028.1125884000212,None,1028.763116599992,1029.3631604998372,1029.3469127998687,1031.3471794999205,None,1,0.6117690498940647,2.61196084972471,increament,0.6,45,standard,None,100,,,,,,,,f,21,218,fr,r,0,raw,2022-06-03_10h22.16.241,oddball,2022.1.2,60.03615369759294,
20,,,,,0,0,0,3,8,0,8,0,27,0,27,0,,,,,,,,,,,,,,,,,1031.3640132998116,None,1032.1475121998228,1032.747641599737,1032.7313294000924,1034.7317117997445,None,1,0.613041449803859,2.6133580496534705,increament,0.6,45,standard,None,100,,,,,,,,f,21,218,fr,r,0,raw,2022-06-03_10h22.16.241,oddball,2022.1.2,60.03615369759294,
20,,,,,0,0,0,3,8,0,8,0,28,0,28,0,,,,,,,,,,,,,,,,,1034.7485871999525,None,1035.5655215000734,1036.1656895000488,1036.1488771000877,1038.1498544998467,None,1,0.6123096500523388,2.613331050146371,increament,0.6,45,standard,None,100,,,,,,,,f,21,218,fr,r,0,raw,2022-06-03_10h22.16.241,oddball,2022.1.2,60.03615369759294,
20,,,,,0,0,0,3,8,0,8,0,29,0,29,0,,,,,,,,,,,,,,,,,1038.1666687000543,None,1038.7331546000205,1039.333708500024,1039.3169379001483,1041.3175882999785,None,1,0.6135594500228763,2.6141456495970488,increament,0.6,45,standard,None,100,,,,,,,,f,21,218,fr,r,0,raw,2022-06-03_10h22.16.241,oddball,2022.1.2,60.03615369759294,
20,,,,,0,0,0,3,9,0,9,0,0,0,0,0,,,,,,,,,,,,,,,1044.1220204001293,None,1050.4711378999054,None,1051.0882556000724,1051.6881463001482,1051.6715508000925,1053.6725518000312,None,1,0.6100259502418339,2.6110950503498316,decreament,0.6,41,standard,None,100,,1041.3344378997572,None,,,,,f,21,218,fr,r,0,raw,2022-06-03_10h22.16.241,oddball,2022.1.2,60.03615369759294,
20,,,,,0,0,0,3,9,0,9,0,1,0,1,0,,,,,,,,,,,,,,,,,1053.6892198999412,None,1054.2725957999937,1054.872683700174,1054.8564550001174,1056.8568873000331,None,1,0.6130611500702798,2.613458249717951,decreament,0.6,41,standard,None,100,,,,,,,,f,21,218,fr,r,0,raw,2022-06-03_10h22.16.241,oddball,2022.1.2,60.03615369759294,
20,,,,,0,0,0,3,9,0,9,0,2,0,2,0,,,,,,,,,,,,,,,,,1056.8736511999741,None,1057.5736973998137,1058.174226900097,1058.1582005997188,1060.1580595998093,None,1,0.614278550259769,2.6140494500286877,decreament,0.6,41,standard,None,100,,,,,,,,f,21,218,fr,r,0,raw,2022-06-03_10h22.16.241,oddball,2022.1.2,60.03615369759294,
20,,,,,0,0,0,3,9,0,9,0,3,0,3,0,,,,,,,,,,,,,,,,,1060.17491349997,None,1060.875065700151,1061.4752075001597,1061.459088199772,1063.459511899855,None,1,0.6129493499174714,2.613336249720305,decreament,0.6,41,standard,None,100,,,,,,,,f,21,218,fr,r,0,raw,2022-06-03_10h22.16.241,oddball,2022.1.2,60.03615369759294,
20,,,,,0,0,0,3,9,0,9,0,4,0,4,0,,,,,,,,,,,,,,,,,1063.4760198998265,None,1064.1263505998068,1064.726632699836,1064.710156599991,1066.7106109997258,None,1,0.612648050300777,2.613063550554216,decreament,0.6,41,standard,None,100,,,,,,,,f,21,218,fr,r,0,raw,2022-06-03_10h22.16.241,oddball,2022.1.2,60.03615369759294,
20,,,,,0,0,0,3,9,0,9,0,5,0,5,0,,,,,,,,,,,,,,,,,1066.727437700145,None,1067.4442467000335,1068.044386799913,1068.0277264998294,1070.0288907000795,None,1,0.6132865501567721,2.6145138503052294,decreament,0.6,41,standard,None,100,,,,,,,,f,21,218,fr,r,0,raw,2022-06-03_10h22.16.241,oddball,2022.1.2,60.03615369759294,
20,,,,,0,0,0,3,9,0,9,0,6,0,6,0,,,,,,,,,,,,,,,,,1070.0454326998442,None,1070.7123891999945,1071.3126978999935,1071.2958490997553,1073.296825000085,None,1,0.6112042502500117,2.6122171501629055,decreament,0.6,41,standard,None,100,,,,,,,,f,21,218,fr,r,0,raw,2022-06-03_10h22.16.241,oddball,2022.1.2,60.03615369759294,
20,,,,,0,0,0,3,9,0,9,0,7,0,7,0,,,,,,,,,,,,,,,,,1073.314032400027,None,1074.0304939998314,1074.6303375000134,1074.6135581997223,1076.6142354998738,None,1,0.6090387497097254,2.60970545001328,decreament,0.6,41,standard,None,100,,,,,,,,f,21,218,fr,r,0,raw,2022-06-03_10h22.16.241,oddball,2022.1.2,60.03615369759294,
20,,,,,0,0,0,3,9,0,9,0,8,0,8,0,,,,,,,,,,,,,,,,,1076.6309421998449,None,1077.2982922997326,1077.897943600081,1077.881829299964,1079.8822217998095,None,1,0.6104781501926482,2.610868650022894,decreament,0.6,41,standard,None,100,,,,,,,,f,21,218,fr,r,0,raw,2022-06-03_10h22.16.241,oddball,2022.1.2,60.03615369759294,
20,,,,,0,0,0,3,9,0,9,0,9,0,9,0,,,,,,,,,,,,,,,,,1079.8990215999074,None,1080.5328429997899,1081.1325769000687,1081.116005799733,1083.116802699864,None,1,0.6102852500043809,2.6111013498157263,decreament,0.6,41,standard,None,100,,,,,,,,f,21,218,fr,r,0,raw,2022-06-03_10h22.16.241,oddball,2022.1.2,60.03615369759294,
20,,,,,0,0,0,3,9,0,9,0,10,0,10,0,,,,,,,,,,,,,,,,,1083.1334424000233,None,1083.8173453998752,1084.4174338001758,1084.4005085998215,1086.4015815998428,None,1,0.6100415498949587,2.6111636497080326,decreament,0.6,41,standard,None,100,,,,,,,,f,21,218,fr,r,0,raw,2022-06-03_10h22.16.241,oddball,2022.1.2,60.03615369759294,
20,,,,,0,0,0,3,9,0,9,0,11,0,11,0,,,,,,,,,,,,,,,,,1086.4182346998714,None,1087.001739599742,1087.6017392999493,1087.5853822999634,1089.5859599001706,None,1,0.6116214501671493,2.6121901501901448,decreament,0.6,41,standard,None,100,,,,,,,,f,21,218,fr,r,0,raw,2022-06-03_10h22.16.241,oddball,2022.1.2,60.03615369759294,
20,,,,,0,0,0,3,9,0,9,0,12,0,12,0,,,,,,,,,,,,,,,,,1089.6025978000835,None,1090.3363661998883,1090.9364156997763,1090.9196199001744,1092.9205284998752,None,1,0.609160449821502,2.610079249832779,decreament,0.6,41,standard,None,100,,,,,,,,f,21,218,fr,r,0,raw,2022-06-03_10h22.16.241,oddball,2022.1.2,60.03615369759294,
20,,,,,0,0,0,3,9,0,9,0,13,0,13,0,,,,,,,,,,,,,,,,,1092.937316399999,None,1093.6043746997602,1093.8542013000697,1093.8210318000056,1095.821916999761,j,1,0.2453009495511651,2.2461674492806196,decreament,0.24,42,oddball,j,40,0.623376099858433,,,,,,,f,21,218,fr,r,0,raw,2022-06-03_10h22.16.241,oddball,2022.1.2,60.03615369759294,
20,,,,,0,0,0,3,9,0,9,0,14,0,14,0,,,,,,,,,,,,,,,,,1095.8381640999578,None,1096.5217712000012,1097.1222788998857,1097.1055827997625,1099.1061271000654,None,1,0.6133491499349475,2.6139219501055777,decreament,0.6,41,standard,None,100,,,,,,,,f,21,218,fr,r,0,raw,2022-06-03_10h22.16.241,oddball,2022.1.2,60.03615369759294,
20,,,,,0,0,0,3,9,0,9,0,15,0,15,0,,,,,,,,,,,,,,,,,1099.1227752999403,None,1099.8230057000183,1100.4237854001112,1100.4070656998083,1102.407370199915,None,1,0.6133677498437464,2.613576749805361,decreament,0.6,41,standard,None,100,,,,,,,,f,21,218,fr,r,0,raw,2022-06-03_10h22.16.241,oddball,2022.1.2,60.03615369759294,
20,,,,,0,0,0,3,9,0,9,0,16,0,16,0,,,,,,,,,,,,,,,,,1102.4242704999633,None,1103.0245783999562,1103.6245940998197,1103.6078579998575,1105.608963099774,None,1,0.6081342496909201,2.6092774500139058,decreament,0.6,41,standard,None,100,,,,,,,,f,21,218,fr,r,0,raw,2022-06-03_10h22.16.241,oddball,2022.1.2,60.03615369759294,
20,,,,,0,0,0,3,9,0,9,0,17,0,17,0,,,,,,,,,,,,,,,,,1105.6256089997478,None,1106.258742599748,1106.858842200134,1106.842109200079,1108.8431465998292,None,1,0.6121997502632439,2.6132744499482214,decreament,0.6,41,standard,None,100,,,,,,,,f,21,218,fr,r,0,raw,2022-06-03_10h22.16.241,oddball,2022.1.2,60.03615369759294,
20,,,,,0,0,0,3,9,0,9,0,18,0,18,0,,,,,,,,,,,,,,,,,1108.8598452997394,None,1109.5435882001184,1110.143558199983,1110.1270396998152,1112.128049199935,None,1,0.612280750181526,2.613317550159991,decreament,0.6,41,standard,None,100,,,,,,,,f,21,218,fr,r,0,raw,2022-06-03_10h22.16.241,oddball,2022.1.2,60.03615369759294,
20,,,,,0,0,0,3,9,0,9,0,19,0,19,0,,,,,,,,,,,,,,,,,1112.1445530001074,None,1112.7445906000212,1113.3450536997989,1113.3282453999855,1115.3293945998885,None,1,0.6129425498656929,2.6141902497038245,decreament,0.6,41,standard,None,100,,,,,,,,f,21,218,fr,r,0,raw,2022-06-03_10h22.16.241,oddball,2022.1.2,60.03615369759294,
20,,,,,0,0,0,3,9,0,9,0,20,0,20,0,,,,,,,,,,,,,,,,,1115.3454800001346,None,1115.9795939000323,1116.346220899839,1116.3294541998766,1118.3302448997274,j,1,0.3752459501847625,2.376054049935192,decreament,0.36,43,oddball,j,60,0.658568300306797,,,,,,,f,21,218,fr,r,0,raw,2022-06-03_10h22.16.241,oddball,2022.1.2,60.03615369759294,
20,,,,,0,0,0,3,9,0,9,0,21,0,21,0,,,,,,,,,,,,,,,,,1118.3467732998542,None,1119.0471743997186,1119.647399299778,1119.6306003998034,1121.6317867999896,None,1,0.6127852499485016,2.6140568503178656,decreament,0.6,41,standard,None,100,,,,,,,,f,21,218,fr,r,0,raw,2022-06-03_10h22.16.241,oddball,2022.1.2,60.03615369759294,
20,,,,,0,0,0,3,9,0,9,0,22,0,22,0,,,,,,,,,,,,,,,,,1121.6490144999698,None,1122.2315410999581,1122.8317525000311,1122.8153113997541,1124.816017900128,None,1,0.6132862498052418,2.6140029500238597,decreament,0.6,41,standard,None,100,,,,,,,,f,21,218,fr,r,0,raw,2022-06-03_10h22.16.241,oddball,2022.1.2,60.03615369759294,
20,,,,,0,0,0,3,9,0,9,0,23,0,23,0,,,,,,,,,,,,,,,,,1124.8328594998457,None,1125.5997349000536,1126.1998561001383,1126.1835857997648,1128.1844494999386,None,1,0.6097759497351944,2.6106430497020483,decreament,0.6,41,standard,None,100,,,,,,,,f,21,218,fr,r,0,raw,2022-06-03_10h22.16.241,oddball,2022.1.2,60.03615369759294,
20,,,,,0,0,0,3,9,0,9,0,24,0,24,0,,,,,,,,,,,,,,,,,1128.2005197997205,None,1128.7843574001454,1129.2677079001442,1129.234751000069,1131.2349104001187,None,0,0.4794017500244081,2.4794776500202715,decreament,0.48,44,oddball,j,80,,,,,,,,f,21,218,fr,r,0,raw,2022-06-03_10h22.16.241,oddball,2022.1.2,60.03615369759294,
20,,,,,0,0,0,3,9,0,9,0,25,0,25,0,,,,,,,,,,,,,,,,,1131.2515708999708,None,1131.8689422998577,1132.4689633999951,1132.4520744001493,1134.4531382001005,None,1,0.6089613498188555,2.610082949511707,decreament,0.6,41,standard,None,100,,,,,,,,f,21,218,fr,r,0,raw,2022-06-03_10h22.16.241,oddball,2022.1.2,60.03615369759294,
20,,,,,0,0,0,3,9,0,9,0,26,0,26,0,,,,,,,,,,,,,,,,,1134.469780200161,None,1135.0697686001658,1135.6701786997728,1135.6534261000343,1137.6540946997702,None,1,0.6126863500103354,2.6133352499455214,decreament,0.6,41,standard,None,100,,,,,,,,f,21,218,fr,r,0,raw,2022-06-03_10h22.16.241,oddball,2022.1.2,60.03615369759294,
20,,,,,0,0,0,3,9,0,9,0,27,0,27,0,,,,,,,,,,,,,,,,,1137.670900600031,None,1138.454533000011,1139.054657000117,1139.0381702999584,1141.038995000068,j,0,0.612492149695754,2.6133331498131156,decreament,0.6,41,standard,None,100,1.5582170002162457,,,,,,,f,21,218,fr,r,0,raw,2022-06-03_10h22.16.241,oddball,2022.1.2,60.03615369759294,
20,,,,,0,0,0,3,9,0,9,0,28,0,28,0,,,,,,,,,,,,,,,,,1141.0556620997377,None,1141.6890843999572,1142.2892109998502,1142.2727632001042,1144.2735417997465,None,1,0.6113484501838684,2.612171750050038,decreament,0.6,41,standard,None,100,,,,,,,,f,21,218,fr,r,0,raw,2022-06-03_10h22.16.241,oddball,2022.1.2,60.03615369759294,
20,,,,,0,0,0,3,9,0,9,0,29,0,29,0,,,,,,,,,,,,,,,,,1144.2903187000193,None,1144.9400113001466,1145.5402484997176,1145.523584799841,1147.5241686999798,None,1,0.6119022499769926,2.612473649904132,decreament,0.6,41,standard,None,100,,,,,,,,f,21,218,fr,r,0,raw,2022-06-03_10h22.16.241,oddball,2022.1.2,60.03615369759294,
0,,,,,0,1,1,0,0,0,0,0,0,0,0,0,,,,,,,,,,,,,,,1331.6464287997223,None,1333.0284971999936,None,1333.6282119997777,1334.2285059997812,1334.2120101000182,1336.2128257998265,None,1,0.6101165502332151,2.6109034502878785,increament,0.6,5,standard,None,100,,1327.559613400139,None,1147.5517493998632,None,,,f,21,218,fr,r,0,raw,2022-06-03_10h22.16.241,oddball,2022.1.2,60.03615369759294,
0,,,,,0,1,1,0,0,0,0,0,1,0,1,0,,,,,,,,,,,,,,,,,1336.2293140999973,None,1336.89655079972,1337.4964370997623,1337.4801034000702,1339.480608599726,None,1,0.6120261503383517,2.6125665502622724,increament,0.6,5,standard,None,100,,,,,,,,f,21,218,fr,r,0,raw,2022-06-03_10h22.16.241,oddball,2022.1.2,60.03615369759294,
0,,,,,0,1,1,0,0,0,0,0,2,0,2,0,,,,,,,,,,,,,,,,,1339.4971320000477,None,1340.0308515997604,1340.630818899721,1340.6143076000735,1342.6154521000572,None,1,0.6126527502201498,2.613834250252694,increament,0.6,5,standard,None,100,,,,,,,,f,21,218,fr,r,0,raw,2022-06-03_10h22.16.241,oddball,2022.1.2,60.03615369759294,
0,,,,,0,1,1,0,0,0,0,0,3,0,3,0,,,,,,,,,,,,,,,,,1342.6319532999769,None,1343.1991832000203,1343.7988648000173,1343.782102199737,1345.7830485999584,None,1,0.608931050170213,2.6099055502563715,increament,0.6,5,standard,None,100,,,,,,,,f,21,218,fr,r,0,raw,2022-06-03_10h22.16.241,oddball,2022.1.2,60.03615369759294,
0,,,,,0,1,1,0,0,0,0,0,4,0,4,0,,,,,,,,,,,,,,,,,1345.7997528999113,None,1346.3667695000768,1346.9668089998886,1346.9503906001337,1348.9510634001344,None,1,0.6111444500274956,2.6117621501907706,increament,0.6,5,standard,None,100,,,,,,,,f,21,218,fr,r,0,raw,2022-06-03_10h22.16.241,oddball,2022.1.2,60.03615369759294,
0,,,,,0,1,1,0,0,0,0,0,5,0,5,0,,,,,,,,,,,,,,,,,1348.9674351001158,None,1349.5844268999062,1350.1845478997566,1350.1686964998953,1352.1690656999126,None,1,0.613319150172174,2.6136593502014875,increament,0.6,5,standard,None,100,,,,,,,,f,21,218,fr,r,0,raw,2022-06-03_10h22.16.241,oddball,2022.1.2,60.03615369759294,
0,,,,,0,1,1,0,0,0,0,0,6,0,6,0,,,,,,,,,,,,,,,,,1352.1856344998814,None,1352.752125099767,1353.3524842001498,1353.3358235000633,1355.336824200116,None,1,0.6134533495642245,2.6145608494989574,increament,0.6,5,standard,None,100,,,,,,,,f,21,218,fr,r,0,raw,2022-06-03_10h22.16.241,oddball,2022.1.2,60.03615369759294,
0,,,,,0,1,1,0,0,0,0,0,7,0,7,0,,,,,,,,,,,,,,,,,1355.3552286997437,None,1356.0200621997938,1356.620591700077,1356.6040916000493,1358.6047974000685,None,1,0.6132049500010908,2.613935850095004,increament,0.6,5,standard,None,100,,,,,,,,f,21,218,fr,r,0,raw,2022-06-03_10h22.16.241,oddball,2022.1.2,60.03615369759294,
0,,,,,0,1,1,0,0,0,0,0,8,0,8,0,,,,,,,,,,,,,,,,,1358.6213492997922,None,1359.2881121998653,1359.8884590999223,1359.8720654998906,1361.8729989998974,None,1,0.6122422497719526,2.6132276500575244,increament,0.6,5,standard,None,100,,,,,,,,f,21,218,fr,r,0,raw,2022-06-03_10h22.16.241,oddball,2022.1.2,60.03615369759294,
0,,,,,0,1,1,0,0,0,0,0,9,0,9,0,,,,,,,,,,,,,,,,,1361.8890986000188,None,1362.606104500126,1363.2064765999094,1363.1896345000714,1365.1902445000596,None,1,0.6127480496652424,2.61331274965778,increament,0.6,5,standard,None,100,,,,,,,,f,21,218,fr,r,0,raw,2022-06-03_10h22.16.241,oddball,2022.1.2,60.03615369759294,
0,,,,,0,1,1,0,0,0,0,0,10,0,10,0,,,,,,,,,,,,,,,,,1365.206947799772,None,1365.823909100145,1366.4242131998762,1366.407341199927,1368.408430099953,None,1,0.6110130501911044,2.6121337502263486,increament,0.6,5,standard,None,100,,,,,,,,f,21,218,fr,r,0,raw,2022-06-03_10h22.16.241,oddball,2022.1.2,60.03615369759294,
0,,,,,0,1,1,0,0,0,0,0,11,0,11,0,,,,,,,,,,,,,,,,,1368.424885999877,None,1369.20839469973,1369.8087236997671,1369.792127000168,1371.792773900088,j,0,0.6123887500725687,2.6130114505067468,increament,0.6,5,standard,None,100,0.3313623000867665,,,,,,,f,21,218,fr,r,0,raw,2022-06-03_10h22.16.241,oddball,2022.1.2,60.03615369759294,
0,,,,,0,1,1,0,0,0,0,0,12,0,12,0,,,,,,,,,,,,,,,,,1371.809568299912,None,1372.4932953999378,1373.0931691997685,1373.0766906999052,1375.0773609997705,None,1,0.6117031499743462,2.612352449912578,increament,0.6,5,standard,None,100,,,,,,,,f,21,218,fr,r,0,raw,2022-06-03_10h22.16.241,oddball,2022.1.2,60.03615369759294,
0,,,,,0,1,1,0,0,0,0,0,13,0,13,0,,,,,,,,,,,,,,,,,1375.0940141999163,None,1375.7108831000514,1376.3109658998437,1376.2944861999713,1378.2953079999425,None,1,0.6136730499565601,2.6143834497779608,increament,0.6,5,standard,None,100,,,,,,,,f,21,218,fr,r,0,raw,2022-06-03_10h22.16.241,oddball,2022.1.2,60.03615369759294,
