grating_freq,blocks_prac.thisRepN,blocks_prac.thisTrialN,blocks_prac.thisN,blocks_prac.thisIndex,blocks.thisRepN,blocks.thisTrialN,blocks.thisN,blocks.thisIndex,repeat_freq.thisRepN,repeat_freq.thisTrialN,repeat_freq.thisN,repeat_freq.thisIndex,trials.thisRepN,trials.thisTrialN,trials.thisN,trials.thisIndex,break_loop.thisRepN,break_loop.thisTrialN,break_loop.thisN,break_loop.thisIndex,rest_loop.thisRepN,rest_loop.thisTrialN,rest_loop.thisN,rest_loop.thisIndex,instruct_prac_text.started,instruct_prac_text.stopped,b_instruct_text_2_.started,b_instruct_text_2_.stopped,prac_done_text.started,prac_done_text.stopped,instruct_text.started,instruct_text.stopped,fixation.started,fixation.stopped,grating.started,grating.stopped,blank.started,blank.stopped,resp.keys,resp.corr,resp.started,resp.stopped,direction,duration,trigger,stim_type,corr_ans,scaling,resp.rt,rest_text.started,rest_text.stopped,text_2.started,text_2.stopped,thx_txt.started,thx_txt.stopped,gender,age,participant,language,main_hand,nBlock_prac,file_suffix,date,expName,psychopyVersion,frameRate,
20,,,,,0,0,0,3,0,0,0,0,0,0,0,0,,,,,,,,,24.29706750018522,None,29.393857900053263,None,41.260715200100094,None,79.17736930027604,None,86.66480420017615,None,87.3682453003712,87.98224950022995,87.91558260004967,89.91661580000073,None,1,0.6102868802845478,2.6113834800198674,increament,0.6,45,standard,None,100,,,,,,,,m,33,224,fr,r,0,raw,2022-06-14_15h42.08.372,oddball,2022.1.2,59.98818222414917,
20,,,,,0,0,0,3,0,0,0,0,1,0,1,0,,,,,,,,,,,,,,,,,89.93290180014446,None,90.61659370036796,91.216393600218,91.19978590030223,93.20128210028633,None,1,0.6106728799641132,2.6122396802529693,increament,0.6,45,standard,None,100,,,,,,,,m,33,224,fr,r,0,raw,2022-06-14_15h42.08.372,oddball,2022.1.2,59.98818222414917,
20,,,,,0,0,0,3,0,0,0,0,2,0,2,0,,,,,,,,,,,,,,,,,93.2176089999266,None,93.76785030029714,94.36789080034941,94.35129539994523,96.35204910021275,None,1,0.6118845804594457,2.612609080504626,increament,0.6,45,standard,None,100,,,,,,,,m,33,224,fr,r,0,raw,2022-06-14_15h42.08.372,oddball,2022.1.2,59.98818222414917,
20,,,,,0,0,0,3,0,0,0,0,3,0,3,0,,,,,,,,,,,,,,,,,96.36867649992928,None,97.03578090015799,97.63634570036083,97.61979110026732,99.6201531002298,None,1,0.6109291799366474,2.611269979737699,increament,0.6,45,standard,None,100,,,,,,,,m,33,224,fr,r,0,raw,2022-06-14_15h42.08.372,oddball,2022.1.2,59.98818222414917,
20,,,,,0,0,0,3,0,0,0,0,4,0,4,0,,,,,,,,,,,,,,,,,99.63742170017213,None,100.37008529994637,100.97034660028294,100.95393800036982,102.95517750037834,None,1,0.6134962802752852,2.614762280136347,increament,0.6,45,standard,None,100,,,,,,,,m,33,224,fr,r,0,raw,2022-06-14_15h42.08.372,oddball,2022.1.2,59.98818222414917,
20,,,,,0,0,0,3,0,0,0,0,5,0,5,0,,,,,,,,,,,,,,,,,102.97113510034978,None,103.70469949999824,104.43810830032453,104.40523470006883,106.40594390034676,j,1,0.729728679638356,2.7304587797261775,increament,0.72,46,oddball,j,120,0.3685878999531269,,,,,,,m,33,224,fr,r,0,raw,2022-06-14_15h42.08.372,oddball,2022.1.2,59.98818222414917,
20,,,,,0,0,0,3,0,0,0,0,6,0,6,0,,,,,,,,,,,,,,,,,106.42264140024781,None,107.25599070033059,107.85613210033625,107.8400464002043,109.84086580015719,None,1,0.6133653800934553,2.614263080060482,increament,0.6,45,standard,None,100,,,,,,,,m,33,224,fr,r,0,raw,2022-06-14_15h42.08.372,oddball,2022.1.2,59.98818222414917,
20,,,,,0,0,0,3,0,0,0,0,7,0,7,0,,,,,,,,,,,,,,,,,109.85703140031546,None,110.74099560035393,111.341040099971,111.32420240016654,113.32529610022902,None,1,0.6101476801559329,2.6113376803696156,increament,0.6,45,standard,None,100,,,,,,,,m,33,224,fr,r,0,raw,2022-06-14_15h42.08.372,oddball,2022.1.2,59.98818222414917,
20,,,,,0,0,0,3,0,0,0,0,8,0,8,0,,,,,,,,,,,,,,,,,113.34225320024416,None,114.07535509997979,114.67551810014993,114.65885640028864,116.65997430030257,None,1,0.6128721800632775,2.614066280424595,increament,0.6,45,standard,None,100,,,,,,,,m,33,224,fr,r,0,raw,2022-06-14_15h42.08.372,oddball,2022.1.2,59.98818222414917,
20,,,,,0,0,0,3,0,0,0,0,9,0,9,0,,,,,,,,,,,,,,,,,116.67750960029662,None,117.359911700245,117.96044349996373,117.94385230029002,119.94410439999774,None,1,0.6131361802108586,2.61331038037315,increament,0.6,45,standard,None,100,,,,,,,,m,33,224,fr,r,0,raw,2022-06-14_15h42.08.372,oddball,2022.1.2,59.98818222414917,
20,,,,,0,0,0,3,0,0,0,0,10,0,10,0,,,,,,,,,,,,,,,,,119.96092710038647,None,120.79471549997106,121.39489690028131,121.3783408999443,123.37910180026665,None,1,0.6108685797080398,2.6116981799714267,increament,0.6,45,standard,None,100,,,,,,,,m,33,224,fr,r,0,raw,2022-06-14_15h42.08.372,oddball,2022.1.2,59.98818222414917,
20,,,,,0,0,0,3,0,0,0,0,11,0,11,0,,,,,,,,,,,,,,,,,123.3957660002634,None,124.07932460028678,124.92960090003908,124.89618090027943,126.89675060007721,j,1,0.8458498800173402,2.846391180064529,increament,0.84,47,oddball,j,140,0.46975909965112805,,,,,,,m,33,224,fr,r,0,raw,2022-06-14_15h42.08.372,oddball,2022.1.2,59.98818222414917,
20,,,,,0,0,0,3,0,0,0,0,12,0,12,0,,,,,,,,,,,,,,,,,126.91360760014504,None,127.56391440005973,128.16374160023406,128.1472955001518,130.1482052002102,None,1,0.6124398801475763,2.613426980562508,increament,0.6,45,standard,None,100,,,,,,,,m,33,224,fr,r,0,raw,2022-06-14_15h42.08.372,oddball,2022.1.2,59.98818222414917,
20,,,,,0,0,0,3,0,0,0,0,13,0,13,0,,,,,,,,,,,,,,,,,130.16467850003392,None,130.81512410007417,131.4148817001842,131.39833840029314,133.3994243000634,None,1,0.6105580795556307,2.6116626798175275,increament,0.6,45,standard,None,100,,,,,,,,m,33,224,fr,r,0,raw,2022-06-14_15h42.08.372,oddball,2022.1.2,59.98818222414917,
20,,,,,0,0,0,3,0,0,0,0,14,0,14,0,,,,,,,,,,,,,,,,,133.41620410000905,None,134.01689149998128,134.61664930032566,134.60016140015796,136.60081810038537,None,1,0.6089041796512902,2.60955577949062,increament,0.6,45,standard,None,100,,,,,,,,m,33,224,fr,r,0,raw,2022-06-14_15h42.08.372,oddball,2022.1.2,59.98818222414917,
20,,,,,0,0,0,3,0,0,0,0,15,0,15,0,,,,,,,,,,,,,,,,,136.6183224003762,None,137.30072480021045,137.90145760029554,137.8847966999747,139.88527870038524,None,1,0.6136560798622668,2.6141658797860146,increament,0.6,45,standard,None,100,,,,,,,,m,33,224,fr,r,0,raw,2022-06-14_15h42.08.372,oddball,2022.1.2,59.98818222414917,
20,,,,,0,0,0,3,0,0,0,0,16,0,16,0,,,,,,,,,,,,,,,,,139.90188440028578,None,140.5024629002437,141.10208779992536,141.08566990029067,143.08652679994702,None,1,0.612302880268544,2.6131819803267717,increament,0.6,45,standard,None,100,,,,,,,,m,33,224,fr,r,0,raw,2022-06-14_15h42.08.372,oddball,2022.1.2,59.98818222414917,
20,,,,,0,0,0,3,0,0,0,0,17,0,17,0,,,,,,,,,,,,,,,,,143.10302430018783,None,143.67029529996216,144.2701913001947,144.25355260027573,146.25419150013477,None,1,0.611224879976362,2.6118661798536777,increament,0.6,45,standard,None,100,,,,,,,,m,33,224,fr,r,0,raw,2022-06-14_15h42.08.372,oddball,2022.1.2,59.98818222414917,
20,,,,,0,0,0,3,0,0,0,0,18,0,18,0,,,,,,,,,,,,,,,,,146.2710249000229,None,146.9713182002306,147.57141410000622,147.55478280037642,149.5558195002377,None,1,0.6090952805243433,2.6102341804653406,increament,0.6,45,standard,None,100,,,,,,,,m,33,224,fr,r,0,raw,2022-06-14_15h42.08.372,oddball,2022.1.2,59.98818222414917,
20,,,,,0,0,0,3,0,0,0,0,19,0,19,0,,,,,,,,,,,,,,,,,149.57350370008498,None,150.20573309995234,150.80622170027345,150.78949790028855,152.79044530028477,None,1,0.6097581801004708,2.610686380416155,increament,0.6,45,standard,None,100,,,,,,,,m,33,224,fr,r,0,raw,2022-06-14_15h42.08.372,oddball,2022.1.2,59.98818222414917,
20,,,,,0,0,0,3,0,0,0,0,20,0,20,0,,,,,,,,,,,,,,,,,152.8079312001355,None,153.5071000000462,154.10717610036954,154.0912766000256,156.09168690023944,None,1,0.6119119804352522,2.6122934804297984,increament,0.6,45,standard,None,100,,,,,,,,m,33,224,fr,r,0,raw,2022-06-14_15h42.08.372,oddball,2022.1.2,59.98818222414917,
20,,,,,0,0,0,3,0,0,0,0,21,0,21,0,,,,,,,,,,,,,,,,,156.10790579998866,None,156.72485390026122,157.32507150014862,157.30918490001932,159.30921229999512,None,1,0.6142408796586096,2.6142086796462536,increament,0.6,45,standard,None,100,,,,,,,,m,33,224,fr,r,0,raw,2022-06-14_15h42.08.372,oddball,2022.1.2,59.98818222414917,
20,,,,,0,0,0,3,0,0,0,0,22,0,22,0,,,,,,,,,,,,,,,,,159.32581060007215,None,159.9263146999292,160.52642080001533,160.5095711001195,162.510522400029,None,1,0.6106136799789965,2.611572579946369,increament,0.6,45,standard,None,100,,,,,,,,m,33,224,fr,r,0,raw,2022-06-14_15h42.08.372,oddball,2022.1.2,59.98818222414917,
20,,,,,0,0,0,3,0,0,0,0,23,0,23,0,,,,,,,,,,,,,,,,,162.52691700030118,None,163.31071140011773,163.91109509998932,163.8944382001646,165.89487399999052,None,1,0.6131162797100842,2.6135246800258756,increament,0.6,45,standard,None,100,,,,,,,,m,33,224,fr,r,0,raw,2022-06-14_15h42.08.372,oddball,2022.1.2,59.98818222414917,
20,,,,,0,0,0,3,0,0,0,0,24,0,24,0,,,,,,,,,,,,,,,,,165.91189680015668,None,166.64531780034304,167.24587660003453,167.22896909993142,169.22974430024624,None,1,0.609182280022651,2.6099660797044635,increament,0.6,45,standard,None,100,,,,,,,,m,33,224,fr,r,0,raw,2022-06-14_15h42.08.372,oddball,2022.1.2,59.98818222414917,
20,,,,,0,0,0,3,0,0,0,0,25,0,25,0,,,,,,,,,,,,,,,,,169.24639090010896,None,169.81333289993927,170.4132823003456,170.39663910027593,172.39791960036382,None,1,0.6107657798565924,2.6121226800605655,increament,0.6,45,standard,None,100,,,,,,,,m,33,224,fr,r,0,raw,2022-06-14_15h42.08.372,oddball,2022.1.2,59.98818222414917,
20,,,,,0,0,0,3,0,0,0,0,26,0,26,0,,,,,,,,,,,,,,,,,172.41411090036854,None,173.06453890027478,174.03146720025688,173.99798500025645,175.9990775003098,j,1,0.9591033803299069,2.9602817799896,increament,0.96,48,oddball,j,160,0.34414019947871566,,,,,,,m,33,224,fr,r,0,raw,2022-06-14_15h42.08.372,oddball,2022.1.2,59.98818222414917,
20,,,,,0,0,0,3,0,0,0,0,27,0,27,0,,,,,,,,,,,,,,,,,176.0153759000823,None,176.58246190007776,177.18284980021417,177.1659880001098,179.16690680012107,None,1,0.6136055798269808,2.61451697954908,increament,0.6,45,standard,None,100,,,,,,,,m,33,224,fr,r,0,raw,2022-06-14_15h42.08.372,oddball,2022.1.2,59.98818222414917,
20,,,,,0,0,0,3,0,0,0,0,28,0,28,0,,,,,,,,,,,,,,,,,179.18338720034808,None,179.85048900032416,180.45068430015817,180.43426300026476,182.43453960027546,None,1,0.6109541794285178,2.6111575798131526,increament,0.6,45,standard,None,100,,,,,,,,m,33,224,fr,r,0,raw,2022-06-14_15h42.08.372,oddball,2022.1.2,59.98818222414917,
20,,,,,0,0,0,3,0,0,0,0,29,0,29,0,,,,,,,,,,,,,,,,,182.4514692001976,None,183.1187762999907,183.71888309996575,183.70180930010974,185.70250100037083,None,1,0.6097021796740592,2.6103656799532473,increament,0.6,45,standard,None,100,,,,,,,,m,33,224,fr,r,0,raw,2022-06-14_15h42.08.372,oddball,2022.1.2,59.98818222414917,
20,,,,,0,0,0,3,1,0,1,0,0,0,0,0,,,,,,,,,,,,,,,191.66657930007204,None,194.90651130024344,None,195.58999680029228,196.1900009000674,196.1730789002031,198.17416130006313,None,1,0.6095485799014568,2.610631179995835,decreament,0.6,41,standard,None,100,,185.71957410033792,None,,,,,m,33,224,fr,r,0,raw,2022-06-14_15h42.08.372,oddball,2022.1.2,59.98818222414917,
20,,,,,0,0,0,3,1,0,1,0,1,0,1,0,,,,,,,,,,,,,,,,,198.19149800017476,None,198.8240766003728,199.4244246003218,199.40788870025426,201.40852980036288,None,1,0.6121729803271592,2.6128380801528692,decreament,0.6,41,standard,None,100,,,,,,,,m,33,224,fr,r,0,raw,2022-06-14_15h42.08.372,oddball,2022.1.2,59.98818222414917,
20,,,,,0,0,0,3,1,0,1,0,2,0,2,0,,,,,,,,,,,,,,,,,201.42517310008407,None,202.10890820017084,202.70902790036052,202.69230140000582,204.69304569996893,None,1,0.6131003797054291,2.6138611799106,decreament,0.6,41,standard,None,100,,,,,,,,m,33,224,fr,r,0,raw,2022-06-14_15h42.08.372,oddball,2022.1.2,59.98818222414917,
20,,,,,0,0,0,3,1,0,1,0,3,0,3,0,,,,,,,,,,,,,,,,,204.70972390007228,None,205.49331550020725,206.09357040002942,206.076910499949,208.0776327000931,None,1,0.6136963800527155,2.6144305798225105,decreament,0.6,41,standard,None,100,,,,,,,,m,33,224,fr,r,0,raw,2022-06-14_15h42.08.372,oddball,2022.1.2,59.98818222414917,
20,,,,,0,0,0,3,1,0,1,0,4,0,4,0,,,,,,,,,,,,,,,,,208.09441300015897,None,208.79431870020926,209.39471690030769,209.37882760027424,211.37871100008488,None,1,0.6150261801667511,2.614832980092615,decreament,0.6,41,standard,None,100,,,,,,,,m,33,224,fr,r,0,raw,2022-06-14_15h42.08.372,oddball,2022.1.2,59.98818222414917,
20,,,,,0,0,0,3,1,0,1,0,5,0,5,0,,,,,,,,,,,,,,,,,211.39576530037448,None,211.97875220002607,212.57918340014294,212.56268630037084,214.56359100015834,None,1,0.6142215793952346,2.615165179595351,decreament,0.6,41,standard,None,100,,,,,,,,m,33,224,fr,r,0,raw,2022-06-14_15h42.08.372,oddball,2022.1.2,59.98818222414917,
20,,,,,0,0,0,3,1,0,1,0,6,0,6,0,,,,,,,,,,,,,,,,,214.58007570030168,None,215.3140755002387,215.56392859993502,215.53095109993592,217.53130660019815,j,1,0.24400698021054268,2.2443317798897624,decreament,0.24,42,oddball,j,40,0.7150988997891545,,,,,,,m,33,224,fr,r,0,raw,2022-06-14_15h42.08.372,oddball,2022.1.2,59.98818222414917,
20,,,,,0,0,0,3,1,0,1,0,7,0,7,0,,,,,,,,,,,,,,,,,217.5480226003565,None,218.09791390039027,218.698290000204,218.68190730037168,220.6827688999474,None,1,0.6133353798650205,2.614238480105996,decreament,0.6,41,standard,None,100,,,,,,,,m,33,224,fr,r,0,raw,2022-06-14_15h42.08.372,oddball,2022.1.2,59.98818222414917,
20,,,,,0,0,0,3,1,0,1,0,8,0,8,0,,,,,,,,,,,,,,,,,220.6991122001782,None,221.39953810023144,221.99952800013125,221.98321990016848,223.98417580034584,None,1,0.6098908800631762,2.6108401804231107,decreament,0.6,41,standard,None,100,,,,,,,,m,33,224,fr,r,0,raw,2022-06-14_15h42.08.372,oddball,2022.1.2,59.98818222414917,
20,,,,,0,0,0,3,1,0,1,0,9,0,9,0,,,,,,,,,,,,,,,,,224.00029919994995,None,224.68415130022913,225.28407069994137,225.26729990029708,227.26805630000308,None,1,0.6116580800153315,2.612427279818803,decreament,0.6,41,standard,None,100,,,,,,,,m,33,224,fr,r,0,raw,2022-06-14_15h42.08.372,oddball,2022.1.2,59.98818222414917,
20,,,,,0,0,0,3,1,0,1,0,10,0,10,0,,,,,,,,,,,,,,,,,227.2850883002393,None,227.95241650007665,228.5525425001979,228.5358067001216,230.53662410005927,None,1,0.6095012798905373,2.6103127798996866,decreament,0.6,41,standard,None,100,,,,,,,,m,33,224,fr,r,0,raw,2022-06-14_15h42.08.372,oddball,2022.1.2,59.98818222414917,
20,,,,,0,0,0,3,1,0,1,0,11,0,11,0,,,,,,,,,,,,,,,,,230.55266469996423,None,231.28660220000893,231.88682760018855,231.87011110037565,233.87099660001695,None,1,0.6124796797521412,2.6133625800721347,decreament,0.6,41,standard,None,100,,,,,,,,m,33,224,fr,r,0,raw,2022-06-14_15h42.08.372,oddball,2022.1.2,59.98818222414917,
20,,,,,0,0,0,3,1,0,1,0,12,0,12,0,,,,,,,,,,,,,,,,,233.88762370031327,None,234.4543333002366,235.0545139000751,235.03777550021186,237.03887540008873,None,1,0.6130670802667737,2.6142426803708076,decreament,0.6,41,standard,None,100,,,,,,,,m,33,224,fr,r,0,raw,2022-06-14_15h42.08.372,oddball,2022.1.2,59.98818222414917,
20,,,,,0,0,0,3,1,0,1,0,13,0,13,0,,,,,,,,,,,,,,,,,237.05542540038005,None,237.67246690019965,238.27247550012544,238.25600669998676,240.25654030032456,None,1,0.6116831796243787,2.6121839797124267,decreament,0.6,41,standard,None,100,,,,,,,,m,33,224,fr,r,0,raw,2022-06-14_15h42.08.372,oddball,2022.1.2,59.98818222414917,
20,,,,,0,0,0,3,1,0,1,0,14,0,14,0,,,,,,,,,,,,,,,,,240.27311960002407,None,241.17367230029777,241.77407190017402,241.7571094003506,243.75789890019223,None,1,0.610579879488796,2.6113574798218906,decreament,0.6,41,standard,None,100,,,,,,,,m,33,224,fr,r,0,raw,2022-06-14_15h42.08.372,oddball,2022.1.2,59.98818222414917,
20,,,,,0,0,0,3,1,0,1,0,15,0,15,0,,,,,,,,,,,,,,,,,243.7746957000345,None,244.49161759996787,245.09167510038242,245.0752162002027,247.0759288999252,None,1,0.6095021800138056,2.610151680186391,decreament,0.6,41,standard,None,100,,,,,,,,m,33,224,fr,r,0,raw,2022-06-14_15h42.08.372,oddball,2022.1.2,59.98818222414917,
20,,,,,0,0,0,3,1,0,1,0,16,0,16,0,,,,,,,,,,,,,,,,,247.0925912000239,None,247.65976270008832,248.0260590002872,247.99270529998466,249.99352090014145,j,1,0.3600354800000787,2.360899180173874,decreament,0.36,43,oddball,j,60,0.8458666000515223,,,,,,,m,33,224,fr,r,0,raw,2022-06-14_15h42.08.372,oddball,2022.1.2,59.98818222414917,
20,,,,,0,0,0,3,1,0,1,0,17,0,17,0,,,,,,,,,,,,,,,,,250.01019890001044,None,250.69364680023864,251.29422980034724,251.2773091001436,253.2780988002196,None,1,0.6133755804039538,2.6141869802959263,decreament,0.6,41,standard,None,100,,,,,,,,m,33,224,fr,r,0,raw,2022-06-14_15h42.08.372,oddball,2022.1.2,59.98818222414917,
20,,,,,0,0,0,3,1,0,1,0,18,0,18,0,,,,,,,,,,,,,,,,,253.2947901999578,None,253.89529020013288,254.4951264001429,254.47855520015582,256.4792774002999,None,1,0.6109790802001953,2.611732680350542,decreament,0.6,41,standard,None,100,,,,,,,,m,33,224,fr,r,0,raw,2022-06-14_15h42.08.372,oddball,2022.1.2,59.98818222414917,
20,,,,,0,0,0,3,1,0,1,0,19,0,19,0,,,,,,,,,,,,,,,,,256.4964447999373,None,257.229711800348,257.83000630000606,257.81348180025816,259.81387950014323,None,1,0.6134679801762104,2.6138427797704935,decreament,0.6,41,standard,None,100,,,,,,,,m,33,224,fr,r,0,raw,2022-06-14_15h42.08.372,oddball,2022.1.2,59.98818222414917,
20,,,,,0,0,0,3,1,0,1,0,20,0,20,0,,,,,,,,,,,,,,,,,259.83058169996366,None,260.5642858003266,261.04812450008467,261.0313633000478,263.0318889003247,None,0,0.49538138043135405,2.49584198044613,decreament,0.48,44,oddball,j,80,,,,,,,,m,33,224,fr,r,0,raw,2022-06-14_15h42.08.372,oddball,2022.1.2,59.98818222414917,
20,,,,,0,0,0,3,1,0,1,0,21,0,21,0,,,,,,,,,,,,,,,,,263.04845230001956,None,263.73214500024915,264.33247100003064,264.3157860003412,266.3162539000623,None,1,0.611322479788214,2.6117354799062014,decreament,0.6,41,standard,None,100,,,,,,,,m,33,224,fr,r,0,raw,2022-06-14_15h42.08.372,oddball,2022.1.2,59.98818222414917,
20,,,,,0,0,0,3,1,0,1,0,22,0,22,0,,,,,,,,,,,,,,,,,266.3330976003781,None,266.98380080005154,267.58353700023144,267.56673530023545,269.5676816003397,None,1,0.6089694797992706,2.6099720797501504,decreament,0.6,41,standard,None,100,,,,,,,,m,33,224,fr,r,0,raw,2022-06-14_15h42.08.372,oddball,2022.1.2,59.98818222414917,
20,,,,,0,0,0,3,1,0,1,0,23,0,23,0,,,,,,,,,,,,,,,,,269.58458320004866,None,270.1676823999733,270.76807630015537,270.7514598001726,272.7520150002092,None,1,0.6133445799350739,2.6138325799256563,decreament,0.6,41,standard,None,100,,,,,,,,m,33,224,fr,r,0,raw,2022-06-14_15h42.08.372,oddball,2022.1.2,59.98818222414917,
20,,,,,0,0,0,3,1,0,1,0,24,0,24,0,,,,,,,,,,,,,,,,,272.7687826002948,None,273.4359011002816,274.0359521000646,274.0193314999342,276.01986999996006,None,1,0.6091403802856803,2.609641880262643,decreament,0.6,41,standard,None,100,,,,,,,,m,33,224,fr,r,0,raw,2022-06-14_15h42.08.372,oddball,2022.1.2,59.98818222414917,
20,,,,,0,0,0,3,1,0,1,0,25,0,25,0,,,,,,,,,,,,,,,,,276.03676210017875,None,276.6369724003598,277.2371996003203,277.2208690000698,279.2216450003907,None,1,0.61215237993747,2.612974979914725,decreament,0.6,41,standard,None,100,,,,,,,,m,33,224,fr,r,0,raw,2022-06-14_15h42.08.372,oddball,2022.1.2,59.98818222414917,
20,,,,,0,0,0,3,1,0,1,0,26,0,26,0,,,,,,,,,,,,,,,,,279.23913010023534,None,279.9214397002943,280.521728400141,280.5052575999871,282.50612660031766,None,1,0.6130949794314802,2.6139988796785474,decreament,0.6,41,standard,None,100,,,,,,,,m,33,224,fr,r,0,raw,2022-06-14_15h42.08.372,oddball,2022.1.2,59.98818222414917,
20,,,,,0,0,0,3,1,0,1,0,27,0,27,0,,,,,,,,,,,,,,,,,282.52257850021124,None,283.0727071003057,283.67303270008415,283.6563981003128,285.6572120003402,None,1,0.6125019798055291,2.6133911800570786,decreament,0.6,41,standard,None,100,,,,,,,,m,33,224,fr,r,0,raw,2022-06-14_15h42.08.372,oddball,2022.1.2,59.98818222414917,
20,,,,,0,0,0,3,1,0,1,0,28,0,28,0,,,,,,,,,,,,,,,,,285.67359390016645,None,286.49072870006785,287.0909041999839,287.074477000162,289.0745976003818,None,1,0.6126002795062959,2.612638079561293,decreament,0.6,41,standard,None,100,,,,,,,,m,33,224,fr,r,0,raw,2022-06-14_15h42.08.372,oddball,2022.1.2,59.98818222414917,
20,,,,,0,0,0,3,1,0,1,0,29,0,29,0,,,,,,,,,,,,,,,,,289.09132060036063,None,289.8086443999782,290.40917440038174,290.3921570000239,292.3933588000946,None,1,0.6131407800130546,2.6143947802484035,decreament,0.6,41,standard,None,100,,,,,,,,m,33,224,fr,r,0,raw,2022-06-14_15h42.08.372,oddball,2022.1.2,59.98818222414917,
20,,,,,0,0,0,3,2,0,2,0,0,0,0,0,,,,,,,,,,,,,,,299.2147830002941,None,302.6802715002559,None,303.21401929995045,303.81401430023834,303.7973398002796,305.7982388003729,None,1,0.6084234798327088,2.6093673799186945,increament,0.6,45,standard,None,100,,292.4097600001842,None,,,,,m,33,224,fr,r,0,raw,2022-06-14_15h42.08.372,oddball,2022.1.2,59.98818222414917,
20,,,,,0,0,0,3,2,0,2,0,1,0,1,0,,,,,,,,,,,,,,,,,305.8168633002788,None,306.39842440001667,306.99856760026887,306.9820832000114,308.9826036002487,None,1,0.6111814803443849,2.6116830804385245,increament,0.6,45,standard,None,100,,,,,,,,m,33,224,fr,r,0,raw,2022-06-14_15h42.08.372,oddball,2022.1.2,59.98818222414917,
20,,,,,0,0,0,3,2,0,2,0,2,0,2,0,,,,,,,,,,,,,,,,,308.99914590036497,None,309.7329311002977,310.33336160006,310.316894300282,312.31704150000587,None,1,0.6135821798816323,2.6133386800065637,increament,0.6,45,standard,None,100,,,,,,,,m,33,224,fr,r,0,raw,2022-06-14_15h42.08.372,oddball,2022.1.2,59.98818222414917,
20,,,,,0,0,0,3,2,0,2,0,3,0,3,0,,,,,,,,,,,,,,,,,312.33374310005456,None,312.8841515001841,313.4843699000776,313.4681918001734,315.4687884002924,None,1,0.6135193798691034,2.6141077801585197,increament,0.6,45,standard,None,100,,,,,,,,m,33,224,fr,r,0,raw,2022-06-14_15h42.08.372,oddball,2022.1.2,59.98818222414917,
20,,,,,0,0,0,3,2,0,2,0,4,0,4,0,,,,,,,,,,,,,,,,,315.48529550014064,None,316.01852350030094,316.61864020023495,316.6020917999558,318.602890400216,None,1,0.6119406796060503,2.6127541796304286,increament,0.6,45,standard,None,100,,,,,,,,m,33,224,fr,r,0,raw,2022-06-14_15h42.08.372,oddball,2022.1.2,59.98818222414917,
20,,,,,0,0,0,3,2,0,2,0,5,0,5,0,,,,,,,,,,,,,,,,,318.61960260011256,None,319.18678320012987,320.03666790015996,320.0034930999391,322.0042364001274,j,1,0.8430522796697915,2.843786579556763,increament,0.84,47,oddball,j,140,0.7773082996718585,,,,,,,m,33,224,fr,r,0,raw,2022-06-14_15h42.08.372,oddball,2022.1.2,59.98818222414917,
20,,,,,0,0,0,3,2,0,2,0,6,0,6,0,,,,,,,,,,,,,,,,,322.02100130030885,None,322.75468170037493,323.3548616003245,323.33822280028835,325.33880420029163,None,1,0.6090769800357521,2.6096908799372613,increament,0.6,45,standard,None,100,,,,,,,,m,33,224,fr,r,0,raw,2022-06-14_15h42.08.372,oddball,2022.1.2,59.98818222414917,
20,,,,,0,0,0,3,2,0,2,0,7,0,7,0,,,,,,,,,,,,,,,,,325.3555081002414,None,326.02247700002044,326.62290660012513,326.6062133000232,328.6065877000801,None,1,0.6091183796525002,2.609427279792726,increament,0.6,45,standard,None,100,,,,,,,,m,33,224,fr,r,0,raw,2022-06-14_15h42.08.372,oddball,2022.1.2,59.98818222414917,
20,,,,,0,0,0,3,2,0,2,0,8,0,8,0,,,,,,,,,,,,,,,,,328.6235659001395,None,329.1734742000699,329.77362240012735,329.7575543001294,331.7577391001396,None,1,0.6139507796615362,2.6140425796620548,increament,0.6,45,standard,None,100,,,,,,,,m,33,224,fr,r,0,raw,2022-06-14_15h42.08.372,oddball,2022.1.2,59.98818222414917,
20,,,,,0,0,0,3,2,0,2,0,9,0,9,0,,,,,,,,,,,,,,,,,331.77432880038396,None,332.324719700031,332.9252734002657,332.9083883003332,334.90903200022876,None,1,0.6135196797549725,2.614124579820782,increament,0.6,45,standard,None,100,,,,,,,,m,33,224,fr,r,0,raw,2022-06-14_15h42.08.372,oddball,2022.1.2,59.98818222414917,
20,,,,,0,0,0,3,2,0,2,0,10,0,10,0,,,,,,,,,,,,,,,,,334.9260337003507,None,335.5595333003439,336.160002599936,336.1433986001648,338.14346860023215,None,1,0.613524179905653,2.6135024800896645,increament,0.6,45,standard,None,100,,,,,,,,m,33,224,fr,r,0,raw,2022-06-14_15h42.08.372,oddball,2022.1.2,59.98818222414917,
20,,,,,0,0,0,3,2,0,2,0,11,0,11,0,,,,,,,,,,,,,,,,,338.16017300030217,None,338.7445154003799,339.7108462001197,339.6774809001945,341.6783277001232,j,1,0.9756037802435458,2.976243980228901,increament,0.96,48,oddball,j,160,0.5994222997687757,,,,,,,m,33,224,fr,r,0,raw,2022-06-14_15h42.08.372,oddball,2022.1.2,59.98818222414917,
20,,,,,0,0,0,3,2,0,2,0,12,0,12,0,,,,,,,,,,,,,,,,,341.7114631999284,None,342.44504060037434,343.0455729002133,343.0292367003858,345.0295069999993,None,1,0.6137568801641464,2.6139663802459836,increament,0.6,45,standard,None,100,,,,,,,,m,33,224,fr,r,0,raw,2022-06-14_15h42.08.372,oddball,2022.1.2,59.98818222414917,
20,,,,,0,0,0,3,2,0,2,0,13,0,13,0,,,,,,,,,,,,,,,,,345.0463767000474,None,345.57963980035856,346.1799068003893,346.16306250030175,348.16405460005626,None,1,0.6103160800412297,2.611326079815626,increament,0.6,45,standard,None,100,,,,,,,,m,33,224,fr,r,0,raw,2022-06-14_15h42.08.372,oddball,2022.1.2,59.98818222414917,
20,,,,,0,0,0,3,2,0,2,0,14,0,14,0,,,,,,,,,,,,,,,,,348.1806348999962,None,348.8309490000829,349.4312243000604,349.41483160015196,351.4152701003477,None,1,0.6136739798821509,2.6140436800196767,increament,0.6,45,standard,None,100,,,,,,,,m,33,224,fr,r,0,raw,2022-06-14_15h42.08.372,oddball,2022.1.2,59.98818222414917,
20,,,,,0,0,0,3,2,0,2,0,15,0,15,0,,,,,,,,,,,,,,,,,351.4318715003319,None,352.01603830000386,352.615574600175,352.5989495003596,354.5998928002082,None,1,0.6093800798989832,2.610344779677689,increament,0.6,45,standard,None,100,,,,,,,,m,33,224,fr,r,0,raw,2022-06-14_15h42.08.372,oddball,2022.1.2,59.98818222414917,
20,,,,,0,0,0,3,2,0,2,0,16,0,16,0,,,,,,,,,,,,,,,,,354.6162991002202,None,355.30001530004665,355.9007499003783,355.88394050020725,357.8842730000615,None,1,0.6130395797081292,2.6132981800474226,increament,0.6,45,standard,None,100,,,,,,,,m,33,224,fr,r,0,raw,2022-06-14_15h42.08.372,oddball,2022.1.2,59.98818222414917,
20,,,,,0,0,0,3,2,0,2,0,17,0,17,0,,,,,,,,,,,,,,,,,357.9011822999455,None,358.65148720005527,359.38487760024145,359.35193799994886,361.3527574003674,None,0,0.7297674799337983,2.730614979751408,increament,0.72,46,oddball,j,120,,,,,,,,m,33,224,fr,r,0,raw,2022-06-14_15h42.08.372,oddball,2022.1.2,59.98818222414917,
20,,,,,0,0,0,3,2,0,2,0,18,0,18,0,,,,,,,,,,,,,,,,,361.36893100012094,None,362.0692996000871,362.66924830013886,362.65268180007115,364.6534140002914,None,1,0.6137064802460372,2.614434080198407,increament,0.6,45,standard,None,100,,,,,,,,m,33,224,fr,r,0,raw,2022-06-14_15h42.08.372,oddball,2022.1.2,59.98818222414917,
20,,,,,0,0,0,3,2,0,2,0,19,0,19,0,,,,,,,,,,,,,,,,,364.6702852002345,None,365.3040855000727,365.90429350035265,365.88784720003605,367.8881987002678,None,1,0.6128910793922842,2.6131815793924034,increament,0.6,45,standard,None,100,,,,,,,,m,33,224,fr,r,0,raw,2022-06-14_15h42.08.372,oddball,2022.1.2,59.98818222414917,
20,,,,,0,0,0,3,2,0,2,0,20,0,20,0,,,,,,,,,,,,,,,,,367.9047930003144,None,368.52152260020375,369.1223588003777,369.105620900169,371.1060748002492,None,1,0.6145701799541712,2.614976080134511,increament,0.6,45,standard,None,100,,,,,,,,m,33,224,fr,r,0,raw,2022-06-14_15h42.08.372,oddball,2022.1.2,59.98818222414917,
20,,,,,0,0,0,3,2,0,2,0,21,0,21,0,,,,,,,,,,,,,,,,,371.12289700005203,None,371.6900873002596,372.2898945999332,372.27309600031003,374.2740706000477,None,1,0.6112808799371123,2.6123019796796143,increament,0.6,45,standard,None,100,,,,,,,,m,33,224,fr,r,0,raw,2022-06-14_15h42.08.372,oddball,2022.1.2,59.98818222414917,
20,,,,,0,0,0,3,2,0,2,0,22,0,22,0,,,,,,,,,,,,,,,,,374.2904501003213,None,374.89101430028677,375.49107949994504,375.4748423001729,377.4753307001665,None,1,0.6132995802909136,2.613757780287415,increament,0.6,45,standard,None,100,,,,,,,,m,33,224,fr,r,0,raw,2022-06-14_15h42.08.372,oddball,2022.1.2,59.98818222414917,
20,,,,,0,0,0,3,2,0,2,0,23,0,23,0,,,,,,,,,,,,,,,,,377.4927153000608,None,378.09208580013365,378.6920658000745,378.6754199001007,380.6761782001704,None,1,0.6143177794292569,2.6150949797593057,increament,0.6,45,standard,None,100,,,,,,,,m,33,224,fr,r,0,raw,2022-06-14_15h42.08.372,oddball,2022.1.2,59.98818222414917,
20,,,,,0,0,0,3,2,0,2,0,24,0,24,0,,,,,,,,,,,,,,,,,380.6932940003462,None,381.3432612000033,381.9433268001303,381.9268595003523,383.9273148002103,None,1,0.6122805797494948,2.6126877800561488,increament,0.6,45,standard,None,100,,,,,,,,m,33,224,fr,r,0,raw,2022-06-14_15h42.08.372,oddball,2022.1.2,59.98818222414917,
20,,,,,0,0,0,3,2,0,2,0,25,0,25,0,,,,,,,,,,,,,,,,,383.9441802003421,None,384.6777655002661,385.2783041000366,385.26177510013804,387.2622816003859,None,1,0.6135075795464218,2.614030179567635,increament,0.6,45,standard,None,100,,,,,,,,m,33,224,fr,r,0,raw,2022-06-14_15h42.08.372,oddball,2022.1.2,59.98818222414917,
20,,,,,0,0,0,3,2,0,2,0,26,0,26,0,,,,,,,,,,,,,,,,,387.2789639001712,None,387.79625040013343,388.3961921003647,388.3791510001756,390.3798674000427,None,1,0.611214280128479,2.6119339801371098,increament,0.6,45,standard,None,100,,,,,,,,m,33,224,fr,r,0,raw,2022-06-14_15h42.08.372,oddball,2022.1.2,59.98818222414917,
20,,,,,0,0,0,3,2,0,2,0,27,0,27,0,,,,,,,,,,,,,,,,,390.3965206001885,None,391.13039440009743,391.7304793000221,391.71380410017446,393.71469849999994,None,1,0.6120678796432912,2.6130394795909524,increament,0.6,45,standard,None,100,,,,,,,,m,33,224,fr,r,0,raw,2022-06-14_15h42.08.372,oddball,2022.1.2,59.98818222414917,
20,,,,,0,0,0,3,2,0,2,0,28,0,28,0,,,,,,,,,,,,,,,,,393.7314447001554,None,394.39823180017993,394.9986844002269,394.9820409002714,396.9824139000848,None,1,0.6126852794550359,2.613012079615146,increament,0.6,45,standard,None,100,,,,,,,,m,33,224,fr,r,0,raw,2022-06-14_15h42.08.372,oddball,2022.1.2,59.98818222414917,
20,,,,,0,0,0,3,2,0,2,0,29,0,29,0,,,,,,,,,,,,,,,,,396.9993662000634,None,397.6828483999707,398.282784699928,398.26625570002943,400.2671850002371,None,1,0.6116394796408713,2.612644880078733,increament,0.6,45,standard,None,100,,,,,,,,m,33,224,fr,r,0,raw,2022-06-14_15h42.08.372,oddball,2022.1.2,59.98818222414917,
20,,,,,0,0,0,3,3,0,3,0,0,0,0,0,,,,,,,,,,,,,,,403.9684549001977,None,406.2856756001711,None,406.9196751001291,407.51972610037774,407.50313720013946,409.504096200224,None,1,0.6112463800236583,2.612227479927242,decreament,0.6,41,standard,None,100,,400.2839056001976,None,,,,,m,33,224,fr,r,0,raw,2022-06-14_15h42.08.372,oddball,2022.1.2,59.98818222414917,
20,,,,,0,0,0,3,3,0,3,0,1,0,1,0,,,,,,,,,,,,,,,,,409.5206800000742,None,410.204136100132,410.8044672999531,410.7877611001022,412.78850080026314,None,1,0.6133291800506413,2.61405847966671,decreament,0.6,41,standard,None,100,,,,,,,,m,33,224,fr,r,0,raw,2022-06-14_15h42.08.372,oddball,2022.1.2,59.98818222414917,
20,,,,,0,0,0,3,3,0,3,0,2,0,2,0,,,,,,,,,,,,,,,,,412.8054659003392,None,413.43871770007536,414.03919620020315,414.0225949003361,416.0229801000096,None,1,0.6126970797777176,2.6130201797932386,decreament,0.6,41,standard,None,100,,,,,,,,m,33,224,fr,r,0,raw,2022-06-14_15h42.08.372,oddball,2022.1.2,59.98818222414917,
20,,,,,0,0,0,3,3,0,3,0,3,0,3,0,,,,,,,,,,,,,,,,,416.0398618001491,None,416.57320070033893,417.17338950000703,417.1570597002283,419.1574798999354,None,1,0.6128303799778223,2.6132789803668857,decreament,0.6,41,standard,None,100,,,,,,,,m,33,224,fr,r,0,raw,2022-06-14_15h42.08.372,oddball,2022.1.2,59.98818222414917,
20,,,,,0,0,0,3,3,0,3,0,4,0,4,0,,,,,,,,,,,,,,,,,419.1744061000645,None,419.824533500243,420.42494329996407,420.4085671999492,422.40873480029404,None,1,0.6112898802384734,2.6113808802329004,decreament,0.6,41,standard,None,100,,,,,,,,m,33,224,fr,r,0,raw,2022-06-14_15h42.08.372,oddball,2022.1.2,59.98818222414917,
20,,,,,0,0,0,3,3,0,3,0,5,0,5,0,,,,,,,,,,,,,,,,,422.42553659994155,None,423.05893760034814,423.3091496000998,423.27600090019405,425.2766249999404,j,1,0.2465881798416376,2.2472001798450947,decreament,0.24,42,oddball,j,40,0.7681871000677347,,,,,,,m,33,224,fr,r,0,raw,2022-06-14_15h42.08.372,oddball,2022.1.2,59.98818222414917,
20,,,,,0,0,0,3,3,0,3,0,6,0,6,0,,,,,,,,,,,,,,,,,425.2932686000131,None,425.84356620023027,426.44381570024416,426.4274804000743,428.42766160005704,None,1,0.6132084801793098,2.613355880137533,decreament,0.6,41,standard,None,100,,,,,,,,m,33,224,fr,r,0,raw,2022-06-14_15h42.08.372,oddball,2022.1.2,59.98818222414917,
20,,,,,0,0,0,3,3,0,3,0,7,0,7,0,,,,,,,,,,,,,,,,,428.44442229997367,None,428.994981800206,429.59508410003036,429.5788164003752,431.57889280002564,None,1,0.6102907797321677,2.610273079946637,decreament,0.6,41,standard,None,100,,,,,,,,m,33,224,fr,r,0,raw,2022-06-14_15h42.08.372,oddball,2022.1.2,59.98818222414917,
20,,,,,0,0,0,3,3,0,3,0,8,0,8,0,,,,,,,,,,,,,,,,,431.59532500011846,None,432.2793511999771,432.8794158999808,432.8627564003691,434.86340139992535,None,1,0.6125934799201787,2.6132237799465656,decreament,0.6,41,standard,None,100,,,,,,,,m,33,224,fr,r,0,raw,2022-06-14_15h42.08.372,oddball,2022.1.2,59.98818222414917,
20,,,,,0,0,0,3,3,0,3,0,9,0,9,0,,,,,,,,,,,,,,,,,434.8801003000699,None,435.5476333000697,436.14732789993286,436.1307053002529,438.13154720002785,None,1,0.6095405803062022,2.610413680318743,decreament,0.6,41,standard,None,100,,,,,,,,m,33,224,fr,r,0,raw,2022-06-14_15h42.08.372,oddball,2022.1.2,59.98818222414917,
20,,,,,0,0,0,3,3,0,3,0,10,0,10,0,,,,,,,,,,,,,,,,,438.14808200020343,None,438.7483248002827,439.3485619002022,439.33185980003327,441.332715400029,None,1,0.6124111800454557,2.613297979813069,decreament,0.6,41,standard,None,100,,,,,,,,m,33,224,fr,r,0,raw,2022-06-14_15h42.08.372,oddball,2022.1.2,59.98818222414917,
20,,,,,0,0,0,3,3,0,3,0,11,0,11,0,,,,,,,,,,,,,,,,,441.34946980001405,None,442.23333379998803,442.83334870031103,442.8166480003856,444.81706169992685,None,1,0.61181068001315,2.6122169801965356,decreament,0.6,41,standard,None,100,,,,,,,,m,33,224,fr,r,0,raw,2022-06-14_15h42.08.372,oddball,2022.1.2,59.98818222414917,
20,,,,,0,0,0,3,3,0,3,0,12,0,12,0,,,,,,,,,,,,,,,,,444.83372680004686,None,445.46784130018204,446.0679798000492,446.05118239996955,448.05241810018197,None,1,0.6111281798221171,2.6124521801248193,decreament,0.6,41,standard,None,100,,,,,,,,m,33,224,fr,r,0,raw,2022-06-14_15h42.08.372,oddball,2022.1.2,59.98818222414917,
20,,,,,0,0,0,3,3,0,3,0,13,0,13,0,,,,,,,,,,,,,,,,,448.06855030031875,None,448.6356963003054,449.235609699972,449.21913140034303,451.21957690035924,None,1,0.6117121800780296,2.6121635800227523,decreament,0.6,41,standard,None,100,,,,,,,,m,33,224,fr,r,0,raw,2022-06-14_15h42.08.372,oddball,2022.1.2,59.98818222414917,
20,,,,,0,0,0,3,3,0,3,0,14,0,14,0,,,,,,,,,,,,,,,,,451.2362545002252,None,451.98678279994056,452.58714100020006,452.570303699933,454.57155330013484,None,1,0.6107354797422886,2.6120836795307696,decreament,0.6,41,standard,None,100,,,,,,,,m,33,224,fr,r,0,raw,2022-06-14_15h42.08.372,oddball,2022.1.2,59.98818222414917,
20,,,,,0,0,0,3,3,0,3,0,15,0,15,0,,,,,,,,,,,,,,,,,454.58765200013295,None,455.1879870002158,455.78822119999677,455.7714705001563,457.7721315003,None,1,0.6134074800647795,2.614036380313337,decreament,0.6,41,standard,None,100,,,,,,,,m,33,224,fr,r,0,raw,2022-06-14_15h42.08.372,oddball,2022.1.2,59.98818222414917,
20,,,,,0,0,0,3,3,0,3,0,16,0,16,0,,,,,,,,,,,,,,,,,457.7888140003197,None,458.40587200038135,459.0059759002179,458.9892706000246,460.9902795003727,None,1,0.6116020800545812,2.612641479820013,decreament,0.6,41,standard,None,100,,,,,,,,m,33,224,fr,r,0,raw,2022-06-14_15h42.08.372,oddball,2022.1.2,59.98818222414917,
20,,,,,0,0,0,3,3,0,3,0,17,0,17,0,,,,,,,,,,,,,,,,,461.00691360002384,None,461.59055600035936,461.9572890000418,461.9237950001843,463.9244385003112,j,1,0.3613401800394058,2.361976279877126,decreament,0.36,43,oddball,j,60,1.0089922999031842,,,,,,,m,33,224,fr,r,0,raw,2022-06-14_15h42.08.372,oddball,2022.1.2,59.98818222414917,
20,,,,,0,0,0,3,3,0,3,0,18,0,18,0,,,,,,,,,,,,,,,,,463.9413598002866,None,464.5586839001626,465.15851540025324,465.1419083001092,467.1423059999943,None,1,0.6098847799003124,2.610291480086744,decreament,0.6,41,standard,None,100,,,,,,,,m,33,224,fr,r,0,raw,2022-06-14_15h42.08.372,oddball,2022.1.2,59.98818222414917,
20,,,,,0,0,0,3,3,0,3,0,19,0,19,0,,,,,,,,,,,,,,,,,467.15921539999545,None,467.72605200018734,468.32665850035846,468.3100946000777,470.31053930008784,None,1,0.6141317803412676,2.614580580033362,decreament,0.6,41,standard,None,100,,,,,,,,m,33,224,fr,r,0,raw,2022-06-14_15h42.08.372,oddball,2022.1.2,59.98818222414917,
20,,,,,0,0,0,3,3,0,3,0,20,0,20,0,,,,,,,,,,,,,,,,,470.3269497002475,None,471.0273395003751,471.62744100019336,471.61113269999623,473.6113688000478,None,1,0.6131943799555302,2.613359880167991,decreament,0.6,41,standard,None,100,,,,,,,,m,33,224,fr,r,0,raw,2022-06-14_15h42.08.372,oddball,2022.1.2,59.98818222414917,
20,,,,,0,0,0,3,3,0,3,0,21,0,21,0,,,,,,,,,,,,,,,,,473.62842650013044,None,474.1454695002176,474.7454001000151,474.72870600037277,476.72935360018164,None,1,0.6127547798678279,2.613351779989898,decreament,0.6,41,standard,None,100,,,,,,,,m,33,224,fr,r,0,raw,2022-06-14_15h42.08.372,oddball,2022.1.2,59.98818222414917,
20,,,,,0,0,0,3,3,0,3,0,22,0,22,0,,,,,,,,,,,,,,,,,476.74597050016746,None,477.5964553002268,478.19670730037615,478.18023149995133,480.181028699968,None,1,0.6137916799634695,2.614628979936242,decreament,0.6,41,standard,None,100,,,,,,,,m,33,224,fr,r,0,raw,2022-06-14_15h42.08.372,oddball,2022.1.2,59.98818222414917,
20,,,,,0,0,0,3,3,0,3,0,23,0,23,0,,,,,,,,,,,,,,,,,480.197289200034,None,480.8147148001008,481.29790150001645,481.28106420021504,483.28166780015454,None,0,0.49409257993102074,2.494681979995221,decreament,0.48,44,oddball,j,80,,,,,,,,m,33,224,fr,r,0,raw,2022-06-14_15h42.08.372,oddball,2022.1.2,59.98818222414917,
20,,,,,0,0,0,3,3,0,3,0,24,0,24,0,,,,,,,,,,,,,,,,,483.29834560025483,None,483.96543380012736,484.5655662002973,484.54910910036415,486.54980699997395,None,1,0.6131501798518002,2.6138620800338686,decreament,0.6,41,standard,None,100,,,,,,,,m,33,224,fr,r,0,raw,2022-06-14_15h42.08.372,oddball,2022.1.2,59.98818222414917,
20,,,,,0,0,0,3,3,0,3,0,25,0,25,0,,,,,,,,,,,,,,,,,486.56666720006615,None,487.2165554999374,487.81694000028074,487.80020430032164,489.80087090004236,None,1,0.6120797800831497,2.6127181802876294,decreament,0.6,41,standard,None,100,,,,,,,,m,33,224,fr,r,0,raw,2022-06-14_15h42.08.372,oddball,2022.1.2,59.98818222414917,
20,,,,,0,0,0,3,3,0,3,0,26,0,26,0,,,,,,,,,,,,,,,,,489.817793100141,None,490.4513684003614,491.0514320000075,491.0348303001374,493.0357221001759,None,1,0.6124106803908944,2.6133245802484453,decreament,0.6,41,standard,None,100,,,,,,,,m,33,224,fr,r,0,raw,2022-06-14_15h42.08.372,oddball,2022.1.2,59.98818222414917,
20,,,,,0,0,0,3,3,0,3,0,27,0,27,0,,,,,,,,,,,,,,,,,493.0524371000938,None,493.6691175000742,494.26924580009654,494.2527395002544,496.25393960019574,None,1,0.612726479768753,2.614036579616368,decreament,0.6,41,standard,None,100,,,,,,,,m,33,224,fr,r,0,raw,2022-06-14_15h42.08.372,oddball,2022.1.2,59.98818222414917,
20,,,,,0,0,0,3,3,0,3,0,28,0,28,0,,,,,,,,,,,,,,,,,496.2699621003121,None,496.83702100021765,497.43757910002023,497.42090840032324,499.4211824000813,None,1,0.6120614800602198,2.612240480259061,decreament,0.6,41,standard,None,100,,,,,,,,m,33,224,fr,r,0,raw,2022-06-14_15h42.08.372,oddball,2022.1.2,59.98818222414917,
20,,,,,0,0,0,3,3,0,3,0,29,0,29,0,,,,,,,,,,,,,,,,,499.438093600329,None,500.00492200022563,500.60522160027176,500.58838520012796,502.589573699981,None,1,0.6124265799298882,2.613664980046451,decreament,0.6,41,standard,None,100,,,,,,,,m,33,224,fr,r,0,raw,2022-06-14_15h42.08.372,oddball,2022.1.2,59.98818222414917,
20,,,,,0,0,0,3,4,0,4,0,0,0,0,0,,,,,,,,,,,,,,,513.3178031002171,None,518.5786946001463,None,519.2123505002819,519.8130443999544,519.7961929002777,521.7966664000414,None,1,0.610125679988414,2.610557380132377,increament,0.6,45,standard,None,100,,502.6060577002354,None,,,,,m,33,224,fr,r,0,raw,2022-06-14_15h42.08.372,oddball,2022.1.2,59.98818222414917,
20,,,,,0,0,0,3,4,0,4,0,1,0,1,0,,,,,,,,,,,,,,,,,521.8144204001874,None,522.4133177003823,523.0135008003563,522.9973802999593,524.997690600343,None,1,0.6125128800049424,2.612808180041611,increament,0.6,45,standard,None,100,,,,,,,,m,33,224,fr,r,0,raw,2022-06-14_15h42.08.372,oddball,2022.1.2,59.98818222414917,
20,,,,,0,0,0,3,4,0,4,0,2,0,2,0,,,,,,,,,,,,,,,,,525.014715900179,None,525.7479280000553,526.3486220999621,526.3318144003861,528.3322609001771,None,1,0.6131106801331043,2.613531580194831,increament,0.6,45,standard,None,100,,,,,,,,m,33,224,fr,r,0,raw,2022-06-14_15h42.08.372,oddball,2022.1.2,59.98818222414917,
20,,,,,0,0,0,3,4,0,4,0,3,0,3,0,,,,,,,,,,,,,,,,,528.3491205000319,None,528.9825120000169,529.5827362001874,529.5661363000982,531.5673369001597,None,1,0.6095351800322533,2.6107531799934804,increament,0.6,45,standard,None,100,,,,,,,,m,33,224,fr,r,0,raw,2022-06-14_15h42.08.372,oddball,2022.1.2,59.98818222414917,
20,,,,,0,0,0,3,4,0,4,0,4,0,4,0,,,,,,,,,,,,,,,,,531.5837371000089,None,532.1337679000571,532.7341728000902,532.7173910001293,534.717871000059,None,1,0.6138760796748102,2.61430617980659,increament,0.6,45,standard,None,100,,,,,,,,m,33,224,fr,r,0,raw,2022-06-14_15h42.08.372,oddball,2022.1.2,59.98818222414917,
20,,,,,0,0,0,3,4,0,4,0,5,0,5,0,,,,,,,,,,,,,,,,,534.7348114000633,None,535.335154000204,535.9351613000035,535.9185633999296,537.91932919994,None,1,0.610741080250591,2.6115352800115943,increament,0.6,45,standard,None,100,,,,,,,,m,33,224,fr,r,0,raw,2022-06-14_15h42.08.372,oddball,2022.1.2,59.98818222414917,
20,,,,,0,0,0,3,4,0,4,0,6,0,6,0,,,,,,,,,,,,,,,,,537.9359965003096,None,538.586487099994,539.1865965002216,539.1698829000816,541.1705213999376,None,1,0.6093783797696233,2.610065779648721,increament,0.6,45,standard,None,100,,,,,,,,m,33,224,fr,r,0,raw,2022-06-14_15h42.08.372,oddball,2022.1.2,59.98818222414917,
20,,,,,0,0,0,3,4,0,4,0,7,0,7,0,,,,,,,,,,,,,,,,,541.1877697999589,None,541.7371768001467,542.3374307001941,542.3212638003752,544.3216250003316,None,1,0.6150599797256291,2.6154423798434436,increament,0.6,45,standard,None,100,,,,,,,,m,33,224,fr,r,0,raw,2022-06-14_15h42.08.372,oddball,2022.1.2,59.98818222414917,
20,,,,,0,0,0,3,4,0,4,0,8,0,8,0,,,,,,,,,,,,,,,,,544.3383917002939,None,545.0553969000466,545.6563778002746,545.6391887003556,547.6398936002515,None,1,0.6111172796227038,2.611821479629725,increament,0.6,45,standard,None,100,,,,,,,,m,33,224,fr,r,0,raw,2022-06-14_15h42.08.372,oddball,2022.1.2,59.98818222414917,
20,,,,,0,0,0,3,4,0,4,0,9,0,9,0,,,,,,,,,,,,,,,,,547.6563817001879,None,548.4066845001653,549.0065963999368,548.9903787001967,550.9910705001093,None,1,0.6128546791151166,2.613616679329425,increament,0.6,45,standard,None,100,,,,,,,,m,33,224,fr,r,0,raw,2022-06-14_15h42.08.372,oddball,2022.1.2,59.98818222414917,
20,,,,,0,0,0,3,4,0,4,0,10,0,10,0,,,,,,,,,,,,,,,,,551.0087914001197,None,551.5747108003125,552.1745131001808,552.1580008002929,554.1589737003669,None,1,0.6127954800613225,2.6137691801413894,increament,0.6,45,standard,None,100,,,,,,,,m,33,224,fr,r,0,raw,2022-06-14_15h42.08.372,oddball,2022.1.2,59.98818222414917,
20,,,,,0,0,0,3,4,0,4,0,11,0,11,0,,,,,,,,,,,,,,,,,554.1753543000668,None,554.8092817999423,555.4091133000329,555.3925445000641,557.3935512001626,None,1,0.6117340796627104,2.61280087986961,increament,0.6,45,standard,None,100,,,,,,,,m,33,224,fr,r,0,raw,2022-06-14_15h42.08.372,oddball,2022.1.2,59.98818222414917,
20,,,,,0,0,0,3,4,0,4,0,12,0,12,0,,,,,,,,,,,,,,,,,557.4106407002546,None,558.2102276002988,558.8106281999499,558.7940897000954,560.7944781002589,None,1,0.6129130800254643,2.6132736797444522,increament,0.6,45,standard,None,100,,,,,,,,m,33,224,fr,r,0,raw,2022-06-14_15h42.08.372,oddball,2022.1.2,59.98818222414917,
20,,,,,0,0,0,3,4,0,4,0,13,0,13,0,,,,,,,,,,,,,,,,,560.8113353000954,None,561.6115397000685,562.4617306999862,562.4283171002753,564.4292570003308,None,0,0.845498280134052,2.846460380125791,increament,0.84,47,oddball,j,140,,,,,,,,m,33,224,fr,r,0,raw,2022-06-14_15h42.08.372,oddball,2022.1.2,59.98818222414917,
20,,,,,0,0,0,3,4,0,4,0,14,0,14,0,,,,,,,,,,,,,,,,,564.4458945002407,None,565.1298213000409,565.729572399985,565.7128797001205,567.713773699943,None,1,0.6089024799875915,2.6098186797462404,increament,0.6,45,standard,None,100,,,,,,,,m,33,224,fr,r,0,raw,2022-06-14_15h42.08.372,oddball,2022.1.2,59.98818222414917,
20,,,,,0,0,0,3,4,0,4,0,15,0,15,0,,,,,,,,,,,,,,,,,567.7305765999481,None,568.5140309999697,569.1142013999633,569.0975572001189,571.0986922001466,None,1,0.6130094798281789,2.614189980085939,increament,0.6,45,standard,None,100,,,,,,,,m,33,224,fr,r,0,raw,2022-06-14_15h42.08.372,oddball,2022.1.2,59.98818222414917,
20,,,,,0,0,0,3,4,0,4,0,16,0,16,0,,,,,,,,,,,,,,,,,571.1155020999722,None,571.8154727001674,572.4157306002453,572.3992367000319,574.4000451001339,None,1,0.6137400795705616,2.614630579482764,increament,0.6,45,standard,None,100,,,,,,,,m,33,224,fr,r,0,raw,2022-06-14_15h42.08.372,oddball,2022.1.2,59.98818222414917,
20,,,,,0,0,0,3,4,0,4,0,17,0,17,0,,,,,,,,,,,,,,,,,574.416325900238,None,575.0332704000175,575.6334445001557,575.6169608002529,577.6174889001995,None,1,0.6116307801567018,2.6121706799604,increament,0.6,45,standard,None,100,,,,,,,,m,33,224,fr,r,0,raw,2022-06-14_15h42.08.372,oddball,2022.1.2,59.98818222414917,
20,,,,,0,0,0,3,4,0,4,0,18,0,18,0,,,,,,,,,,,,,,,,,577.6344976001419,None,578.2344170003198,579.2021874003112,579.1686431001872,581.1689589000307,j,1,0.9636622807011008,2.963918980676681,increament,0.96,48,oddball,j,160,0.6203222996555269,,,,,,,m,33,224,fr,r,0,raw,2022-06-14_15h42.08.372,oddball,2022.1.2,59.98818222414917,
20,,,,,0,0,0,3,4,0,4,0,19,0,19,0,,,,,,,,,,,,,,,,,581.1855692001991,None,581.8525188001804,582.4528764002025,582.4363667001016,584.43687720038,None,1,0.6138538802042603,2.6143571799620986,increament,0.6,45,standard,None,100,,,,,,,,m,33,224,fr,r,0,raw,2022-06-14_15h42.08.372,oddball,2022.1.2,59.98818222414917,
20,,,,,0,0,0,3,4,0,4,0,20,0,20,0,,,,,,,,,,,,,,,,,584.4534753002226,None,585.1038029002957,585.704144900199,585.6875276002102,587.6881258003414,None,1,0.6125632803887129,2.6131146801635623,increament,0.6,45,standard,None,100,,,,,,,,m,33,224,fr,r,0,raw,2022-06-14_15h42.08.372,oddball,2022.1.2,59.98818222414917,
20,,,,,0,0,0,3,4,0,4,0,21,0,21,0,,,,,,,,,,,,,,,,,587.7047001002356,None,588.3553764000535,588.9553172001615,588.9385065999813,590.9394270000048,None,1,0.6118288794532418,2.6128022796474397,increament,0.6,45,standard,None,100,,,,,,,,m,33,224,fr,r,0,raw,2022-06-14_15h42.08.372,oddball,2022.1.2,59.98818222414917,
20,,,,,0,0,0,3,4,0,4,0,22,0,22,0,,,,,,,,,,,,,,,,,590.956447200384,None,591.589705100283,592.1899406001903,592.1735406001098,594.1740149999969,None,1,0.6112192794680595,2.6115427794866264,increament,0.6,45,standard,None,100,,,,,,,,m,33,224,fr,r,0,raw,2022-06-14_15h42.08.372,oddball,2022.1.2,59.98818222414917,
20,,,,,0,0,0,3,4,0,4,0,23,0,23,0,,,,,,,,,,,,,,,,,594.1906072003767,None,594.840986400377,595.4408685001545,595.4246444003657,597.4251973000355,None,1,0.6104179797694087,2.6109828799962997,increament,0.6,45,standard,None,100,,,,,,,,m,33,224,fr,r,0,raw,2022-06-14_15h42.08.372,oddball,2022.1.2,59.98818222414917,
20,,,,,0,0,0,3,4,0,4,0,24,0,24,0,,,,,,,,,,,,,,,,,597.4418127001263,None,598.1086224000901,598.7090535000898,598.6925604003482,600.6930162999779,None,1,0.6133984797634184,2.613986779935658,increament,0.6,45,standard,None,100,,,,,,,,m,33,224,fr,r,0,raw,2022-06-14_15h42.08.372,oddball,2022.1.2,59.98818222414917,
20,,,,,0,0,0,3,4,0,4,0,25,0,25,0,,,,,,,,,,,,,,,,,600.7096601999365,None,601.259914000053,601.8601601999253,601.8434172002599,603.8442943999544,None,1,0.612211880274117,2.6130806799046695,increament,0.6,45,standard,None,100,,,,,,,,m,33,224,fr,r,0,raw,2022-06-14_15h42.08.372,oddball,2022.1.2,59.98818222414917,
20,,,,,0,0,0,3,4,0,4,0,26,0,26,0,,,,,,,,,,,,,,,,,603.8610213999636,None,604.4280193001032,605.0280511002056,605.0114102000371,607.0124290003441,None,1,0.6097753802314401,2.610967480111867,increament,0.6,45,standard,None,100,,,,,,,,m,33,224,fr,r,0,raw,2022-06-14_15h42.08.372,oddball,2022.1.2,59.98818222414917,
20,,,,,0,0,0,3,4,0,4,0,27,0,27,0,,,,,,,,,,,,,,,,,607.028834100347,None,607.6957225999795,608.429387900047,608.3958335001953,610.3965670000762,None,0,0.729210379999131,2.7299403799697757,increament,0.72,46,oddball,j,120,,,,,,,,m,33,224,fr,r,0,raw,2022-06-14_15h42.08.372,oddball,2022.1.2,59.98818222414917,
20,,,,,0,0,0,3,4,0,4,0,28,0,28,0,,,,,,,,,,,,,,,,,610.4133679000661,None,611.1973335002549,611.7971764001995,611.7805832000449,613.7811780003831,None,1,0.6112977801822126,2.611891979817301,increament,0.6,45,standard,None,100,,,,,,,,m,33,224,fr,r,0,raw,2022-06-14_15h42.08.372,oddball,2022.1.2,59.98818222414917,
20,,,,,0,0,0,3,4,0,4,0,29,0,29,0,,,,,,,,,,,,,,,,,613.7980700000189,None,614.5150646003895,615.1149988002144,615.0986208003014,617.0991726000793,None,1,0.6115874797105789,2.612306679598987,increament,0.6,45,standard,None,100,,,,,,,,m,33,224,fr,r,0,raw,2022-06-14_15h42.08.372,oddball,2022.1.2,59.98818222414917,
20,,,,,0,0,0,3,5,0,5,0,0,0,0,0,,,,,,,,,,,,,,,620.4069022000767,None,622.9015425001271,None,623.5016408003867,624.1021322002634,624.085675700102,626.0860772002488,None,1,0.6090188804082572,2.6094083804637194,decreament,0.6,41,standard,None,100,,617.1162922000512,None,,,,,m,33,224,fr,r,0,raw,2022-06-14_15h42.08.372,oddball,2022.1.2,59.98818222414917,
20,,,,,0,0,0,3,5,0,5,0,1,0,1,0,,,,,,,,,,,,,,,,,626.1027889000252,None,626.819527100306,627.4200307000428,627.4032395002432,629.4039031001739,None,1,0.6125614796765149,2.6132163796573877,decreament,0.6,41,standard,None,100,,,,,,,,m,33,224,fr,r,0,raw,2022-06-14_15h42.08.372,oddball,2022.1.2,59.98818222414917,
20,,,,,0,0,0,3,5,0,5,0,2,0,2,0,,,,,,,,,,,,,,,,,629.4206377002411,None,630.2045153002255,630.8046828000806,630.7878697002307,632.7883646003902,None,1,0.6096866796724498,2.6101600797846913,decreament,0.6,41,standard,None,100,,,,,,,,m,33,224,fr,r,0,raw,2022-06-14_15h42.08.372,oddball,2022.1.2,59.98818222414917,
20,,,,,0,0,0,3,5,0,5,0,3,0,3,0,,,,,,,,,,,,,,,,,632.8055934002623,None,633.4722490003332,634.0722108003683,634.05554330023,636.056341800373,None,1,0.6092830803245306,2.6100761801935732,decreament,0.6,41,standard,None,100,,,,,,,,m,33,224,fr,r,0,raw,2022-06-14_15h42.08.372,oddball,2022.1.2,59.98818222414917,
20,,,,,0,0,0,3,5,0,5,0,4,0,4,0,,,,,,,,,,,,,,,,,636.0732702999376,None,636.7404935001396,637.3404887001961,637.323784200009,639.3241938999854,None,1,0.6128309802152216,2.6129481801763177,decreament,0.6,41,standard,None,100,,,,,,,,m,33,224,fr,r,0,raw,2022-06-14_15h42.08.372,oddball,2022.1.2,59.98818222414917,
20,,,,,0,0,0,3,5,0,5,0,5,0,5,0,,,,,,,,,,,,,,,,,639.3412076001987,None,639.9579380000941,640.5584197002463,640.5415882002562,642.542417800054,None,1,0.6130012795329094,2.613861379213631,decreament,0.6,41,standard,None,100,,,,,,,,m,33,224,fr,r,0,raw,2022-06-14_15h42.08.372,oddball,2022.1.2,59.98818222414917,
20,,,,,0,0,0,3,5,0,5,0,6,0,6,0,,,,,,,,,,,,,,,,,642.5591248003766,None,643.1925552003086,643.792590000201,643.7760339002125,645.776842799969,None,1,0.6110464804805815,2.611904080491513,decreament,0.6,41,standard,None,100,,,,,,,,m,33,224,fr,r,0,raw,2022-06-14_15h42.08.372,oddball,2022.1.2,59.98818222414917,
20,,,,,0,0,0,3,5,0,5,0,7,0,7,0,,,,,,,,,,,,,,,,,645.7936299000867,None,646.4603365003131,647.0610793000087,647.044190000277,649.0448647001758,None,1,0.6126637803390622,2.613294180482626,decreament,0.6,41,standard,None,100,,,,,,,,m,33,224,fr,r,0,raw,2022-06-14_15h42.08.372,oddball,2022.1.2,59.98818222414917,
20,,,,,0,0,0,3,5,0,5,0,8,0,8,0,,,,,,,,,,,,,,,,,649.0611621001735,None,649.8283796999604,650.4284387002699,650.411870200187,652.4129471001215,None,1,0.6118136802688241,2.6129527799785137,decreament,0.6,41,standard,None,100,,,,,,,,m,33,224,fr,r,0,raw,2022-06-14_15h42.08.372,oddball,2022.1.2,59.98818222414917,
20,,,,,0,0,0,3,5,0,5,0,9,0,9,0,,,,,,,,,,,,,,,,,652.4295682003722,None,653.0128342001699,653.6132070999593,653.5966412001289,655.5973181999288,None,1,0.6123010800220072,2.612949480302632,decreament,0.6,41,standard,None,100,,,,,,,,m,33,224,fr,r,0,raw,2022-06-14_15h42.08.372,oddball,2022.1.2,59.98818222414917,
20,,,,,0,0,0,3,5,0,5,0,10,0,10,0,,,,,,,,,,,,,,,,,655.6141749001108,None,656.3478769999929,656.9479237999767,656.9314685002901,658.9318099003285,None,1,0.6112053799442947,2.6115142800845206,decreament,0.6,41,standard,None,100,,,,,,,,m,33,224,fr,r,0,raw,2022-06-14_15h42.08.372,oddball,2022.1.2,59.98818222414917,
20,,,,,0,0,0,3,5,0,5,0,11,0,11,0,,,,,,,,,,,,,,,,,658.9482032000087,None,659.4991836003028,660.0988048003055,660.0821302002296,662.082849000115,None,1,0.6117895799688995,2.6125111798755825,decreament,0.6,41,standard,None,100,,,,,,,,m,33,224,fr,r,0,raw,2022-06-14_15h42.08.372,oddball,2022.1.2,59.98818222414917,
20,,,,,0,0,0,3,5,0,5,0,12,0,12,0,,,,,,,,,,,,,,,,,662.0995007003658,None,662.8336102003232,663.4334734999575,663.4167102002539,665.4173615002073,None,1,0.6113529806025326,2.6120118806138635,decreament,0.6,41,standard,None,100,,,,,,,,m,33,224,fr,r,0,raw,2022-06-14_15h42.08.372,oddball,2022.1.2,59.98818222414917,
20,,,,,0,0,0,3,5,0,5,0,13,0,13,0,,,,,,,,,,,,,,,,,665.4343411000445,None,666.0677815000527,666.43452790007,666.4013065001927,668.4019782003015,j,1,0.3601512797176838,2.3608244797214866,decreament,0.36,43,oddball,j,60,0.9946980997920036,,,,,,,m,33,224,fr,r,0,raw,2022-06-14_15h42.08.372,oddball,2022.1.2,59.98818222414917,
20,,,,,0,0,0,3,5,0,5,0,14,0,14,0,,,,,,,,,,,,,,,,,668.4189511002041,None,669.0521697001532,669.6524080000818,669.6360369999893,671.6365509000607,None,1,0.6128798797726631,2.613400380127132,decreament,0.6,41,standard,None,100,,,,,,,,m,33,224,fr,r,0,raw,2022-06-14_15h42.08.372,oddball,2022.1.2,59.98818222414917,
20,,,,,0,0,0,3,5,0,5,0,15,0,15,0,,,,,,,,,,,,,,,,,671.653584800195,None,672.253363400232,672.8536348002963,672.837258500047,674.8379246001132,None,1,0.6131082796491683,2.6138121797703207,decreament,0.6,41,standard,None,100,,,,,,,,m,33,224,fr,r,0,raw,2022-06-14_15h42.08.372,oddball,2022.1.2,59.98818222414917,
20,,,,,0,0,0,3,5,0,5,0,16,0,16,0,,,,,,,,,,,,,,,,,674.8543885000981,None,675.4883159999736,676.0884780003689,676.0720458002761,678.0723260999657,None,1,0.6118707801215351,2.6120897801592946,decreament,0.6,41,standard,None,100,,,,,,,,m,33,224,fr,r,0,raw,2022-06-14_15h42.08.372,oddball,2022.1.2,59.98818222414917,
20,,,,,0,0,0,3,5,0,5,0,17,0,17,0,,,,,,,,,,,,,,,,,678.0889905001968,None,678.8059636000544,679.4061815999448,679.3897458999418,681.3904210999608,j,0,0.6126365792006254,2.6133256792090833,decreament,0.6,41,standard,None,100,1.2946174000389874,,,,,,,m,33,224,fr,r,0,raw,2022-06-14_15h42.08.372,oddball,2022.1.2,59.98818222414917,
20,,,,,0,0,0,3,5,0,5,0,18,0,18,0,,,,,,,,,,,,,,,,,681.4073646999896,None,682.123955400195,682.6074087000452,682.5743106002919,684.5751451002434,None,0,0.4793217796832323,2.4801811799407005,decreament,0.48,44,oddball,j,80,,,,,,,,m,33,224,fr,r,0,raw,2022-06-14_15h42.08.372,oddball,2022.1.2,59.98818222414917,
20,,,,,0,0,0,3,5,0,5,0,19,0,19,0,,,,,,,,,,,,,,,,,684.5916416002437,None,685.2083191000856,685.8089740001597,685.792012500111,687.7926695002243,None,1,0.6137873795814812,2.6143867797218263,decreament,0.6,41,standard,None,100,,,,,,,,m,33,224,fr,r,0,raw,2022-06-14_15h42.08.372,oddball,2022.1.2,59.98818222414917,
20,,,,,0,0,0,3,5,0,5,0,20,0,20,0,,,,,,,,,,,,,,,,,687.8093624999747,None,688.4265624000691,689.0264504002407,689.0098004001193,691.0105028999969,None,1,0.6112788799218833,2.612008580006659,decreament,0.6,41,standard,None,100,,,,,,,,m,33,224,fr,r,0,raw,2022-06-14_15h42.08.372,oddball,2022.1.2,59.98818222414917,
20,,,,,0,0,0,3,5,0,5,0,21,0,21,0,,,,,,,,,,,,,,,,,691.0274086003192,None,691.6773637002334,692.2776562999934,692.2612890000455,694.2617322001606,None,1,0.6123168803751469,2.6127426801249385,decreament,0.6,41,standard,None,100,,,,,,,,m,33,224,fr,r,0,raw,2022-06-14_15h42.08.372,oddball,2022.1.2,59.98818222414917,
20,,,,,0,0,0,3,5,0,5,0,22,0,22,0,,,,,,,,,,,,,,,,,694.2782895001583,None,694.912074000109,695.5122418003157,695.4955790000968,697.4965305002406,None,1,0.614186080172658,2.615135080181062,decreament,0.6,41,standard,None,100,,,,,,,,m,33,224,fr,r,0,raw,2022-06-14_15h42.08.372,oddball,2022.1.2,59.98818222414917,
20,,,,,0,0,0,3,5,0,5,0,23,0,23,0,,,,,,,,,,,,,,,,,697.5130423000082,None,698.2134279003367,698.8135450002737,698.7968133003451,700.7976897000335,None,1,0.6111717806197703,2.612113280687481,decreament,0.6,41,standard,None,100,,,,,,,,m,33,224,fr,r,0,raw,2022-06-14_15h42.08.372,oddball,2022.1.2,59.98818222414917,
20,,,,,0,0,0,3,5,0,5,0,24,0,24,0,,,,,,,,,,,,,,,,,700.8145588999614,None,701.381389700342,701.9816034003161,701.9650991000235,703.9656837000512,None,1,0.6131256800144911,2.61371878022328,decreament,0.6,41,standard,None,100,,,,,,,,m,33,224,fr,r,0,raw,2022-06-14_15h42.08.372,oddball,2022.1.2,59.98818222414917,
20,,,,,0,0,0,3,5,0,5,0,25,0,25,0,,,,,,,,,,,,,,,,,703.9823765000328,None,704.6492930003442,704.8991100001149,704.8658223003149,706.8665694002993,j,1,0.24380817962810397,2.2445777799002826,decreament,0.24,42,oddball,j,40,0.7305982001125813,,,,,,,m,33,224,fr,r,0,raw,2022-06-14_15h42.08.372,oddball,2022.1.2,59.98818222414917,
20,,,,,0,0,0,3,5,0,5,0,26,0,26,0,,,,,,,,,,,,,,,,,706.8832600000314,None,707.5672472002916,708.1668258002028,708.150266900193,710.1512768999673,None,1,0.6076423800550401,2.6087161800824106,decreament,0.6,41,standard,None,100,,,,,,,,m,33,224,fr,r,0,raw,2022-06-14_15h42.08.372,oddball,2022.1.2,59.98818222414917,
20,,,,,0,0,0,3,5,0,5,0,27,0,27,0,,,,,,,,,,,,,,,,,710.1677782000042,None,710.7517479001544,711.3517825002782,711.3351223003119,713.3359019001946,None,1,0.6116137797944248,2.6124178799800575,decreament,0.6,41,standard,None,100,,,,,,,,m,33,224,fr,r,0,raw,2022-06-14_15h42.08.372,oddball,2022.1.2,59.98818222414917,
20,,,,,0,0,0,3,5,0,5,0,28,0,28,0,,,,,,,,,,,,,,,,,713.353624000214,None,713.8860814999789,714.4861284000799,714.4694535001181,716.470501200296,None,1,0.6089928802102804,2.6100846799090505,decreament,0.6,41,standard,None,100,,,,,,,,m,33,224,fr,r,0,raw,2022-06-14_15h42.08.372,oddball,2022.1.2,59.98818222414917,
20,,,,,0,0,0,3,5,0,5,0,29,0,29,0,,,,,,,,,,,,,,,,,716.4868477000855,None,717.0705555002205,717.6706333002076,717.6540345000103,719.6550398999825,None,1,0.6118454798124731,2.61294837994501,decreament,0.6,41,standard,None,100,,,,,,,,m,33,224,fr,r,0,raw,2022-06-14_15h42.08.372,oddball,2022.1.2,59.98818222414917,
20,,,,,0,0,0,3,6,0,6,0,0,0,0,0,,,,,,,,,,,,,,,726.8816887000576,None,728.2078472003341,None,728.8085556002334,729.4086194001138,729.3919494003057,731.392765800003,None,1,0.6091051800176501,2.609966879710555,increament,0.6,45,standard,None,100,,719.6754308999516,None,,,,,m,33,224,fr,r,0,raw,2022-06-14_15h42.08.372,oddball,2022.1.2,59.98818222414917,
20,,,,,0,0,0,3,6,0,6,0,1,0,1,0,,,,,,,,,,,,,,,,,731.4099150002003,None,732.0930701000616,732.6928630000912,732.6762033002451,734.6777164000086,None,1,0.6093607801012695,2.611137580126524,increament,0.6,45,standard,None,100,,,,,,,,m,33,224,fr,r,0,raw,2022-06-14_15h42.08.372,oddball,2022.1.2,59.98818222414917,
20,,,,,0,0,0,3,6,0,6,0,2,0,2,0,,,,,,,,,,,,,,,,,734.6936580999754,None,735.2776322001591,735.8777213003486,735.8609534003772,737.8622061000206,None,1,0.6096492796204984,2.610943179577589,increament,0.6,45,standard,None,100,,,,,,,,m,33,224,fr,r,0,raw,2022-06-14_15h42.08.372,oddball,2022.1.2,59.98818222414917,
20,,,,,0,0,0,3,6,0,6,0,3,0,3,0,,,,,,,,,,,,,,,,,737.8795862002298,None,738.5452689002268,739.1457469002344,739.1290250001475,741.1296376003884,None,1,0.6143174795433879,2.614864479750395,increament,0.6,45,standard,None,100,,,,,,,,m,33,224,fr,r,0,raw,2022-06-14_15h42.08.372,oddball,2022.1.2,59.98818222414917,
20,,,,,0,0,0,3,6,0,6,0,4,0,4,0,,,,,,,,,,,,,,,,,741.146190200001,None,741.8132061003707,742.413287400268,742.3971401001327,744.397423400078,None,1,0.6117744795046747,2.6120289796963334,increament,0.6,45,standard,None,100,,,,,,,,m,33,224,fr,r,0,raw,2022-06-14_15h42.08.372,oddball,2022.1.2,59.98818222414917,
20,,,,,0,0,0,3,6,0,6,0,5,0,5,0,,,,,,,,,,,,,,,,,744.414255599957,None,745.0476782000624,745.6479830001481,745.6319472999312,747.6322722001933,None,1,0.6137680797837675,2.6140741799026728,increament,0.6,45,standard,None,100,,,,,,,,m,33,224,fr,r,0,raw,2022-06-14_15h42.08.372,oddball,2022.1.2,59.98818222414917,
20,,,,,0,0,0,3,6,0,6,0,6,0,6,0,,,,,,,,,,,,,,,,,747.6502638999373,None,748.3824301003478,748.9828616003506,748.9659915002994,750.966869099997,None,1,0.6090578800067306,2.6099531799554825,increament,0.6,45,standard,None,100,,,,,,,,m,33,224,fr,r,0,raw,2022-06-14_15h42.08.372,oddball,2022.1.2,59.98818222414917,
20,,,,,0,0,0,3,6,0,6,0,7,0,7,0,,,,,,,,,,,,,,,,,750.9839918999933,None,751.6505142003298,752.250305800233,752.2336299000308,754.2345313001424,None,1,0.6109786801971495,2.6119234804064035,increament,0.6,45,standard,None,100,,,,,,,,m,33,224,fr,r,0,raw,2022-06-14_15h42.08.372,oddball,2022.1.2,59.98818222414917,
20,,,,,0,0,0,3,6,0,6,0,8,0,8,0,,,,,,,,,,,,,,,,,754.2511471002363,None,754.9343950999901,755.5353999999352,755.518727700226,757.5191398002207,None,1,0.6157333799637854,2.616089779883623,increament,0.6,45,standard,None,100,,,,,,,,m,33,224,fr,r,0,raw,2022-06-14_15h42.08.372,oddball,2022.1.2,59.98818222414917,
20,,,,,0,0,0,3,6,0,6,0,9,0,9,0,,,,,,,,,,,,,,,,,757.5360027002171,None,758.2692849999294,758.8695603003725,758.8531126002781,760.8535527000204,None,1,0.6121590798720717,2.612564879935235,increament,0.6,45,standard,None,100,,,,,,,,m,33,224,fr,r,0,raw,2022-06-14_15h42.08.372,oddball,2022.1.2,59.98818222414917,
20,,,,,0,0,0,3,6,0,6,0,10,0,10,0,,,,,,,,,,,,,,,,,760.8703447999433,None,761.4539501001127,762.3045656001195,762.2708471002989,764.2718683001585,None,0,0.8426344799809158,2.8436785801313818,increament,0.84,47,oddball,j,140,,,,,,,,m,33,224,fr,r,0,raw,2022-06-14_15h42.08.372,oddball,2022.1.2,59.98818222414917,
20,,,,,0,0,0,3,6,0,6,0,11,0,11,0,,,,,,,,,,,,,,,,,764.2883089999668,None,764.9219367001206,765.52193180006,765.5056656999514,767.5061679999344,None,1,0.6133392797783017,2.6138729797676206,increament,0.6,45,standard,None,100,,,,,,,,m,33,224,fr,r,0,raw,2022-06-14_15h42.08.372,oddball,2022.1.2,59.98818222414917,
20,,,,,0,0,0,3,6,0,6,0,12,0,12,0,,,,,,,,,,,,,,,,,767.5230568000115,None,768.0898074000143,768.6895808000118,768.6729512000456,770.6740316003561,None,1,0.6129485801793635,2.614075480494648,increament,0.6,45,standard,None,100,,,,,,,,m,33,224,fr,r,0,raw,2022-06-14_15h42.08.372,oddball,2022.1.2,59.98818222414917,
20,,,,,0,0,0,3,6,0,6,0,13,0,13,0,,,,,,,,,,,,,,,,,770.6909068003297,None,771.4576421999373,772.0577424000949,772.0414631003514,774.0422228001989,None,1,0.6122367801144719,2.613050680141896,increament,0.6,45,standard,None,100,,,,,,,,m,33,224,fr,r,0,raw,2022-06-14_15h42.08.372,oddball,2022.1.2,59.98818222414917,
20,,,,,0,0,0,3,6,0,6,0,14,0,14,0,,,,,,,,,,,,,,,,,774.0587413003668,None,774.8423351999372,775.5762550001964,775.5425281999633,777.543286900036,None,0,0.7259990801103413,2.726750980131328,increament,0.72,46,oddball,j,120,,,,,,,,m,33,224,fr,r,0,raw,2022-06-14_15h42.08.372,oddball,2022.1.2,59.98818222414917,
20,,,,,0,0,0,3,6,0,6,0,15,0,15,0,,,,,,,,,,,,,,,,,777.5602315003052,None,778.2602931000292,778.8609788999893,778.8440153002739,780.8445636001416,None,1,0.6085007800720632,2.6088835801929235,increament,0.6,45,standard,None,100,,,,,,,,m,33,224,fr,r,0,raw,2022-06-14_15h42.08.372,oddball,2022.1.2,59.98818222414917,
20,,,,,0,0,0,3,6,0,6,0,16,0,16,0,,,,,,,,,,,,,,,,,780.861128100194,None,781.6119429003447,782.2117628003471,782.1949072000571,784.1958550000563,None,1,0.6092774802818894,2.6102672801353037,increament,0.6,45,standard,None,100,,,,,,,,m,33,224,fr,r,0,raw,2022-06-14_15h42.08.372,oddball,2022.1.2,59.98818222414917,
20,,,,,0,0,0,3,6,0,6,0,17,0,17,0,,,,,,,,,,,,,,,,,784.2125297002494,None,784.8128265002742,785.4131925003603,785.3967202999629,787.3971289000474,None,1,0.6114484798163176,2.6117940796539187,increament,0.6,45,standard,None,100,,,,,,,,m,33,224,fr,r,0,raw,2022-06-14_15h42.08.372,oddball,2022.1.2,59.98818222414917,
20,,,,,0,0,0,3,6,0,6,0,18,0,18,0,,,,,,,,,,,,,,,,,787.4137466000393,None,788.0806456003338,789.0476377001032,789.0140662002377,791.0149985002354,None,0,0.9634733800776303,2.964432179927826,increament,0.96,48,oddball,j,160,,,,,,,,m,33,224,fr,r,0,raw,2022-06-14_15h42.08.372,oddball,2022.1.2,59.98818222414917,
20,,,,,0,0,0,3,6,0,6,0,19,0,19,0,,,,,,,,,,,,,,,,,791.0317164999433,None,791.8323083999567,792.4322534003295,792.4157637003809,794.4163375003263,None,1,0.6094870800152421,2.610043379943818,increament,0.6,45,standard,None,100,,,,,,,,m,33,224,fr,r,0,raw,2022-06-14_15h42.08.372,oddball,2022.1.2,59.98818222414917,
20,,,,,0,0,0,3,6,0,6,0,20,0,20,0,,,,,,,,,,,,,,,,,794.4332485999912,None,795.1998073002324,795.8002398000099,795.7836050000042,797.7847127001733,None,1,0.6137387799099088,2.614869180135429,increament,0.6,45,standard,None,100,,,,,,,,m,33,224,fr,r,0,raw,2022-06-14_15h42.08.372,oddball,2022.1.2,59.98818222414917,
20,,,,,0,0,0,3,6,0,6,0,21,0,21,0,,,,,,,,,,,,,,,,,797.801344500389,None,798.4515432999469,799.0518579003401,799.0351084000431,801.0355027001351,None,1,0.6130855795927346,2.6133589795790613,increament,0.6,45,standard,None,100,,,,,,,,m,33,224,fr,r,0,raw,2022-06-14_15h42.08.372,oddball,2022.1.2,59.98818222414917,
20,,,,,0,0,0,3,6,0,6,0,22,0,22,0,,,,,,,,,,,,,,,,,801.0522573003545,None,801.9193746000528,802.5196488001384,802.5032188002951,804.5035650003701,None,1,0.6125996802002192,2.6128565804101527,increament,0.6,45,standard,None,100,,,,,,,,m,33,224,fr,r,0,raw,2022-06-14_15h42.08.372,oddball,2022.1.2,59.98818222414917,
20,,,,,0,0,0,3,6,0,6,0,23,0,23,0,,,,,,,,,,,,,,,,,804.5203680000268,None,805.2206350001507,805.8206501002423,805.8040084000677,807.805232600309,None,1,0.6121985795907676,2.6134893796406686,increament,0.6,45,standard,None,100,,,,,,,,m,33,224,fr,r,0,raw,2022-06-14_15h42.08.372,oddball,2022.1.2,59.98818222414917,
20,,,,,0,0,0,3,6,0,6,0,24,0,24,0,,,,,,,,,,,,,,,,,807.8224136000499,None,808.4550351002254,809.0550953000784,809.0388851999305,811.0393439000472,None,1,0.6096358802169561,2.6100978800095618,increament,0.6,45,standard,None,100,,,,,,,,m,33,224,fr,r,0,raw,2022-06-14_15h42.08.372,oddball,2022.1.2,59.98818222414917,
20,,,,,0,0,0,3,6,0,6,0,25,0,25,0,,,,,,,,,,,,,,,,,811.0563696003519,None,811.6563389003277,812.2562898001634,812.2398089002818,814.2405814002268,None,1,0.6135073797777295,2.6143052796833217,increament,0.6,45,standard,None,100,,,,,,,,m,33,224,fr,r,0,raw,2022-06-14_15h42.08.372,oddball,2022.1.2,59.98818222414917,
20,,,,,0,0,0,3,6,0,6,0,26,0,26,0,,,,,,,,,,,,,,,,,814.2574026002549,None,814.8575675999746,815.4575323001482,815.4408923001029,817.4418329000473,None,1,0.6112841796129942,2.612333179451525,increament,0.6,45,standard,None,100,,,,,,,,m,33,224,fr,r,0,raw,2022-06-14_15h42.08.372,oddball,2022.1.2,59.98818222414917,
20,,,,,0,0,0,3,6,0,6,0,27,0,27,0,,,,,,,,,,,,,,,,,817.45940469997,None,818.0922007001936,818.6925498000346,818.6760539002717,820.6762045002542,None,1,0.6105829798616469,2.610681280028075,increament,0.6,45,standard,None,100,,,,,,,,m,33,224,fr,r,0,raw,2022-06-14_15h42.08.372,oddball,2022.1.2,59.98818222414917,
20,,,,,0,0,0,3,6,0,6,0,28,0,28,0,,,,,,,,,,,,,,,,,820.6931969001889,None,821.3433632003143,821.9435254000127,821.9270688001998,823.927892900072,None,1,0.6116788797080517,2.612534579820931,increament,0.6,45,standard,None,100,,,,,,,,m,33,224,fr,r,0,raw,2022-06-14_15h42.08.372,oddball,2022.1.2,59.98818222414917,
20,,,,,0,0,0,3,6,0,6,0,29,0,29,0,,,,,,,,,,,,,,,,,823.9451566999778,None,824.6111926003359,825.2115255999379,825.1948099001311,827.1956434999593,None,1,0.6125715798698366,2.613428079523146,increament,0.6,45,standard,None,100,,,,,,,,m,33,224,fr,r,0,raw,2022-06-14_15h42.08.372,oddball,2022.1.2,59.98818222414917,
20,,,,,0,0,0,3,7,0,7,0,0,0,0,0,,,,,,,,,,,,,,,840.0888265999965,None,842.2346332003362,None,842.8514825003222,843.4515546001494,843.4348806003109,845.435754199978,None,1,0.6127276797778904,2.6136202798224986,decreament,0.6,41,standard,None,100,,827.2133083003573,None,,,,,m,33,224,fr,r,0,raw,2022-06-14_15h42.08.372,oddball,2022.1.2,59.98818222414917,
20,,,,,0,0,0,3,7,0,7,0,1,0,1,0,,,,,,,,,,,,,,,,,845.452383399941,None,846.0360596003011,846.636062500067,846.6198603003286,848.6200513001531,None,1,0.6117613799870014,2.611843579914421,decreament,0.6,41,standard,None,100,,,,,,,,m,33,224,fr,r,0,raw,2022-06-14_15h42.08.372,oddball,2022.1.2,59.98818222414917,
20,,,,,0,0,0,3,7,0,7,0,2,0,2,0,,,,,,,,,,,,,,,,,848.6368100000545,None,849.2204901003279,849.8206428000703,849.8038210002705,851.8048739000224,None,1,0.6120276795700192,2.6131327794864774,decreament,0.6,41,standard,None,100,,,,,,,,m,33,224,fr,r,0,raw,2022-06-14_15h42.08.372,oddball,2022.1.2,59.98818222414917,
20,,,,,0,0,0,3,7,0,7,0,3,0,3,0,,,,,,,,,,,,,,,,,851.8213953003287,None,852.4382597999647,853.0385035001673,853.0221335003152,855.0227414001711,None,1,0.6124362801201642,2.613081180024892,decreament,0.6,41,standard,None,100,,,,,,,,m,33,224,fr,r,0,raw,2022-06-14_15h42.08.372,oddball,2022.1.2,59.98818222414917,
20,,,,,0,0,0,3,7,0,7,0,4,0,4,0,,,,,,,,,,,,,,,,,855.0394399999641,None,855.7064108001068,856.3067355002277,856.2900191000663,858.2906176000834,None,1,0.611074180342257,2.611604480072856,decreament,0.6,41,standard,None,100,,,,,,,,m,33,224,fr,r,0,raw,2022-06-14_15h42.08.372,oddball,2022.1.2,59.98818222414917,
20,,,,,0,0,0,3,7,0,7,0,5,0,5,0,,,,,,,,,,,,,,,,,858.3074615001678,None,858.8742078002542,859.474513000343,859.4579957001843,861.4584799003787,None,1,0.6116354800760746,2.612088280264288,decreament,0.6,41,standard,None,100,,,,,,,,m,33,224,fr,r,0,raw,2022-06-14_15h42.08.372,oddball,2022.1.2,59.98818222414917,
20,,,,,0,0,0,3,7,0,7,0,6,0,6,0,,,,,,,,,,,,,,,,,861.4750113002956,None,862.1254304000176,862.7259619003162,862.7089412999339,864.7096057003364,None,1,0.6125244796276093,2.613165179733187,decreament,0.6,41,standard,None,100,,,,,,,,m,33,224,fr,r,0,raw,2022-06-14_15h42.08.372,oddball,2022.1.2,59.98818222414917,
20,,,,,0,0,0,3,7,0,7,0,7,0,7,0,,,,,,,,,,,,,,,,,864.7263036002405,None,865.4436168000102,866.0438433000818,866.0270357001573,868.0276264999993,None,1,0.6115698800422251,2.6120897801592946,decreament,0.6,41,standard,None,100,,,,,,,,m,33,224,fr,r,0,raw,2022-06-14_15h42.08.372,oddball,2022.1.2,59.98818222414917,
20,,,,,0,0,0,3,7,0,7,0,8,0,8,0,,,,,,,,,,,,,,,,,868.0443734000437,None,868.711070000194,869.0778717002831,869.0448171999305,871.0455571999773,j,1,0.36452338052913547,2.3653153805062175,decreament,0.36,43,oddball,j,60,1.0146925998851657,,,,,,,m,33,224,fr,r,0,raw,2022-06-14_15h42.08.372,oddball,2022.1.2,59.98818222414917,
20,,,,,0,0,0,3,7,0,7,0,9,0,9,0,,,,,,,,,,,,,,,,,871.0621217000298,None,871.9127510003746,872.5131542002782,872.4965208000503,874.4967208001763,None,1,0.6110624801367521,2.6111970799975097,decreament,0.6,41,standard,None,100,,,,,,,,m,33,224,fr,r,0,raw,2022-06-14_15h42.08.372,oddball,2022.1.2,59.98818222414917,
20,,,,,0,0,0,3,7,0,7,0,10,0,10,0,,,,,,,,,,,,,,,,,874.5136546003632,None,875.2140983003192,875.8138904003426,875.79706250038,877.7979618003592,None,1,0.6088885795325041,2.609802179504186,decreament,0.6,41,standard,None,100,,,,,,,,m,33,224,fr,r,0,raw,2022-06-14_15h42.08.372,oddball,2022.1.2,59.98818222414917,
20,,,,,0,0,0,3,7,0,7,0,11,0,11,0,,,,,,,,,,,,,,,,,877.8144577001221,None,878.5483103003353,879.1489041000605,879.1320449002087,881.132475499995,None,1,0.6100382800213993,2.6104138800874352,decreament,0.6,41,standard,None,100,,,,,,,,m,33,224,fr,r,0,raw,2022-06-14_15h42.08.372,oddball,2022.1.2,59.98818222414917,
20,,,,,0,0,0,3,7,0,7,0,12,0,12,0,,,,,,,,,,,,,,,,,881.1495131999254,None,881.8326735999435,882.4330686000176,882.416614100337,884.417250700295,None,1,0.6136558796279132,2.6143355797976255,decreament,0.6,41,standard,None,100,,,,,,,,m,33,224,fr,r,0,raw,2022-06-14_15h42.08.372,oddball,2022.1.2,59.98818222414917,
20,,,,,0,0,0,3,7,0,7,0,13,0,13,0,,,,,,,,,,,,,,,,,884.43435280025,None,885.1511214999482,885.7512174001895,885.7346527003683,887.7354570003226,None,1,0.6113099800422788,2.612144479993731,decreament,0.6,41,standard,None,100,,,,,,,,m,33,224,fr,r,0,raw,2022-06-14_15h42.08.372,oddball,2022.1.2,59.98818222414917,
20,,,,,0,0,0,3,7,0,7,0,14,0,14,0,,,,,,,,,,,,,,,,,887.7526994999498,None,888.4355628001504,889.0354007002898,889.0188906001858,891.0198645000346,None,1,0.6119316797703505,2.6129125799052417,decreament,0.6,41,standard,None,100,,,,,,,,m,33,224,fr,r,0,raw,2022-06-14_15h42.08.372,oddball,2022.1.2,59.98818222414917,
20,,,,,0,0,0,3,7,0,7,0,15,0,15,0,,,,,,,,,,,,,,,,,891.0361959002912,None,891.636753000319,892.2369034001604,892.2201748001389,894.2210041000508,None,1,0.6102325804531574,2.611086780205369,decreament,0.6,41,standard,None,100,,,,,,,,m,33,224,fr,r,0,raw,2022-06-14_15h42.08.372,oddball,2022.1.2,59.98818222414917,
20,,,,,0,0,0,3,7,0,7,0,16,0,16,0,,,,,,,,,,,,,,,,,894.2376898000948,None,894.8212240003049,895.4210700001568,895.4043197999708,897.4055441003293,None,1,0.6121471798978746,2.6134501798078418,decreament,0.6,41,standard,None,100,,,,,,,,m,33,224,fr,r,0,raw,2022-06-14_15h42.08.372,oddball,2022.1.2,59.98818222414917,
20,,,,,0,0,0,3,7,0,7,0,17,0,17,0,,,,,,,,,,,,,,,,,897.4221179001033,None,898.0223018000834,898.6229382003658,898.6061566001736,900.6065620002337,None,1,0.6132497796788812,2.6135829794220626,decreament,0.6,41,standard,None,100,,,,,,,,m,33,224,fr,r,0,raw,2022-06-14_15h42.08.372,oddball,2022.1.2,59.98818222414917,
20,,,,,0,0,0,3,7,0,7,0,18,0,18,0,,,,,,,,,,,,,,,,,900.6232815003023,None,901.2569464999251,901.8572448999621,901.8405756000429,903.8410692000762,None,1,0.6123082800768316,2.6127705802209675,decreament,0.6,41,standard,None,100,,,,,,,,m,33,224,fr,r,0,raw,2022-06-14_15h42.08.372,oddball,2022.1.2,59.98818222414917,
20,,,,,0,0,0,3,7,0,7,0,19,0,19,0,,,,,,,,,,,,,,,,,903.8578519001603,None,904.5584007003345,905.0417253002524,905.0250377003103,907.0256980000995,None,0,0.4946350804530084,2.495250580366701,decreament,0.48,44,oddball,j,80,,,,,,,,m,33,224,fr,r,0,raw,2022-06-14_15h42.08.372,oddball,2022.1.2,59.98818222414917,
20,,,,,0,0,0,3,7,0,7,0,20,0,20,0,,,,,,,,,,,,,,,,,907.0423215003684,None,907.7930454001762,908.392828900367,908.3759436002001,910.3767824000679,None,1,0.6099302796646953,2.6107985796406865,decreament,0.6,41,standard,None,100,,,,,,,,m,33,224,fr,r,0,raw,2022-06-14_15h42.08.372,oddball,2022.1.2,59.98818222414917,
20,,,,,0,0,0,3,7,0,7,0,21,0,21,0,,,,,,,,,,,,,,,,,910.3935769000091,None,911.0104319001548,911.6111564002931,911.5943044000305,913.5953305000439,None,1,0.6139700799249113,2.6149805802851915,decreament,0.6,41,standard,None,100,,,,,,,,m,33,224,fr,r,0,raw,2022-06-14_15h42.08.372,oddball,2022.1.2,59.98818222414917,
20,,,,,0,0,0,3,7,0,7,0,22,0,22,0,,,,,,,,,,,,,,,,,913.6114612002857,None,914.1785232000984,914.7785391001962,914.7618452999741,916.7630299003795,None,1,0.6123417797498405,2.6136079798452556,decreament,0.6,41,standard,None,100,,,,,,,,m,33,224,fr,r,0,raw,2022-06-14_15h42.08.372,oddball,2022.1.2,59.98818222414917,
20,,,,,0,0,0,3,7,0,7,0,23,0,23,0,,,,,,,,,,,,,,,,,916.779464900028,None,917.6131659001112,917.8630285002291,917.8298828001134,919.8305358001962,j,1,0.24426247971132398,2.244952879846096,decreament,0.24,42,oddball,j,40,0.7414376996457577,,,,,,,m,33,224,fr,r,0,raw,2022-06-14_15h42.08.372,oddball,2022.1.2,59.98818222414917,
20,,,,,0,0,0,3,7,0,7,0,24,0,24,0,,,,,,,,,,,,,,,,,919.8474876000546,None,920.4647089000791,921.0646820999682,921.047955899965,923.0486665000208,None,1,0.6105427797883749,2.611253979615867,decreament,0.6,41,standard,None,100,,,,,,,,m,33,224,fr,r,0,raw,2022-06-14_15h42.08.372,oddball,2022.1.2,59.98818222414917,
20,,,,,0,0,0,3,7,0,7,0,25,0,25,0,,,,,,,,,,,,,,,,,923.0662084002979,None,923.832435300108,924.4322525002062,924.4157108003274,926.4164744000882,None,1,0.610983079764992,2.611785679589957,decreament,0.6,41,standard,None,100,,,,,,,,m,33,224,fr,r,0,raw,2022-06-14_15h42.08.372,oddball,2022.1.2,59.98818222414917,
20,,,,,0,0,0,3,7,0,7,0,26,0,26,0,,,,,,,,,,,,,,,,,926.4330706000328,None,927.200111400336,927.8001240002923,927.7836847002618,929.7844131002203,None,1,0.6129506803117692,2.6137067801319063,decreament,0.6,41,standard,None,100,,,,,,,,m,33,224,fr,r,0,raw,2022-06-14_15h42.08.372,oddball,2022.1.2,59.98818222414917,
20,,,,,0,0,0,3,7,0,7,0,27,0,27,0,,,,,,,,,,,,,,,,,929.801162800286,None,930.3846774999984,930.9849270000122,930.9680183003657,932.9690710003488,None,1,0.6130479802377522,2.6141211800277233,decreament,0.6,41,standard,None,100,,,,,,,,m,33,224,fr,r,0,raw,2022-06-14_15h42.08.372,oddball,2022.1.2,59.98818222414917,
20,,,,,0,0,0,3,7,0,7,0,28,0,28,0,,,,,,,,,,,,,,,,,932.9855552003719,None,933.5856689000502,934.1858233003877,934.1693008001894,936.1700030001812,None,1,0.6122478800825775,2.6129541802220047,decreament,0.6,41,standard,None,100,,,,,,,,m,33,224,fr,r,0,raw,2022-06-14_15h42.08.372,oddball,2022.1.2,59.98818222414917,
20,,,,,0,0,0,3,7,0,7,0,29,0,29,0,,,,,,,,,,,,,,,,,936.1865987000056,None,936.8870025002398,937.4877731003799,937.4705791999586,939.4718140000477,None,1,0.6139743803068995,2.6152625801041722,decreament,0.6,41,standard,None,100,,,,,,,,m,33,224,fr,r,0,raw,2022-06-14_15h42.08.372,oddball,2022.1.2,59.98818222414917,
20,,,,,0,0,0,3,8,0,8,0,0,0,0,0,,,,,,,,,,,,,,,941.9456853000447,None,946.8742643999867,None,947.6244658003561,948.224728600122,948.2081194999628,950.2087395000271,None,1,0.61223737988621,2.6128343800082803,increament,0.6,45,standard,None,100,,939.4882507999428,None,,,,,m,33,224,fr,r,0,raw,2022-06-14_15h42.08.372,oddball,2022.1.2,59.98818222414917,
20,,,,,0,0,0,3,8,0,8,0,1,0,1,0,,,,,,,,,,,,,,,,,950.2255341000855,None,950.9923046003096,951.5924832001328,951.5758901000954,953.5767431999557,None,1,0.6137218801304698,2.614593179896474,increament,0.6,45,standard,None,100,,,,,,,,m,33,224,fr,r,0,raw,2022-06-14_15h42.08.372,oddball,2022.1.2,59.98818222414917,
20,,,,,0,0,0,3,8,0,8,0,2,0,2,0,,,,,,,,,,,,,,,,,953.5935165002011,None,954.1935928002931,954.7939960001968,954.7772306003608,956.7781072999351,None,1,0.6123695797286928,2.6132674794644117,increament,0.6,45,standard,None,100,,,,,,,,m,33,224,fr,r,0,raw,2022-06-14_15h42.08.372,oddball,2022.1.2,59.98818222414917,
20,,,,,0,0,0,3,8,0,8,0,3,0,3,0,,,,,,,,,,,,,,,,,956.7945053000003,None,957.3947115000337,957.9953350001015,957.9784138002433,959.9792452999391,None,1,0.6096908799372613,2.61056937975809,increament,0.6,45,standard,None,100,,,,,,,,m,33,224,fr,r,0,raw,2022-06-14_15h42.08.372,oddball,2022.1.2,59.98818222414917,
20,,,,,0,0,0,3,8,0,8,0,4,0,4,0,,,,,,,,,,,,,,,,,959.9960837000981,None,960.5959336999804,961.1961901001632,961.179567000363,963.1805104999803,None,1,0.6137200798839331,2.614698379766196,increament,0.6,45,standard,None,100,,,,,,,,m,33,224,fr,r,0,raw,2022-06-14_15h42.08.372,oddball,2022.1.2,59.98818222414917,
20,,,,,0,0,0,3,8,0,8,0,5,0,5,0,,,,,,,,,,,,,,,,,963.1970228999853,None,963.9139390001073,964.5146047002636,964.4981582001783,966.4982380000874,None,1,0.610110079869628,2.610154279973358,increament,0.6,45,standard,None,100,,,,,,,,m,33,224,fr,r,0,raw,2022-06-14_15h42.08.372,oddball,2022.1.2,59.98818222414917,
20,,,,,0,0,0,3,8,0,8,0,6,0,6,0,,,,,,,,,,,,,,,,,966.5152213000692,None,967.1155257001519,967.7152945003472,967.698598000221,969.6995479003526,None,1,0.6118521802127361,2.6128452802076936,increament,0.6,45,standard,None,100,,,,,,,,m,33,224,fr,r,0,raw,2022-06-14_15h42.08.372,oddball,2022.1.2,59.98818222414917,
20,,,,,0,0,0,3,8,0,8,0,7,0,7,0,,,,,,,,,,,,,,,,,969.7160859000869,None,970.3666285001673,970.96651880024,970.9500768003054,972.9506757003255,None,1,0.6115073799155653,2.6121013802476227,increament,0.6,45,standard,None,100,,,,,,,,m,33,224,fr,r,0,raw,2022-06-14_15h42.08.372,oddball,2022.1.2,59.98818222414917,
20,,,,,0,0,0,3,8,0,8,0,8,0,8,0,,,,,,,,,,,,,,,,,972.9673025002703,None,973.5179318999872,974.2515589003451,974.2180012003519,976.2189330002293,None,0,0.7281826799735427,2.7291610799729824,increament,0.72,46,oddball,j,120,,,,,,,,m,33,224,fr,r,0,raw,2022-06-14_15h42.08.372,oddball,2022.1.2,59.98818222414917,
20,,,,,0,0,0,3,8,0,8,0,9,0,9,0,,,,,,,,,,,,,,,,,976.2351693999954,None,976.8354588001966,977.4356369003654,977.4189582001418,979.4198202001862,None,1,0.6087126797065139,2.6095997798256576,increament,0.6,45,standard,None,100,,,,,,,,m,33,224,fr,r,0,raw,2022-06-14_15h42.08.372,oddball,2022.1.2,59.98818222414917,
20,,,,,0,0,0,3,8,0,8,0,10,0,10,0,,,,,,,,,,,,,,,,,979.4365759002976,None,980.0867313002236,980.6867899000645,980.670135800261,982.6711133001372,None,1,0.6121942801401019,2.613174280151725,increament,0.6,45,standard,None,100,,,,,,,,m,33,224,fr,r,0,raw,2022-06-14_15h42.08.372,oddball,2022.1.2,59.98818222414917,
20,,,,,0,0,0,3,8,0,8,0,11,0,11,0,,,,,,,,,,,,,,,,,982.6877212002873,None,983.2214276003651,983.8215051000006,983.8050236003473,985.8055674000643,None,1,0.6129121803678572,2.6134828804060817,increament,0.6,45,standard,None,100,,,,,,,,m,33,224,fr,r,0,raw,2022-06-14_15h42.08.372,oddball,2022.1.2,59.98818222414917,
20,,,,,0,0,0,3,8,0,8,0,12,0,12,0,,,,,,,,,,,,,,,,,985.822130900342,None,986.5229343003593,987.1226592999883,987.1059354003519,989.1068488000892,None,1,0.6092876801267266,2.6102068801410496,increament,0.6,45,standard,None,100,,,,,,,,m,33,224,fr,r,0,raw,2022-06-14_15h42.08.372,oddball,2022.1.2,59.98818222414917,
20,,,,,0,0,0,3,8,0,8,0,13,0,13,0,,,,,,,,,,,,,,,,,989.1236438001506,None,989.9406019002199,990.5406677001156,990.5239737001248,992.5251674000174,None,1,0.6107441801577806,2.612008980009705,increament,0.6,45,standard,None,100,,,,,,,,m,33,224,fr,r,0,raw,2022-06-14_15h42.08.372,oddball,2022.1.2,59.98818222414917,
20,,,,,0,0,0,3,8,0,8,0,14,0,14,0,,,,,,,,,,,,,,,,,992.5417156000622,None,993.1417972999625,993.9919886002317,993.9585871002637,995.9596335003152,None,0,0.8427807800471783,2.8438782799057662,increament,0.84,47,oddball,j,140,,,,,,,,m,33,224,fr,r,0,raw,2022-06-14_15h42.08.372,oddball,2022.1.2,59.98818222414917,
20,,,,,0,0,0,3,8,0,8,0,15,0,15,0,,,,,,,,,,,,,,,,,995.9768024003133,None,996.626338600181,997.2267891000956,997.2104005999863,999.2103635002859,None,1,0.6099484800361097,2.6098160799592733,increament,0.6,45,standard,None,100,,,,,,,,m,33,224,fr,r,0,raw,2022-06-14_15h42.08.372,oddball,2022.1.2,59.98818222414917,
20,,,,,0,0,0,3,8,0,8,0,16,0,16,0,,,,,,,,,,,,,,,,,999.2275173002854,None,999.7946327002719,1000.3943203003146,1000.3775132000446,1002.3790116002783,None,1,0.6099005802534521,2.6114883800037205,increament,0.6,45,standard,None,100,,,,,,,,m,33,224,fr,r,0,raw,2022-06-14_15h42.08.372,oddball,2022.1.2,59.98818222414917,
20,,,,,0,0,0,3,8,0,8,0,17,0,17,0,,,,,,,,,,,,,,,,,1002.3952985000797,None,1003.0786466002464,1003.6789780999534,1003.663160700351,1005.6630537002347,None,1,0.6129598799161613,2.612752679735422,increament,0.6,45,standard,None,100,,,,,,,,m,33,224,fr,r,0,raw,2022-06-14_15h42.08.372,oddball,2022.1.2,59.98818222414917,
20,,,,,0,0,0,3,8,0,8,0,18,0,18,0,,,,,,,,,,,,,,,,,1005.6797361001372,None,1006.313628999982,1006.9137435001321,1006.8970646001399,1008.8975223000161,None,1,0.6086485800333321,2.609075380023569,increament,0.6,45,standard,None,100,,,,,,,,m,33,224,fr,r,0,raw,2022-06-14_15h42.08.372,oddball,2022.1.2,59.98818222414917,
20,,,,,0,0,0,3,8,0,8,0,19,0,19,0,,,,,,,,,,,,,,,,,1008.9143269001506,None,1009.4812597003765,1010.0809963000938,1010.0644328999333,1012.0653932001442,None,1,0.6115103797055781,2.6124739795923233,increament,0.6,45,standard,None,100,,,,,,,,m,33,224,fr,r,0,raw,2022-06-14_15h42.08.372,oddball,2022.1.2,59.98818222414917,
20,,,,,0,0,0,3,8,0,8,0,20,0,20,0,,,,,,,,,,,,,,,,,1012.0820528999902,None,1012.7493478003889,1013.349815600086,1013.332589500118,1015.3332140003331,None,1,0.6115528801456094,2.612129480112344,increament,0.6,45,standard,None,100,,,,,,,,m,33,224,fr,r,0,raw,2022-06-14_15h42.08.372,oddball,2022.1.2,59.98818222414917,
20,,,,,0,0,0,3,8,0,8,0,21,0,21,0,,,,,,,,,,,,,,,,,1015.3499714001082,None,1016.0338002000935,1016.6339353001676,1016.6171846999787,1018.6179822999984,None,1,0.6122657796368003,2.6130557800643146,increament,0.6,45,standard,None,100,,,,,,,,m,33,224,fr,r,0,raw,2022-06-14_15h42.08.372,oddball,2022.1.2,59.98818222414917,
20,,,,,0,0,0,3,8,0,8,0,22,0,22,0,,,,,,,,,,,,,,,,,1018.6346093001775,None,1019.4014849001542,1020.0020471001044,1019.9857487003319,1021.9859178001061,None,1,0.6128011797554791,2.6129222796298563,increament,0.6,45,standard,None,100,,,,,,,,m,33,224,fr,r,0,raw,2022-06-14_15h42.08.372,oddball,2022.1.2,59.98818222414917,
20,,,,,0,0,0,3,8,0,8,0,23,0,23,0,,,,,,,,,,,,,,,,,1022.00284500001,None,1022.5695496001281,1023.5364288999699,1023.5034032999538,1025.503866800107,j,1,0.9639769801869988,2.964454479981214,increament,0.96,48,oddball,j,160,0.8592638997361064,,,,,,,m,33,224,fr,r,0,raw,2022-06-14_15h42.08.372,oddball,2022.1.2,59.98818222414917,
20,,,,,0,0,0,3,8,0,8,0,24,0,24,0,,,,,,,,,,,,,,,,,1025.520800200291,None,1026.1042762999423,1026.7047084001824,1026.6878563002683,1028.6890726001002,None,1,0.6109338798560202,2.6121847797185183,increament,0.6,45,standard,None,100,,,,,,,,m,33,224,fr,r,0,raw,2022-06-14_15h42.08.372,oddball,2022.1.2,59.98818222414917,
20,,,,,0,0,0,3,8,0,8,0,25,0,25,0,,,,,,,,,,,,,,,,,1028.706533800345,None,1029.3553359000944,1029.9559317003004,1029.938918299973,1031.9393718000501,None,1,0.6135624796152115,2.6139477798715234,increament,0.6,45,standard,None,100,,,,,,,,m,33,224,fr,r,0,raw,2022-06-14_15h42.08.372,oddball,2022.1.2,59.98818222414917,
20,,,,,0,0,0,3,8,0,8,0,26,0,26,0,,,,,,,,,,,,,,,,,1031.956091500353,None,1032.5734709999524,1033.173330700025,1033.156784400344,1035.1573347002268,None,1,0.6118440800346434,2.6123669799417257,increament,0.6,45,standard,None,100,,,,,,,,m,33,224,fr,r,0,raw,2022-06-14_15h42.08.372,oddball,2022.1.2,59.98818222414917,
20,,,,,0,0,0,3,8,0,8,0,27,0,27,0,,,,,,,,,,,,,,,,,1035.1742482003756,None,1035.9415470999666,1036.5416441000998,1036.5253083002754,1038.5258607999422,None,1,0.6107589798048139,2.6112466799095273,increament,0.6,45,standard,None,100,,,,,,,,m,33,224,fr,r,0,raw,2022-06-14_15h42.08.372,oddball,2022.1.2,59.98818222414917,
20,,,,,0,0,0,3,8,0,8,0,28,0,28,0,,,,,,,,,,,,,,,,,1038.5423135003075,None,1039.1929398002103,1039.7926146001555,1039.775923400186,1041.7767705000006,None,1,0.6092528798617423,2.610140579752624,increament,0.6,45,standard,None,100,,,,,,,,m,33,224,fr,r,0,raw,2022-06-14_15h42.08.372,oddball,2022.1.2,59.98818222414917,
20,,,,,0,0,0,3,8,0,8,0,29,0,29,0,,,,,,,,,,,,,,,,,1041.793430100195,None,1042.5275564002804,1043.127381999977,1043.1107748001814,1045.111551400274,None,1,0.6107396800071001,2.611558979842812,increament,0.6,45,standard,None,100,,,,,,,,m,33,224,fr,r,0,raw,2022-06-14_15h42.08.372,oddball,2022.1.2,59.98818222414917,
20,,,,,0,0,0,3,9,0,9,0,0,0,0,0,,,,,,,,,,,,,,,1048.7903488003649,None,1050.5467336000875,None,1051.0970887001604,1051.6975370999426,1051.6806648001075,1053.6815586001612,None,1,0.6122615803033113,2.613113480154425,decreament,0.6,41,standard,None,100,,1045.1300837001763,None,,,,,m,33,224,fr,r,0,raw,2022-06-14_15h42.08.372,oddball,2022.1.2,59.98818222414917,
20,,,,,0,0,0,3,9,0,9,0,1,0,1,0,,,,,,,,,,,,,,,,,1053.7002229001373,None,1054.3311975002289,1054.931576500181,1054.9150833999738,1056.9159558000974,None,1,0.6131506799720228,2.614096980076283,decreament,0.6,41,standard,None,100,,,,,,,,m,33,224,fr,r,0,raw,2022-06-14_15h42.08.372,oddball,2022.1.2,59.98818222414917,
20,,,,,0,0,0,3,9,0,9,0,2,0,2,0,,,,,,,,,,,,,,,,,1056.9331686999649,None,1057.5163366002962,1058.1161793000065,1058.0999660003,1060.1003837999888,None,1,0.6084771794266999,2.6088502793572843,decreament,0.6,41,standard,None,100,,,,,,,,m,33,224,fr,r,0,raw,2022-06-14_15h42.08.372,oddball,2022.1.2,59.98818222414917,
20,,,,,0,0,0,3,9,0,9,0,3,0,3,0,,,,,,,,,,,,,,,,,1060.117274499964,None,1060.650779500138,1061.2508690003306,1061.2346943002194,1063.234939600341,None,1,0.6124696801416576,2.6126805800013244,decreament,0.6,41,standard,None,100,,,,,,,,m,33,224,fr,r,0,raw,2022-06-14_15h42.08.372,oddball,2022.1.2,59.98818222414917,
20,,,,,0,0,0,3,9,0,9,0,4,0,4,0,,,,,,,,,,,,,,,,,1063.2516446001828,None,1063.8684441000223,1064.4688699999824,1064.452241900377,1066.452410900034,None,1,0.6125887800008059,2.6126841800287366,decreament,0.6,41,standard,None,100,,,,,,,,m,33,224,fr,r,0,raw,2022-06-14_15h42.08.372,oddball,2022.1.2,59.98818222414917,
20,,,,,0,0,0,3,9,0,9,0,5,0,5,0,,,,,,,,,,,,,,,,,1066.4691568999551,None,1067.1532050999813,1067.4032511003315,1067.3702540001832,1069.370445100125,j,1,0.24385297996923327,2.243983880151063,decreament,0.24,42,oddball,j,40,0.9122590995393693,,,,,,,m,33,224,fr,r,0,raw,2022-06-14_15h42.08.372,oddball,2022.1.2,59.98818222414917,
20,,,,,0,0,0,3,9,0,9,0,6,0,6,0,,,,,,,,,,,,,,,,,1069.3872222001664,None,1070.0373986000195,1070.6372955003753,1070.6206717002206,1072.6221650000662,None,1,0.6106844795867801,2.6122911795973778,decreament,0.6,41,standard,None,100,,,,,,,,m,33,224,fr,r,0,raw,2022-06-14_15h42.08.372,oddball,2022.1.2,59.98818222414917,
20,,,,,0,0,0,3,9,0,9,0,7,0,7,0,,,,,,,,,,,,,,,,,1072.6382054002024,None,1073.2889036000706,1073.8891239003278,1073.8726812000386,1075.8731623999774,None,1,0.6116615799255669,2.612104479689151,decreament,0.6,41,standard,None,100,,,,,,,,m,33,224,fr,r,0,raw,2022-06-14_15h42.08.372,oddball,2022.1.2,59.98818222414917,
20,,,,,0,0,0,3,9,0,9,0,8,0,8,0,,,,,,,,,,,,,,,,,1075.8899310003035,None,1076.6233987002634,1077.2237145002,1077.2067921999842,1079.2075831000693,None,1,0.6126563800498843,2.6134017799049616,decreament,0.6,41,standard,None,100,,,,,,,,m,33,224,fr,r,0,raw,2022-06-14_15h42.08.372,oddball,2022.1.2,59.98818222414917,
20,,,,,0,0,0,3,9,0,9,0,9,0,9,0,,,,,,,,,,,,,,,,,1079.2242976003326,None,1079.8076855000108,1080.4080051002093,1080.3913715002127,1082.3924304000102,None,1,0.6132708801887929,2.614428480155766,decreament,0.6,41,standard,None,100,,,,,,,,m,33,224,fr,r,0,raw,2022-06-14_15h42.08.372,oddball,2022.1.2,59.98818222414917,
20,,,,,0,0,0,3,9,0,9,0,10,0,10,0,,,,,,,,,,,,,,,,,1082.410193500109,None,1083.0923860999756,1083.57586370036,1083.5426167999394,1085.5436283000745,None,0,0.47918977960944176,2.4802622799761593,decreament,0.48,44,oddball,j,80,,,,,,,,m,33,224,fr,r,0,raw,2022-06-14_15h42.08.372,oddball,2022.1.2,59.98818222414917,
20,,,,,0,0,0,3,9,0,9,0,11,0,11,0,,,,,,,,,,,,,,,,,1085.560074900277,None,1086.260145700071,1086.860542899929,1086.843803100288,1088.8446507002227,None,1,0.6131874797865748,2.6140237795189023,decreament,0.6,41,standard,None,100,,,,,,,,m,33,224,fr,r,0,raw,2022-06-14_15h42.08.372,oddball,2022.1.2,59.98818222414917,
20,,,,,0,0,0,3,9,0,9,0,12,0,12,0,,,,,,,,,,,,,,,,,1088.8613063003868,None,1089.5449212002568,1090.1451262999326,1090.1288026003167,1092.1290480000898,None,1,0.6127549801021814,2.612948080059141,decreament,0.6,41,standard,None,100,,,,,,,,m,33,224,fr,r,0,raw,2022-06-14_15h42.08.372,oddball,2022.1.2,59.98818222414917,
20,,,,,0,0,0,3,9,0,9,0,13,0,13,0,,,,,,,,,,,,,,,,,1092.1459083002992,None,1092.7626364002936,1093.3631331999786,1093.3468623999506,1095.34710610006,None,1,0.6152777797542512,2.6154668796807528,decreament,0.6,41,standard,None,100,,,,,,,,m,33,224,fr,r,0,raw,2022-06-14_15h42.08.372,oddball,2022.1.2,59.98818222414917,
20,,,,,0,0,0,3,9,0,9,0,14,0,14,0,,,,,,,,,,,,,,,,,1095.363531399984,None,1096.2145366002806,1096.8142754002474,1096.797580000013,1098.7984391003847,None,1,0.6104167802259326,2.6112968800589442,decreament,0.6,41,standard,None,100,,,,,,,,m,33,224,fr,r,0,raw,2022-06-14_15h42.08.372,oddball,2022.1.2,59.98818222414917,
20,,,,,0,0,0,3,9,0,9,0,15,0,15,0,,,,,,,,,,,,,,,,,1098.815142000094,None,1099.4320595003664,1100.0325082000345,1100.015544500202,1102.016567800194,None,1,0.6100507802329957,2.611089780461043,decreament,0.6,41,standard,None,100,,,,,,,,m,33,224,fr,r,0,raw,2022-06-14_15h42.08.372,oddball,2022.1.2,59.98818222414917,
20,,,,,0,0,0,3,9,0,9,0,16,0,16,0,,,,,,,,,,,,,,,,,1102.0328255002387,None,1102.61649830034,1103.217187399976,1103.2002706001513,1105.200761999935,None,1,0.6132255797274411,2.6136418795213103,decreament,0.6,41,standard,None,100,,,,,,,,m,33,224,fr,r,0,raw,2022-06-14_15h42.08.372,oddball,2022.1.2,59.98818222414917,
20,,,,,0,0,0,3,9,0,9,0,17,0,17,0,,,,,,,,,,,,,,,,,1105.2176230000332,None,1105.734246800188,1106.3343382002786,1106.318148800172,1108.3187418002635,None,1,0.6130267800763249,2.6136834798380733,decreament,0.6,41,standard,None,100,,,,,,,,m,33,224,fr,r,0,raw,2022-06-14_15h42.08.372,oddball,2022.1.2,59.98818222414917,
20,,,,,0,0,0,3,9,0,9,0,18,0,18,0,,,,,,,,,,,,,,,,,1108.3352951002307,None,1109.1024762000889,1109.7026245002635,1109.6860569999553,1111.6865229001269,None,1,0.6127128801308572,2.6131385802291334,decreament,0.6,41,standard,None,100,,,,,,,,m,33,224,fr,r,0,raw,2022-06-14_15h42.08.372,oddball,2022.1.2,59.98818222414917,
20,,,,,0,0,0,3,9,0,9,0,19,0,19,0,,,,,,,,,,,,,,,,,1111.7034657001495,None,1112.503720300272,1113.1037294003181,1113.0876955999993,1115.0883186003193,None,1,0.6099600796587765,2.610585179645568,decreament,0.6,41,standard,None,100,,,,,,,,m,33,224,fr,r,0,raw,2022-06-14_15h42.08.372,oddball,2022.1.2,59.98818222414917,
20,,,,,0,0,0,3,9,0,9,0,20,0,20,0,,,,,,,,,,,,,,,,,1115.1044151000679,None,1115.6549033001065,1116.2548335003667,1116.2385716000572,1118.2391991000623,None,1,0.6119862799532712,2.6126041798852384,decreament,0.6,41,standard,None,100,,,,,,,,m,33,224,fr,r,0,raw,2022-06-14_15h42.08.372,oddball,2022.1.2,59.98818222414917,
20,,,,,0,0,0,3,9,0,9,0,21,0,21,0,,,,,,,,,,,,,,,,,1118.2560041001998,None,1118.872521799989,1119.4728676001541,1119.4566240003332,1121.4567158003338,None,1,0.6126287798397243,2.612612879835069,decreament,0.6,41,standard,None,100,,,,,,,,m,33,224,fr,r,0,raw,2022-06-14_15h42.08.372,oddball,2022.1.2,59.98818222414917,
20,,,,,0,0,0,3,9,0,9,0,22,0,22,0,,,,,,,,,,,,,,,,,1121.4735548002645,None,1122.2071517999284,1122.8073663003743,1122.7909948001616,1124.7914069001563,None,1,0.6126401796936989,2.6130497795529664,decreament,0.6,41,standard,None,100,,,,,,,,m,33,224,fr,r,0,raw,2022-06-14_15h42.08.372,oddball,2022.1.2,59.98818222414917,
20,,,,,0,0,0,3,9,0,9,0,23,0,23,0,,,,,,,,,,,,,,,,,1124.8083510999568,None,1125.4086322002113,1125.77521850029,1125.7417572000995,1127.7424494000152,j,1,0.360526479780674,2.361258380115032,decreament,0.36,43,oddball,j,60,1.4612401998601854,,,,,,,m,33,224,fr,r,0,raw,2022-06-14_15h42.08.372,oddball,2022.1.2,59.98818222414917,
20,,,,,0,0,0,3,9,0,9,0,24,0,24,0,,,,,,,,,,,,,,,,,1127.7594582000747,None,1128.3264278001152,1128.9265853003599,1128.9097636002116,1130.9103216002695,None,1,0.6114403796382248,2.612176879774779,decreament,0.6,41,standard,None,100,,,,,,,,m,33,224,fr,r,0,raw,2022-06-14_15h42.08.372,oddball,2022.1.2,59.98818222414917,
20,,,,,0,0,0,3,9,0,9,0,25,0,25,0,,,,,,,,,,,,,,,,,1130.9269499001093,None,1131.6108749001287,1132.2111627999693,1132.194753299933,1134.194971400313,None,1,0.6135074798949063,2.6136395796202123,decreament,0.6,41,standard,None,100,,,,,,,,m,33,224,fr,r,0,raw,2022-06-14_15h42.08.372,oddball,2022.1.2,59.98818222414917,
20,,,,,0,0,0,3,9,0,9,0,26,0,26,0,,,,,,,,,,,,,,,,,1134.2119146003388,None,1134.845301900059,1135.445668200031,1135.42925820034,1137.429958099965,None,1,0.6098850802518427,2.610660680104047,decreament,0.6,41,standard,None,100,,,,,,,,m,33,224,fr,r,0,raw,2022-06-14_15h42.08.372,oddball,2022.1.2,59.98818222414917,
20,,,,,0,0,0,3,9,0,9,0,27,0,27,0,,,,,,,,,,,,,,,,,1137.446606399957,None,1138.1468795002438,1138.7468084003776,1138.7301203999668,1140.7311881999485,None,1,0.6122555797919631,2.613378679379821,decreament,0.6,41,standard,None,100,,,,,,,,m,33,224,fr,r,0,raw,2022-06-14_15h42.08.372,oddball,2022.1.2,59.98818222414917,
20,,,,,0,0,0,3,9,0,9,0,28,0,28,0,,,,,,,,,,,,,,,,,1140.748155000154,None,1141.34812780004,1141.9478295003064,1141.9312599003315,1143.9320632000454,None,1,0.6114195799455047,2.6122063798829913,decreament,0.6,41,standard,None,100,,,,,,,,m,33,224,fr,r,0,raw,2022-06-14_15h42.08.372,oddball,2022.1.2,59.98818222414917,
20,,,,,0,0,0,3,9,0,9,0,29,0,29,0,,,,,,,,,,,,,,,,,1143.9487628000788,None,1144.5825180001557,1145.1828622003086,1145.165975900367,1147.1668657003902,None,1,0.6113709798082709,2.6122345798648894,decreament,0.6,41,standard,None,100,,,,,,,,m,33,224,fr,r,0,raw,2022-06-14_15h42.08.372,oddball,2022.1.2,59.98818222414917,
5,,,,,0,1,1,1,0,0,0,0,0,0,0,0,,,,,,,,,,,,,,,1331.5786173003726,None,1336.2383556999266,None,1336.8053067000583,1337.4055632003583,1337.3889983003028,1339.3894587000832,None,1,0.6121959802694619,2.612593080382794,increament,0.6,15,standard,None,100,,1327.2184239001945,None,1147.2098052999936,None,,,m,33,224,fr,r,0,raw,2022-06-14_15h42.08.372,oddball,2022.1.2,59.98818222414917,
5,,,,,0,1,1,1,0,0,0,0,1,0,1,0,,,,,,,,,,,,,,,,,1339.4061002000235,None,1339.972856100183,1340.5732929003425,1340.5563953001983,1342.5573794003576,None,1,0.6121533797122538,2.61316087981686,increament,0.6,15,standard,None,100,,,,,,,,m,33,224,fr,r,0,raw,2022-06-14_15h42.08.372,oddball,2022.1.2,59.98818222414917,
5,,,,,0,1,1,1,0,0,0,0,2,0,2,0,,,,,,,,,,,,,,,,,1342.574044900015,None,1343.2076179003343,1343.8082181001082,1343.7914273999631,1345.7917682002299,None,1,0.6132762804627419,2.6135629802010953,increament,0.6,15,standard,None,100,,,,,,,,m,33,224,fr,r,0,raw,2022-06-14_15h42.08.372,oddball,2022.1.2,59.98818222414917,
5,,,,,0,1,1,1,0,0,0,0,3,0,3,0,,,,,,,,,,,,,,,,,1345.8087202003226,None,1346.5090037002228,1347.109093400184,1347.0923494002782,1349.0932640000246,None,1,0.6106113805435598,2.611543780192733,increament,0.6,15,standard,None,100,,,,,,,,m,33,224,fr,r,0,raw,2022-06-14_15h42.08.372,oddball,2022.1.2,59.98818222414917,
5,,,,,0,1,1,1,0,0,0,0,4,0,4,0,,,,,,,,,,,,,,,,,1349.1098186001182,None,1349.7432999000885,1350.3435788000934,1350.3267998001538,1352.3277593003586,None,1,0.6132219797000289,2.6142385797575116,increament,0.6,15,standard,None,100,,,,,,,,m,33,224,fr,r,0,raw,2022-06-14_15h42.08.372,oddball,2022.1.2,59.98818222414917,
5,,,,,0,1,1,1,0,0,0,0,5,0,5,0,,,,,,,,,,,,,,,,,1352.34450880019,None,1353.0445240000263,1353.6447765999474,1353.6280692000873,1355.6284272000194,None,1,0.6126561798155308,2.612933380063623,increament,0.6,15,standard,None,100,,,,,,,,m,33,224,fr,r,0,raw,2022-06-14_15h42.08.372,oddball,2022.1.2,59.98818222414917,
5,,,,,0,1,1,1,0,0,0,0,6,0,6,0,,,,,,,,,,,,,,,,,1355.645245600026,None,1356.3787850001827,1356.9794817003421,1356.9629860003479,None,None,1,0.5995754799805582,2.5994770801626146,increament,0.6,15,standard,None,100,,,,,,,,m,33,224,fr,r,0,raw,2022-06-14_15h42.08.372,oddball,2022.1.2,59.98818222414917,
5,,,,,0,1,1,1,0,0,0,0,7,0,7,0,,,,,,,,,,,,,,,,,1358.9637355003506,None,1359.647115000058,1360.247278000228,1360.2308294000104,1362.2314801001921,None,1,0.6128930798731744,2.6134977801702917,increament,0.6,15,standard,None,100,,,,,,,,m,33,224,fr,r,0,raw,2022-06-14_15h42.08.372,oddball,2022.1.2,59.98818222414917,
5,,,,,0,1,1,1,0,0,0,0,8,0,8,0,,,,,,,,,,,,,,,,,1362.248202400282,None,1362.9320392999798,1363.5318023003638,1363.515304800123,1365.5159726003185,None,1,0.6117045795544982,2.612366179469973,increament,0.6,15,standard,None,100,,,,,,,,m,33,224,fr,r,0,raw,2022-06-14_15h42.08.372,oddball,2022.1.2,59.98818222414917,
5,,,,,0,1,1,1,0,0,0,0,9,0,9,0,,,,,,,,,,,,,,,,,1365.5326897003688,None,1366.133012600243,1366.7330335001461,1366.7162606003694,1368.717021800112,None,1,0.6122506796382368,2.613025979604572,increament,0.6,15,standard,None,100,,,,,,,,m,33,224,fr,r,0,raw,2022-06-14_15h42.08.372,oddball,2022.1.2,59.98818222414917,
5,,,,,0,1,1,1,0,0,0,0,10,0,10,0,,,,,,,,,,,,,,,,,1368.7341575999744,None,1369.3844169001095,1370.3514388999902,1370.3179509001784,1372.318885100074,j,1,0.9633341799490154,2.9643113799393177,increament,0.96,18,oddball,j,160,0.6107149994932115,,,,,,,m,33,224,fr,r,0,raw,2022-06-14_15h42.08.372,oddball,2022.1.2,59.98818222414917,
5,,,,,0,1,1,1,0,0,0,0,11,0,11,0,,,,,,,,,,,,,,,,,1372.3350722002797,None,1373.0693018999882,1373.6692558000796,1373.652813800145,1375.6536904000677,None,1,0.6105719800107181,2.611425079870969,increament,0.6,15,standard,None,100,,,,,,,,m,33,224,fr,r,0,raw,2022-06-14_15h42.08.372,oddball,2022.1.2,59.98818222414917,
5,,,,,0,1,1,1,0,0,0,0,12,0,12,0,,,,,,,,,,,,,,,,,1375.6701147002168,None,1376.4038261999376,1377.0038834000006,1376.9869789001532,1378.9883306003176,None,1,0.611272279638797,2.612726479768753,increament,0.6,15,standard,None,100,,,,,,,,m,33,224,fr,r,0,raw,2022-06-14_15h42.08.372,oddball,2022.1.2,59.98818222414917,
5,,,,,0,1,1,1,0,0,0,0,13,0,13,0,,,,,,,,,,,,,,,,,1379.0060785999522,None,1379.5380823002197,1380.1381368003786,1380.1216017999686,1382.1222292003222,None,1,0.6126094795763493,2.613258179742843,increament,0.6,15,standard,None,100,,,,,,,,m,33,224,fr,r,0,raw,2022-06-14_15h42.08.372,oddball,2022.1.2,59.98818222414917,
