grating_freq,blocks_prac.thisRepN,blocks_prac.thisTrialN,blocks_prac.thisN,blocks_prac.thisIndex,blocks.thisRepN,blocks.thisTrialN,blocks.thisN,blocks.thisIndex,repeat_freq.thisRepN,repeat_freq.thisTrialN,repeat_freq.thisN,repeat_freq.thisIndex,trials.thisRepN,trials.thisTrialN,trials.thisN,trials.thisIndex,break_loop.thisRepN,break_loop.thisTrialN,break_loop.thisN,break_loop.thisIndex,rest_loop.thisRepN,rest_loop.thisTrialN,rest_loop.thisN,rest_loop.thisIndex,instruct_prac_text.started,instruct_prac_text.stopped,b_instruct_text_2_.started,b_instruct_text_2_.stopped,prac_done_text.started,prac_done_text.stopped,instruct_text.started,instruct_text.stopped,fixation.started,fixation.stopped,grating.started,grating.stopped,blank.started,blank.stopped,resp.keys,resp.corr,resp.started,resp.stopped,direction,duration,trigger,stim_type,corr_ans,scaling,resp.rt,rest_text.started,rest_text.stopped,text_2.started,text_2.stopped,thx_txt.started,thx_txt.stopped,gender,age,participant,language,main_hand,nBlock_prac,file_suffix,date,expName,psychopyVersion,frameRate,
0,,,,,0,0,0,0,0,0,0,0,0,0,0,0,,,,,,,,,20.63126270007342,None,32.91812869999558,None,35.9355945000425,None,46.918108800426126,None,51.35793159995228,None,52.09408350009471,52.708495300263166,52.65886600036174,54.65919969975948,None,1,0.6124111991375685,2.612640499137342,increament,0.6,5,standard,None,100,,,,,,,,f,23,227,fr,r,0,raw,2022-07-05_10h29.15.215,oddball,2022.1.2,59.917517489338074,
0,,,,,0,0,0,0,0,0,0,0,1,0,1,0,,,,,,,,,,,,,,,,,54.6758719002828,None,55.27684279996902,55.8765904000029,55.85997449979186,57.86050960049033,None,1,0.6091387998312712,2.609676499851048,increament,0.6,5,standard,None,100,,,,,,,,f,23,227,fr,r,0,raw,2022-07-05_10h29.15.215,oddball,2022.1.2,59.917517489338074,
0,,,,,0,0,0,0,0,0,0,0,2,0,2,0,,,,,,,,,,,,,,,,,57.87741199973971,None,58.527519799768925,59.12758390046656,59.11137489974499,61.11189869977534,None,1,0.6131523996591568,2.6136062992736697,increament,0.6,5,standard,None,100,,,,,,,,f,23,227,fr,r,0,raw,2022-07-05_10h29.15.215,oddball,2022.1.2,59.917517489338074,
0,,,,,0,0,0,0,0,0,0,0,3,0,3,0,,,,,,,,,,,,,,,,,61.12846980057657,None,61.67920960020274,62.278919599950314,62.26235119998455,64.26317080017179,None,1,0.6100598992779851,2.611051498912275,increament,0.6,5,standard,None,100,,,,,,,,f,23,227,fr,r,0,raw,2022-07-05_10h29.15.215,oddball,2022.1.2,59.917517489338074,
0,,,,,0,0,0,0,0,0,0,0,4,0,4,0,,,,,,,,,,,,,,,,,64.2796654002741,None,64.96345399972051,65.56357999984175,65.54689550027251,67.54728149995208,None,1,0.6138041000813246,2.6141432002186775,increament,0.6,5,standard,None,100,,,,,,,,f,23,227,fr,r,0,raw,2022-07-05_10h29.15.215,oddball,2022.1.2,59.917517489338074,
0,,,,,0,0,0,0,0,0,0,0,5,0,5,0,,,,,,,,,,,,,,,,,67.56408040039241,None,68.13134189974517,68.73155719973147,68.7147551998496,70.71558240056038,None,1,0.6108861993998289,2.6117695989087224,increament,0.6,5,standard,None,100,,,,,,,,f,23,227,fr,r,0,raw,2022-07-05_10h29.15.215,oddball,2022.1.2,59.917517489338074,
0,,,,,0,0,0,0,0,0,0,0,6,0,6,0,,,,,,,,,,,,,,,,,70.73237290047109,None,71.39936619997025,71.99954290036112,71.98248430062085,73.98348420020193,None,1,0.6093065999448299,2.6103464998304844,increament,0.6,5,standard,None,100,,,,,,,,f,23,227,fr,r,0,raw,2022-07-05_10h29.15.215,oddball,2022.1.2,59.917517489338074,
0,,,,,0,0,0,0,0,0,0,0,7,0,7,0,,,,,,,,,,,,,,,,,74.00043589994311,None,74.5669160997495,75.16722000017762,75.15035220049322,77.15137969981879,None,1,0.6130275996401906,2.6141076991334558,increament,0.6,5,standard,None,100,,,,,,,,f,23,227,fr,r,0,raw,2022-07-05_10h29.15.215,oddball,2022.1.2,59.917517489338074,
0,,,,,0,0,0,0,0,0,0,0,8,0,8,0,,,,,,,,,,,,,,,,,77.16807200014591,None,77.73469270020723,78.33504249993712,78.31837380025536,80.3191002998501,None,1,0.610734099522233,2.611507600173354,increament,0.6,5,standard,None,100,,,,,,,,f,23,227,fr,r,0,raw,2022-07-05_10h29.15.215,oddball,2022.1.2,59.917517489338074,
0,,,,,0,0,0,0,0,0,0,0,9,0,9,0,,,,,,,,,,,,,,,,,80.33611739985645,None,80.85287570022047,81.45303179975599,81.43654889985919,83.4372434001416,None,1,0.6122237993404269,2.612956299446523,increament,0.6,5,standard,None,100,,,,,,,,f,23,227,fr,r,0,raw,2022-07-05_10h29.15.215,oddball,2022.1.2,59.917517489338074,
0,,,,,0,0,0,0,0,0,0,0,10,0,10,0,,,,,,,,,,,,,,,,,83.4538382999599,None,84.10430730041116,85.07086830027401,85.03759070020169,87.03834210056812,j,1,0.9613908994942904,2.962177399545908,increament,0.96,8,oddball,j,160,0.34910829924046993,,,,,,,f,23,227,fr,r,0,raw,2022-07-05_10h29.15.215,oddball,2022.1.2,59.917517489338074,
0,,,,,0,0,0,0,0,0,0,0,11,0,11,0,,,,,,,,,,,,,,,,,87.0550522999838,None,87.68869350012392,88.28890210017562,88.27221660036594,90.27294209972024,None,1,0.6126719005405903,2.613442700356245,increament,0.6,5,standard,None,100,,,,,,,,f,23,227,fr,r,0,raw,2022-07-05_10h29.15.215,oddball,2022.1.2,59.917517489338074,
0,,,,,0,0,0,0,0,0,0,0,12,0,12,0,,,,,,,,,,,,,,,,,90.28963739983737,None,91.00675799977034,91.6070984005928,91.59012349974364,93.59111210051924,None,1,0.6132118999958038,2.6142175998538733,increament,0.6,5,standard,None,100,,,,,,,,f,23,227,fr,r,0,raw,2022-07-05_10h29.15.215,oddball,2022.1.2,59.917517489338074,
0,,,,,0,0,0,0,0,0,0,0,13,0,13,0,,,,,,,,,,,,,,,,,93.6073730001226,None,94.17436200007796,94.77436759974808,94.75758230034262,96.75892269983888,None,1,0.6124125989153981,2.6138335997238755,increament,0.6,5,standard,None,100,,,,,,,,f,23,227,fr,r,0,raw,2022-07-05_10h29.15.215,oddball,2022.1.2,59.917517489338074,
0,,,,,0,0,0,0,0,0,0,0,14,0,14,0,,,,,,,,,,,,,,,,,96.77501939982176,None,97.3093918999657,97.90901099983603,97.89239150006324,99.893410500139,None,1,0.6121145999059081,2.613209099508822,increament,0.6,5,standard,None,100,,,,,,,,f,23,227,fr,r,0,raw,2022-07-05_10h29.15.215,oddball,2022.1.2,59.917517489338074,
0,,,,,0,0,0,0,0,0,0,0,15,0,15,0,,,,,,,,,,,,,,,,,99.9096547998488,None,100.6101948004216,101.21008560061455,101.19355230033398,103.19403810054064,None,1,0.6107339998707175,2.6112131997942924,increament,0.6,5,standard,None,100,,,,,,,,f,23,227,fr,r,0,raw,2022-07-05_10h29.15.215,oddball,2022.1.2,59.917517489338074,
0,,,,,0,0,0,0,0,0,0,0,16,0,16,0,,,,,,,,,,,,,,,,,103.21079349983484,None,103.8612879998982,104.46138599980623,104.44486299995333,106.44579540006816,None,1,0.6133368005976081,2.6143281999975443,increament,0.6,5,standard,None,100,,,,,,,,f,23,227,fr,r,0,raw,2022-07-05_10h29.15.215,oddball,2022.1.2,59.917517489338074,
0,,,,,0,0,0,0,0,0,0,0,17,0,17,0,,,,,,,,,,,,,,,,,106.46275760047138,None,107.2628474002704,107.86283410061151,107.84612669982016,109.84693390037864,None,1,0.612991800531745,2.6137924008071423,increament,0.6,5,standard,None,100,,,,,,,,f,23,227,fr,r,0,raw,2022-07-05_10h29.15.215,oddball,2022.1.2,59.917517489338074,
0,,,,,0,0,0,0,0,0,0,0,18,0,18,0,,,,,,,,,,,,,,,,,109.86382560059428,None,110.53047879971564,111.13060020003468,111.11401559971273,113.11456879973412,None,1,0.6126300999894738,2.6131568998098373,increament,0.6,5,standard,None,100,,,,,,,,f,23,227,fr,r,0,raw,2022-07-05_10h29.15.215,oddball,2022.1.2,59.917517489338074,
0,,,,,0,0,0,0,0,0,0,0,19,0,19,0,,,,,,,,,,,,,,,,,113.13156449981034,None,113.69820770062506,114.43240839987993,114.39903550036252,116.39938590023667,None,0,0.7295866990461946,2.729882799088955,increament,0.72,6,oddball,j,120,,,,,,,,f,23,227,fr,r,0,raw,2022-07-05_10h29.15.215,oddball,2022.1.2,59.917517489338074,
0,,,,,0,0,0,0,0,0,0,0,20,0,20,0,,,,,,,,,,,,,,,,,116.4163532005623,None,116.96639890037477,117.56652680039406,117.55004910007119,119.55050029978156,None,1,0.6124349003657699,2.61281940061599,increament,0.6,5,standard,None,100,,,,,,,,f,23,227,fr,r,0,raw,2022-07-05_10h29.15.215,oddball,2022.1.2,59.917517489338074,
0,,,,,0,0,0,0,0,0,0,0,21,0,21,0,,,,,,,,,,,,,,,,,119.56720279995352,None,120.45145540032536,121.05121130030602,121.03446500003338,123.03517489973456,None,1,0.6104550007730722,2.611147000454366,increament,0.6,5,standard,None,100,,,,,,,,f,23,227,fr,r,0,raw,2022-07-05_10h29.15.215,oddball,2022.1.2,59.917517489338074,
0,,,,,0,0,0,0,0,0,0,0,22,0,22,0,,,,,,,,,,,,,,,,,123.05196710024029,None,123.61914299987257,124.21904450003058,124.20242330059409,126.20357650052756,None,1,0.6123305996879935,2.6135873002931476,increament,0.6,5,standard,None,100,,,,,,,,f,23,227,fr,r,0,raw,2022-07-05_10h29.15.215,oddball,2022.1.2,59.917517489338074,
0,,,,,0,0,0,0,0,0,0,0,23,0,23,0,,,,,,,,,,,,,,,,,126.22181669995189,None,126.82003699988127,127.42032890021801,127.40361789986491,129.40431350003928,None,1,0.6133552994579077,2.614066299982369,increament,0.6,5,standard,None,100,,,,,,,,f,23,227,fr,r,0,raw,2022-07-05_10h29.15.215,oddball,2022.1.2,59.917517489338074,
0,,,,,0,0,0,0,0,0,0,0,24,0,24,0,,,,,,,,,,,,,,,,,129.4214914003387,None,130.08813779987395,130.68803870026022,130.67170710023493,132.67216320056468,None,1,0.6119376998394728,2.612347399815917,increament,0.6,5,standard,None,100,,,,,,,,f,23,227,fr,r,0,raw,2022-07-05_10h29.15.215,oddball,2022.1.2,59.917517489338074,
0,,,,,0,0,0,0,0,0,0,0,25,0,25,0,,,,,,,,,,,,,,,,,132.68897360004485,None,133.42258390039206,134.02296420000494,134.00639780052006,136.0068075004965,None,1,0.6129584992304444,2.613261799328029,increament,0.6,5,standard,None,100,,,,,,,,f,23,227,fr,r,0,raw,2022-07-05_10h29.15.215,oddball,2022.1.2,59.917517489338074,
0,,,,,0,0,0,0,0,0,0,0,26,0,26,0,,,,,,,,,,,,,,,,,136.02364469971508,None,136.82406510040164,137.4241682002321,137.4073147000745,139.40797349996865,None,1,0.610105499625206,2.610759899020195,increament,0.6,5,standard,None,100,,,,,,,,f,23,227,fr,r,0,raw,2022-07-05_10h29.15.215,oddball,2022.1.2,59.917517489338074,
0,,,,,0,0,0,0,0,0,0,0,27,0,27,0,,,,,,,,,,,,,,,,,139.42460720054805,None,140.05843290034682,140.65859560016543,140.64197390060872,142.64261450059712,None,1,0.6127223996445537,2.6132988994941115,increament,0.6,5,standard,None,100,,,,,,,,f,23,227,fr,r,0,raw,2022-07-05_10h29.15.215,oddball,2022.1.2,59.917517489338074,
0,,,,,0,0,0,0,0,0,0,0,28,0,28,0,,,,,,,,,,,,,,,,,142.6594968000427,None,143.2929223002866,144.14315029978752,144.11016860045493,146.11051040049642,j,1,0.844056099653244,2.844327799975872,increament,0.84,7,oddball,j,140,0.5172012001276016,,,,,,,f,23,227,fr,r,0,raw,2022-07-05_10h29.15.215,oddball,2022.1.2,59.917517489338074,
0,,,,,0,0,0,0,0,0,0,0,29,0,29,0,,,,,,,,,,,,,,,,,146.12759899999946,None,146.877906200476,147.47782510053366,147.46164060011506,149.4618902998045,None,1,0.6115408996120095,2.611764599569142,increament,0.6,5,standard,None,100,,,,,,,,f,23,227,fr,r,0,raw,2022-07-05_10h29.15.215,oddball,2022.1.2,59.917517489338074,
0,,,,,0,0,0,0,1,0,1,0,0,0,0,0,,,,,,,,,,,,,,,153.34695740044117,None,156.89798890054226,None,157.4153754003346,158.01518139988184,157.9984363997355,159.99942860007286,None,1,0.6079584993422031,2.609031199477613,decreament,0.6,1,standard,None,100,,149.4788001999259,None,,,,,f,23,227,fr,r,0,raw,2022-07-05_10h29.15.215,oddball,2022.1.2,59.917517489338074,
0,,,,,0,0,0,0,1,0,1,0,1,0,1,0,,,,,,,,,,,,,,,,,160.0158631997183,None,160.71614900045097,161.31623550038785,161.2997403005138,163.30046750046313,None,1,0.6122468011453748,2.613021801225841,decreament,0.6,1,standard,None,100,,,,,,,,f,23,227,fr,r,0,raw,2022-07-05_10h29.15.215,oddball,2022.1.2,59.917517489338074,
0,,,,,0,0,0,0,1,0,1,0,2,0,2,0,,,,,,,,,,,,,,,,,163.31756930053234,None,164.05081699974835,164.65115180052817,164.63429620023817,166.6354768006131,None,1,0.6118824994191527,2.613111099228263,decreament,0.6,1,standard,None,100,,,,,,,,f,23,227,fr,r,0,raw,2022-07-05_10h29.15.215,oddball,2022.1.2,59.917517489338074,
0,,,,,0,0,0,0,1,0,1,0,3,0,3,0,,,,,,,,,,,,,,,,,166.6518815997988,None,167.4023233000189,168.0022426005453,167.98583769984543,169.98657710012048,None,1,0.6110097002238035,2.6116647999733686,decreament,0.6,1,standard,None,100,,,,,,,,f,23,227,fr,r,0,raw,2022-07-05_10h29.15.215,oddball,2022.1.2,59.917517489338074,
0,,,,,0,0,0,0,1,0,1,0,4,0,4,0,,,,,,,,,,,,,,,,,170.0032585002482,None,170.5697207003832,171.17032499983907,171.1535296998918,173.15424640011042,None,1,0.613280400633812,2.6139530008658767,decreament,0.6,1,standard,None,100,,,,,,,,f,23,227,fr,r,0,raw,2022-07-05_10h29.15.215,oddball,2022.1.2,59.917517489338074,
0,,,,,0,0,0,0,1,0,1,0,5,0,5,0,,,,,,,,,,,,,,,,,173.17081669997424,None,173.77102060057223,174.37164469994605,174.3549664998427,176.3553371001035,None,1,0.6131843002513051,2.6134938998147845,decreament,0.6,1,standard,None,100,,,,,,,,f,23,227,fr,r,0,raw,2022-07-05_10h29.15.215,oddball,2022.1.2,59.917517489338074,
0,,,,,0,0,0,0,1,0,1,0,6,0,6,0,,,,,,,,,,,,,,,,,176.37192170042545,None,177.10582070052624,177.70616560056806,177.68989809975028,179.6902775997296,None,1,0.6137333996593952,2.614089099690318,decreament,0.6,1,standard,None,100,,,,,,,,f,23,227,fr,r,0,raw,2022-07-05_10h29.15.215,oddball,2022.1.2,59.917517489338074,
0,,,,,0,0,0,0,1,0,1,0,7,0,7,0,,,,,,,,,,,,,,,,,179.70773939974606,None,180.44068800006062,181.04080010019243,181.02381379995495,183.02451109979302,None,1,0.609439599327743,2.610099899582565,decreament,0.6,1,standard,None,100,,,,,,,,f,23,227,fr,r,0,raw,2022-07-05_10h29.15.215,oddball,2022.1.2,59.917517489338074,
0,,,,,0,0,0,0,1,0,1,0,8,0,8,0,,,,,,,,,,,,,,,,,183.04125490039587,None,183.7249507997185,184.20845090039074,184.17502580024302,186.17591220047325,j,1,0.4948861999437213,2.4957327004522085,decreament,0.48,4,oddball,j,80,0.5240057995542884,,,,,,,f,23,227,fr,r,0,raw,2022-07-05_10h29.15.215,oddball,2022.1.2,59.917517489338074,
0,,,,,0,0,0,0,1,0,1,0,9,0,9,0,,,,,,,,,,,,,,,,,186.20912879984826,None,186.9428006997332,187.54315530043095,187.52639990020543,189.52720659971237,None,1,0.6134709985926747,2.6142544988542795,decreament,0.6,1,standard,None,100,,,,,,,,f,23,227,fr,r,0,raw,2022-07-05_10h29.15.215,oddball,2022.1.2,59.917517489338074,
0,,,,,0,0,0,0,1,0,1,0,10,0,10,0,,,,,,,,,,,,,,,,,189.54397770017385,None,190.12748740054667,190.72757400013506,190.71095550060272,192.7116504004225,None,1,0.611200999468565,2.6119163995608687,decreament,0.6,1,standard,None,100,,,,,,,,f,23,227,fr,r,0,raw,2022-07-05_10h29.15.215,oddball,2022.1.2,59.917517489338074,
0,,,,,0,0,0,0,1,0,1,0,11,0,11,0,,,,,,,,,,,,,,,,,192.7289455998689,None,193.3620426999405,193.96244500018656,193.94578399974853,195.94617180060595,None,1,0.6120802005752921,2.612448200583458,decreament,0.6,1,standard,None,100,,,,,,,,f,23,227,fr,r,0,raw,2022-07-05_10h29.15.215,oddball,2022.1.2,59.917517489338074,
0,,,,,0,0,0,0,1,0,1,0,12,0,12,0,,,,,,,,,,,,,,,,,195.96279420051724,None,196.579785999842,197.18001910019666,197.16351720038801,199.164129300043,j,0,0.6124796001240611,2.6131162997335196,decreament,0.6,1,standard,None,100,0.7350674998015165,,,,,,,f,23,227,fr,r,0,raw,2022-07-05_10h29.15.215,oddball,2022.1.2,59.917517489338074,
0,,,,,0,0,0,0,1,0,1,0,13,0,13,0,,,,,,,,,,,,,,,,,199.18083319999278,None,199.8477181000635,200.44786430057138,200.4315662998706,202.43205650057644,None,1,0.6131352996453643,2.613662799820304,decreament,0.6,1,standard,None,100,,,,,,,,f,23,227,fr,r,0,raw,2022-07-05_10h29.15.215,oddball,2022.1.2,59.917517489338074,
0,,,,,0,0,0,0,1,0,1,0,14,0,14,0,,,,,,,,,,,,,,,,,202.448756900616,None,203.03223010059446,203.63226410001516,203.6157395998016,205.61667750030756,j,0,0.6125366007909179,2.6134918006137013,decreament,0.6,1,standard,None,100,0.6917412998154759,,,,,,,f,23,227,fr,r,0,raw,2022-07-05_10h29.15.215,oddball,2022.1.2,59.917517489338074,
0,,,,,0,0,0,0,1,0,1,0,15,0,15,0,,,,,,,,,,,,,,,,,205.63312340062112,None,206.41676410008222,207.0169216999784,207.0005641002208,209.00099739991128,None,1,0.6120782000944018,2.6124617997556925,decreament,0.6,1,standard,None,100,,,,,,,,f,23,227,fr,r,0,raw,2022-07-05_10h29.15.215,oddball,2022.1.2,59.917517489338074,
0,,,,,0,0,0,0,1,0,1,0,16,0,16,0,,,,,,,,,,,,,,,,,209.01764519978315,None,209.75144440028816,210.0014425003901,209.968540600501,211.96895950008184,j,1,0.24626529961824417,2.246618499048054,decreament,0.24,2,oddball,j,40,0.5943431993946433,,,,,,,f,23,227,fr,r,0,raw,2022-07-05_10h29.15.215,oddball,2022.1.2,59.917517489338074,
0,,,,,0,0,0,0,1,0,1,0,17,0,17,0,,,,,,,,,,,,,,,,,211.98565630055964,None,212.6524620000273,213.25280370004475,213.23636290058494,215.2366912001744,None,1,0.6130617000162601,2.6133203003555536,decreament,0.6,1,standard,None,100,,,,,,,,f,23,227,fr,r,0,raw,2022-07-05_10h29.15.215,oddball,2022.1.2,59.917517489338074,
0,,,,,0,0,0,0,1,0,1,0,18,0,18,0,,,,,,,,,,,,,,,,,215.25325720012188,None,215.8201854005456,216.420552900061,216.4040611004457,218.40486830007285,None,1,0.613739799708128,2.6146275997161865,decreament,0.6,1,standard,None,100,,,,,,,,f,23,227,fr,r,0,raw,2022-07-05_10h29.15.215,oddball,2022.1.2,59.917517489338074,
0,,,,,0,0,0,0,1,0,1,0,19,0,19,0,,,,,,,,,,,,,,,,,218.4226957000792,None,219.22163949999958,219.82181150000542,219.80557399988174,221.8058433998376,None,1,0.6126029994338751,2.612831499427557,decreament,0.6,1,standard,None,100,,,,,,,,f,23,227,fr,r,0,raw,2022-07-05_10h29.15.215,oddball,2022.1.2,59.917517489338074,
0,,,,,0,0,0,0,1,0,1,0,20,0,20,0,,,,,,,,,,,,,,,,,221.82253840006888,None,222.42263390030712,223.02298100013286,223.00675890035927,225.00728560052812,j,0,0.6106421994045377,2.6111856987699866,decreament,0.6,1,standard,None,100,0.5405783001333475,,,,,,,f,23,227,fr,r,0,raw,2022-07-05_10h29.15.215,oddball,2022.1.2,59.917517489338074,
0,,,,,0,0,0,0,1,0,1,0,21,0,21,0,,,,,,,,,,,,,,,,,225.02384050004184,None,225.90753389988095,226.50779130030423,226.49127960018814,228.49185580015182,None,1,0.613468199968338,2.614053599536419,decreament,0.6,1,standard,None,100,,,,,,,,f,23,227,fr,r,0,raw,2022-07-05_10h29.15.215,oddball,2022.1.2,59.917517489338074,
0,,,,,0,0,0,0,1,0,1,0,22,0,22,0,,,,,,,,,,,,,,,,,228.50836580060422,None,229.092035099864,229.69223630055785,229.67577309999615,231.67619260028005,j,0,0.6122273998335004,2.6126170000061393,decreament,0.6,1,standard,None,100,0.447601200081408,,,,,,,f,23,227,fr,r,0,raw,2022-07-05_10h29.15.215,oddball,2022.1.2,59.917517489338074,
0,,,,,0,0,0,0,1,0,1,0,23,0,23,0,,,,,,,,,,,,,,,,,231.69278000015765,None,232.26001370046288,232.86019590031356,232.8435372998938,234.8443521000445,None,1,0.6123591000214219,2.613254100084305,decreament,0.6,1,standard,None,100,,,,,,,,f,23,227,fr,r,0,raw,2022-07-05_10h29.15.215,oddball,2022.1.2,59.917517489338074,
0,,,,,0,0,0,0,1,0,1,0,24,0,24,0,,,,,,,,,,,,,,,,,234.86080130003393,None,235.6112521002069,236.21187959983945,236.19505870062858,238.19545520003885,None,1,0.6139198997989297,2.6143004996702075,decreament,0.6,1,standard,None,100,,,,,,,,f,23,227,fr,r,0,raw,2022-07-05_10h29.15.215,oddball,2022.1.2,59.917517489338074,
0,,,,,0,0,0,0,1,0,1,0,25,0,25,0,,,,,,,,,,,,,,,,,238.21244250051677,None,238.84556530043483,239.2125204000622,239.17936640046537,241.18010010011494,j,1,0.3642688002437353,2.3649915996938944,decreament,0.36,3,oddball,j,60,0.5438644997775555,,,,,,,f,23,227,fr,r,0,raw,2022-07-05_10h29.15.215,oddball,2022.1.2,59.917517489338074,
0,,,,,0,0,0,0,1,0,1,0,26,0,26,0,,,,,,,,,,,,,,,,,241.1965151997283,None,241.78019469976425,242.3806169005111,242.3637041999027,244.3648816999048,None,1,0.6139781000092626,2.615212599746883,decreament,0.6,1,standard,None,100,,,,,,,,f,23,227,fr,r,0,raw,2022-07-05_10h29.15.215,oddball,2022.1.2,59.917517489338074,
0,,,,,0,0,0,0,1,0,1,0,27,0,27,0,,,,,,,,,,,,,,,,,244.38140249997377,None,244.99811840057373,245.59815840050578,245.58146550040692,247.58229149971157,None,1,0.6128437994047999,2.613664299249649,decreament,0.6,1,standard,None,100,,,,,,,,f,23,227,fr,r,0,raw,2022-07-05_10h29.15.215,oddball,2022.1.2,59.917517489338074,
0,,,,,0,0,0,0,1,0,1,0,28,0,28,0,,,,,,,,,,,,,,,,,247.59895099978894,None,248.3824915997684,248.9827147005126,248.9665874997154,250.96696790028363,None,1,0.6149610998108983,2.6153926998376846,decreament,0.6,1,standard,None,100,,,,,,,,f,23,227,fr,r,0,raw,2022-07-05_10h29.15.215,oddball,2022.1.2,59.917517489338074,
0,,,,,0,0,0,0,1,0,1,0,29,0,29,0,,,,,,,,,,,,,,,,,250.98385069984943,None,251.70068650040776,252.30070929974318,252.28417319990695,254.28485899977386,None,1,0.611170900054276,2.61183699965477,decreament,0.6,1,standard,None,100,,,,,,,,f,23,227,fr,r,0,raw,2022-07-05_10h29.15.215,oddball,2022.1.2,59.917517489338074,
0,,,,,0,0,0,0,2,0,2,0,0,0,0,0,,,,,,,,,,,,,,,259.67290070001036,None,261.30427279975265,None,261.9047929001972,262.5049764998257,262.48859070055187,264.4886448001489,None,1,0.6087975995615125,2.6087959995493293,increament,0.6,5,standard,None,100,,254.30183199979365,None,,,,,f,23,227,fr,r,0,raw,2022-07-05_10h29.15.215,oddball,2022.1.2,59.917517489338074,
0,,,,,0,0,0,0,2,0,2,0,1,0,1,0,,,,,,,,,,,,,,,,,264.5057163005695,None,265.10568120051175,265.706153200008,265.6893696002662,267.6901743998751,None,1,0.612509099766612,2.613294499926269,increament,0.6,5,standard,None,100,,,,,,,,f,23,227,fr,r,0,raw,2022-07-05_10h29.15.215,oddball,2022.1.2,59.917517489338074,
0,,,,,0,0,0,0,2,0,2,0,2,0,2,0,,,,,,,,,,,,,,,,,267.7068460006267,None,268.357193400152,268.95746480021626,268.94088750053197,270.9413256999105,None,1,0.6132761985063553,2.6138011990115047,increament,0.6,5,standard,None,100,,,,,,,,f,23,227,fr,r,0,raw,2022-07-05_10h29.15.215,oddball,2022.1.2,59.917517489338074,
0,,,,,0,0,0,0,2,0,2,0,3,0,3,0,,,,,,,,,,,,,,,,,270.95815640036017,None,271.524964899756,272.1250969003886,272.10837609972805,274.10911369975656,None,1,0.6125143999233842,2.613230099901557,increament,0.6,5,standard,None,100,,,,,,,,f,23,227,fr,r,0,raw,2022-07-05_10h29.15.215,oddball,2022.1.2,59.917517489338074,
0,,,,,0,0,0,0,2,0,2,0,4,0,4,0,,,,,,,,,,,,,,,,,274.1259778002277,None,274.77602140046656,275.37629390042275,275.35956030059606,277.36059860046953,None,1,0.6126155992969871,2.613706799224019,increament,0.6,5,standard,None,100,,,,,,,,f,23,227,fr,r,0,raw,2022-07-05_10h29.15.215,oddball,2022.1.2,59.917517489338074,
0,,,,,0,0,0,0,2,0,2,0,5,0,5,0,,,,,,,,,,,,,,,,,277.37809030059725,None,277.91050900053233,278.5108083002269,278.4940937999636,280.4949505003169,None,1,0.6135813994333148,2.6144935991615057,increament,0.6,5,standard,None,100,,,,,,,,f,23,227,fr,r,0,raw,2022-07-05_10h29.15.215,oddball,2022.1.2,59.917517489338074,
0,,,,,0,0,0,0,2,0,2,0,6,0,6,0,,,,,,,,,,,,,,,,,280.5118607003242,None,281.12878220062703,281.72916430048645,281.7121815998107,283.7127171000466,None,1,0.6094105998054147,2.609874199144542,increament,0.6,5,standard,None,100,,,,,,,,f,23,227,fr,r,0,raw,2022-07-05_10h29.15.215,oddball,2022.1.2,59.917517489338074,
0,,,,,0,0,0,0,2,0,2,0,7,0,7,0,,,,,,,,,,,,,,,,,283.7293346999213,None,284.37969920039177,284.98000549990684,284.96330610010773,286.96410510037094,j,0,0.6121062999591231,2.612903899513185,increament,0.6,5,standard,None,100,0.5511881997808814,,,,,,,f,23,227,fr,r,0,raw,2022-07-05_10h29.15.215,oddball,2022.1.2,59.917517489338074,
0,,,,,0,0,0,0,2,0,2,0,8,0,8,0,,,,,,,,,,,,,,,,,286.98063600063324,None,287.6643340000883,288.2644956000149,288.24788659997284,290.2486564004794,None,1,0.6137946005910635,2.6145270001143217,increament,0.6,5,standard,None,100,,,,,,,,f,23,227,fr,r,0,raw,2022-07-05_10h29.15.215,oddball,2022.1.2,59.917517489338074,
0,,,,,0,0,0,0,2,0,2,0,9,0,9,0,,,,,,,,,,,,,,,,,290.2654113005847,None,290.9487017998472,291.5487692002207,291.5324272001162,293.53288740012795,None,1,0.6116656996309757,2.612117599695921,increament,0.6,5,standard,None,100,,,,,,,,f,23,227,fr,r,0,raw,2022-07-05_10h29.15.215,oddball,2022.1.2,59.917517489338074,
0,,,,,0,0,0,0,2,0,2,0,10,0,10,0,,,,,,,,,,,,,,,,,293.5496877003461,None,294.23348970059305,294.83358420059085,294.8169598001987,296.8181341998279,None,1,0.6116622993722558,2.6128827994689345,increament,0.6,5,standard,None,100,,,,,,,,f,23,227,fr,r,0,raw,2022-07-05_10h29.15.215,oddball,2022.1.2,59.917517489338074,
0,,,,,0,0,0,0,2,0,2,0,11,0,11,0,,,,,,,,,,,,,,,,,296.8345844000578,None,297.55140039976686,298.15198700036854,298.1353732002899,300.1354844002053,None,1,0.6125925006344914,2.612614900805056,increament,0.6,5,standard,None,100,,,,,,,,f,23,227,fr,r,0,raw,2022-07-05_10h29.15.215,oddball,2022.1.2,59.917517489338074,
0,,,,,0,0,0,0,2,0,2,0,12,0,12,0,,,,,,,,,,,,,,,,,300.15252820029855,None,300.7691280003637,301.61945249978453,301.586404199712,303.58688830025494,j,1,0.8468388998880982,2.847278299741447,increament,0.84,7,oddball,j,140,0.3278270997107029,,,,,,,f,23,227,fr,r,0,raw,2022-07-05_10h29.15.215,oddball,2022.1.2,59.917517489338074,
0,,,,,0,0,0,0,2,0,2,0,13,0,13,0,,,,,,,,,,,,,,,,,303.603683100082,None,304.22049930039793,304.8207892002538,304.80412560049444,306.80466719996184,None,1,0.6133043998852372,2.6138362996280193,increament,0.6,5,standard,None,100,,,,,,,,f,23,227,fr,r,0,raw,2022-07-05_10h29.15.215,oddball,2022.1.2,59.917517489338074,
0,,,,,0,0,0,0,2,0,2,0,14,0,14,0,,,,,,,,,,,,,,,,,306.8216530997306,None,307.50537810008973,308.105354600586,308.08905410021544,310.089496999979,None,1,0.6097282990813255,2.6102022994309664,increament,0.6,5,standard,None,100,,,,,,,,f,23,227,fr,r,0,raw,2022-07-05_10h29.15.215,oddball,2022.1.2,59.917517489338074,
0,,,,,0,0,0,0,2,0,2,0,15,0,15,0,,,,,,,,,,,,,,,,,310.1062748003751,None,310.6732219001278,311.27346360031515,311.25653730053455,313.2571556000039,None,1,0.6115448996424675,2.612184200435877,increament,0.6,5,standard,None,100,,,,,,,,f,23,227,fr,r,0,raw,2022-07-05_10h29.15.215,oddball,2022.1.2,59.917517489338074,
0,,,,,0,0,0,0,2,0,2,0,16,0,16,0,,,,,,,,,,,,,,,,,313.27384509984404,None,314.0411071004346,314.64106860011816,314.62453670054674,316.6251392001286,None,1,0.6113770995289087,2.6119830990210176,increament,0.6,5,standard,None,100,,,,,,,,f,23,227,fr,r,0,raw,2022-07-05_10h29.15.215,oddball,2022.1.2,59.917517489338074,
0,,,,,0,0,0,0,2,0,2,0,17,0,17,0,,,,,,,,,,,,,,,,,316.6420215005055,None,317.4589822003618,318.0594444004819,318.0424326006323,320.0431668004021,None,1,0.6124215992167592,2.613147798925638,increament,0.6,5,standard,None,100,,,,,,,,f,23,227,fr,r,0,raw,2022-07-05_10h29.15.215,oddball,2022.1.2,59.917517489338074,
0,,,,,0,0,0,0,2,0,2,0,18,0,18,0,,,,,,,,,,,,,,,,,320.0598172005266,None,320.79356560017914,321.39363140054047,321.37711209990084,323.3777729999274,None,1,0.6129429005086422,2.613571500405669,increament,0.6,5,standard,None,100,,,,,,,,f,23,227,fr,r,0,raw,2022-07-05_10h29.15.215,oddball,2022.1.2,59.917517489338074,
0,,,,,0,0,0,0,2,0,2,0,19,0,19,0,,,,,,,,,,,,,,,,,323.39479800034314,None,324.0116643002257,324.6115930005908,324.5949293002486,326.5956923002377,j,0,0.6110116997733712,2.6117495000362396,increament,0.6,5,standard,None,100,0.5269820997491479,,,,,,,f,23,227,fr,r,0,raw,2022-07-05_10h29.15.215,oddball,2022.1.2,59.917517489338074,
0,,,,,0,0,0,0,2,0,2,0,20,0,20,0,,,,,,,,,,,,,,,,,326.6124577000737,None,327.2461839998141,327.97933949995786,327.9462697003037,329.9471955001354,None,0,0.7294418001547456,2.7304690005257726,increament,0.72,6,oddball,j,120,,,,,,,,f,23,227,fr,r,0,raw,2022-07-05_10h29.15.215,oddball,2022.1.2,59.917517489338074,
0,,,,,0,0,0,0,2,0,2,0,21,0,21,0,,,,,,,,,,,,,,,,,329.96469639986753,None,330.73059380054474,331.33101680036634,331.3141596997157,333.3149588005617,j,0,0.6123141003772616,2.613149800337851,increament,0.6,5,standard,None,100,0.344272599555552,,,,,,,f,23,227,fr,r,0,raw,2022-07-05_10h29.15.215,oddball,2022.1.2,59.917517489338074,
0,,,,,0,0,0,0,2,0,2,0,22,0,22,0,,,,,,,,,,,,,,,,,333.3317969003692,None,333.9153812006116,334.5154164005071,334.4987818002701,336.49969090055674,None,1,0.6075340993702412,2.6084861997514963,increament,0.6,5,standard,None,100,,,,,,,,f,23,227,fr,r,0,raw,2022-07-05_10h29.15.215,oddball,2022.1.2,59.917517489338074,
0,,,,,0,0,0,0,2,0,2,0,23,0,23,0,,,,,,,,,,,,,,,,,336.51611999981105,None,337.2500442005694,337.8498140005395,337.8332547005266,339.8338795006275,None,1,0.6098019992932677,2.610431400127709,increament,0.6,5,standard,None,100,,,,,,,,f,23,227,fr,r,0,raw,2022-07-05_10h29.15.215,oddball,2022.1.2,59.917517489338074,
0,,,,,0,0,0,0,2,0,2,0,24,0,24,0,,,,,,,,,,,,,,,,,339.8506102003157,None,340.4013513997197,341.00104949995875,340.9845278998837,342.98515320010483,None,1,0.6094715995714068,2.6100683994591236,increament,0.6,5,standard,None,100,,,,,,,,f,23,227,fr,r,0,raw,2022-07-05_10h29.15.215,oddball,2022.1.2,59.917517489338074,
0,,,,,0,0,0,0,2,0,2,0,25,0,25,0,,,,,,,,,,,,,,,,,343.00180620048195,None,343.7527344999835,344.35236680042,344.33601040020585,346.3364009000361,j,0,0.6101911999285221,2.610482200048864,increament,0.6,5,standard,None,100,0.5143824005499482,,,,,,,f,23,227,fr,r,0,raw,2022-07-05_10h29.15.215,oddball,2022.1.2,59.917517489338074,
0,,,,,0,0,0,0,2,0,2,0,26,0,26,0,,,,,,,,,,,,,,,,,346.35300900042057,None,347.1035136003047,347.70360200013965,347.6869584005326,349.68762020021677,None,1,0.6123185995966196,2.612975399941206,increament,0.6,5,standard,None,100,,,,,,,,f,23,227,fr,r,0,raw,2022-07-05_10h29.15.215,oddball,2022.1.2,59.917517489338074,
0,,,,,0,0,0,0,2,0,2,0,27,0,27,0,,,,,,,,,,,,,,,,,349.70448950026184,None,350.5551681006327,351.1551347998902,351.13852000050247,353.13933520019054,None,1,0.6106890002265573,2.6115215001627803,increament,0.6,5,standard,None,100,,,,,,,,f,23,227,fr,r,0,raw,2022-07-05_10h29.15.215,oddball,2022.1.2,59.917517489338074,
0,,,,,0,0,0,0,2,0,2,0,28,0,28,0,,,,,,,,,,,,,,,,,353.15588170010597,None,353.87266550026834,354.84007429983467,354.80629900004715,356.80715650040656,j,1,0.9631059989333153,2.963963898830116,increament,0.96,8,oddball,j,160,0.5239944001659751,,,,,,,f,23,227,fr,r,0,raw,2022-07-05_10h29.15.215,oddball,2022.1.2,59.917517489338074,
0,,,,,0,0,0,0,2,0,2,0,29,0,29,0,,,,,,,,,,,,,,,,,356.8237707000226,None,357.54097119998187,358.1410407004878,358.12437580060214,360.12564249988645,None,1,0.6083779009059072,2.6096916012465954,increament,0.6,5,standard,None,100,,,,,,,,f,23,227,fr,r,0,raw,2022-07-05_10h29.15.215,oddball,2022.1.2,59.917517489338074,
0,,,,,0,0,0,0,3,0,3,0,0,0,0,0,,,,,,,,,,,,,,,367.94527720008045,None,369.54559020046145,None,370.14558649994433,370.74576839990914,370.7294377004728,372.72962869983166,None,1,0.6105420999228954,2.610609999857843,decreament,0.6,1,standard,None,100,,360.14300699997693,None,,,,,f,23,227,fr,r,0,raw,2022-07-05_10h29.15.215,oddball,2022.1.2,59.917517489338074,
0,,,,,0,0,0,0,3,0,3,0,1,0,1,0,,,,,,,,,,,,,,,,,372.74651859980077,None,373.5135101005435,374.1137722004205,374.09742200002074,376.09795229975134,None,1,0.6143062999472022,2.6147704999893904,decreament,0.6,1,standard,None,100,,,,,,,,f,23,227,fr,r,0,raw,2022-07-05_10h29.15.215,oddball,2022.1.2,59.917517489338074,
0,,,,,0,0,0,0,3,0,3,0,2,0,2,0,,,,,,,,,,,,,,,,,376.11445270013064,None,376.7982109002769,377.39813890028745,377.38156540039927,379.38239189982414,None,1,0.6096731005236506,2.610481600277126,decreament,0.6,1,standard,None,100,,,,,,,,f,23,227,fr,r,0,raw,2022-07-05_10h29.15.215,oddball,2022.1.2,59.917517489338074,
0,,,,,0,0,0,0,3,0,3,0,3,0,3,0,,,,,,,,,,,,,,,,,379.3994287997484,None,380.2497500004247,380.8495546998456,380.83315679989755,382.8336267005652,None,1,0.6114834006875753,2.6119058011099696,decreament,0.6,1,standard,None,100,,,,,,,,f,23,227,fr,r,0,raw,2022-07-05_10h29.15.215,oddball,2022.1.2,59.917517489338074,
0,,,,,0,0,0,0,3,0,3,0,4,0,4,0,,,,,,,,,,,,,,,,,382.8505140002817,None,383.5172383999452,384.11762860044837,384.10078139975667,386.10153750050813,None,1,0.6097795991227031,2.6105444990098476,decreament,0.6,1,standard,None,100,,,,,,,,f,23,227,fr,r,0,raw,2022-07-05_10h29.15.215,oddball,2022.1.2,59.917517489338074,
0,,,,,0,0,0,0,3,0,3,0,5,0,5,0,,,,,,,,,,,,,,,,,386.1182901998982,None,386.7183421002701,387.31880370061845,387.30201460048556,389.3029968999326,None,1,0.6133047994226217,2.6143463999032974,decreament,0.6,1,standard,None,100,,,,,,,,f,23,227,fr,r,0,raw,2022-07-05_10h29.15.215,oddball,2022.1.2,59.917517489338074,
0,,,,,0,0,0,0,3,0,3,0,6,0,6,0,,,,,,,,,,,,,,,,,389.31938340049237,None,389.93655750062317,390.53669760003686,390.5202558999881,392.5208566999063,None,1,0.6127635994926095,2.6133927991613746,decreament,0.6,1,standard,None,100,,,,,,,,f,23,227,fr,r,0,raw,2022-07-05_10h29.15.215,oddball,2022.1.2,59.917517489338074,
0,,,,,0,0,0,0,3,0,3,0,7,0,7,0,,,,,,,,,,,,,,,,,392.5375129003078,None,393.2544803004712,393.85456559993327,393.8380498997867,395.83854440040886,None,1,0.6107333991676569,2.6111851995810866,decreament,0.6,1,standard,None,100,,,,,,,,f,23,227,fr,r,0,raw,2022-07-05_10h29.15.215,oddball,2022.1.2,59.917517489338074,
0,,,,,0,0,0,0,3,0,3,0,8,0,8,0,,,,,,,,,,,,,,,,,395.8553510000929,None,396.522415000014,397.1226110998541,397.1060319999233,399.1064840005711,j,0,0.6129913991317153,2.6134634986519814,decreament,0.6,1,standard,None,100,0.9363530995324254,,,,,,,f,23,227,fr,r,0,raw,2022-07-05_10h29.15.215,oddball,2022.1.2,59.917517489338074,
0,,,,,0,0,0,0,3,0,3,0,9,0,9,0,,,,,,,,,,,,,,,,,399.12321290001273,None,399.7403191998601,400.34079330042005,400.3240453004837,402.32460509985685,None,1,0.6121083991602063,2.61266699898988,decreament,0.6,1,standard,None,100,,,,,,,,f,23,227,fr,r,0,raw,2022-07-05_10h29.15.215,oddball,2022.1.2,59.917517489338074,
0,,,,,0,0,0,0,3,0,3,0,10,0,10,0,,,,,,,,,,,,,,,,,402.3422736003995,None,403.09153460059315,403.69112140033394,403.6745360000059,405.6758484998718,None,1,0.610160400159657,2.6115514002740383,decreament,0.6,1,standard,None,100,,,,,,,,f,23,227,fr,r,0,raw,2022-07-05_10h29.15.215,oddball,2022.1.2,59.917517489338074,
0,,,,,0,0,0,0,3,0,3,0,11,0,11,0,,,,,,,,,,,,,,,,,405.6924103004858,None,406.3257670002058,406.9260040000081,406.9094935003668,408.910687699914,j,0,0.6144677000120282,2.615708200260997,decreament,0.6,1,standard,None,100,0.5808696998283267,,,,,,,f,23,227,fr,r,0,raw,2022-07-05_10h29.15.215,oddball,2022.1.2,59.917517489338074,
0,,,,,0,0,0,0,3,0,3,0,12,0,12,0,,,,,,,,,,,,,,,,,408.9268287997693,None,409.64392140042037,409.8940620003268,409.86049300059676,411.86109840031713,j,1,0.24551279935985804,2.2460903991013765,decreament,0.24,2,oddball,j,40,0.646094299852848,,,,,,,f,23,227,fr,r,0,raw,2022-07-05_10h29.15.215,oddball,2022.1.2,59.917517489338074,
0,,,,,0,0,0,0,3,0,3,0,13,0,13,0,,,,,,,,,,,,,,,,,411.87800259981304,None,412.46158909983933,413.0618414003402,413.04508630000055,415.0460355998948,None,1,0.6125189000740647,2.6135240998119116,decreament,0.6,1,standard,None,100,,,,,,,,f,23,227,fr,r,0,raw,2022-07-05_10h29.15.215,oddball,2022.1.2,59.917517489338074,
0,,,,,0,0,0,0,3,0,3,0,14,0,14,0,,,,,,,,,,,,,,,,,415.0623615998775,None,415.57953550014645,416.17973230034113,416.16291099973023,418.1640680003911,None,1,0.6122564999386668,2.613469099625945,decreament,0.6,1,standard,None,100,,,,,,,,f,23,227,fr,r,0,raw,2022-07-05_10h29.15.215,oddball,2022.1.2,59.917517489338074,
0,,,,,0,0,0,0,3,0,3,0,15,0,15,0,,,,,,,,,,,,,,,,,418.1811554003507,None,418.7136794999242,419.314184400253,419.2976393997669,421.2986999005079,None,1,0.6135905999690294,2.6147063998505473,decreament,0.6,1,standard,None,100,,,,,,,,f,23,227,fr,r,0,raw,2022-07-05_10h29.15.215,oddball,2022.1.2,59.917517489338074,
0,,,,,0,0,0,0,3,0,3,0,16,0,16,0,,,,,,,,,,,,,,,,,421.3148346003145,None,421.88191219978034,422.48211290035397,422.4656611001119,424.4659599997103,None,1,0.6122054997831583,2.6124493991956115,decreament,0.6,1,standard,None,100,,,,,,,,f,23,227,fr,r,0,raw,2022-07-05_10h29.15.215,oddball,2022.1.2,59.917517489338074,
0,,,,,0,0,0,0,3,0,3,0,17,0,17,0,,,,,,,,,,,,,,,,,424.4828273002058,None,425.0829940000549,425.56689540017396,425.5502655999735,427.55069909989834,j,1,0.4915357008576393,2.491909700445831,decreament,0.48,4,oddball,j,80,0.8916040007025003,,,,,,,f,23,227,fr,r,0,raw,2022-07-05_10h29.15.215,oddball,2022.1.2,59.917517489338074,
0,,,,,0,0,0,0,3,0,3,0,18,0,18,0,,,,,,,,,,,,,,,,,427.5674727000296,None,428.2677624002099,428.86756539996713,428.8511228002608,430.8518524998799,None,1,0.6121143996715546,2.6128618996590376,decreament,0.6,1,standard,None,100,,,,,,,,f,23,227,fr,r,0,raw,2022-07-05_10h29.15.215,oddball,2022.1.2,59.917517489338074,
0,,,,,0,0,0,0,3,0,3,0,19,0,19,0,,,,,,,,,,,,,,,,,430.8684748997912,None,431.5353242000565,432.1356870001182,432.1192364003509,434.11986290011555,None,1,0.6134656993672252,2.6140935998409986,decreament,0.6,1,standard,None,100,,,,,,,,f,23,227,fr,r,0,raw,2022-07-05_10h29.15.215,oddball,2022.1.2,59.917517489338074,
0,,,,,0,0,0,0,3,0,3,0,20,0,20,0,,,,,,,,,,,,,,,,,434.13628230057657,None,434.8866982003674,435.486900200136,435.4703965000808,437.4710197998211,None,1,0.6134313000366092,2.6140796998515725,decreament,0.6,1,standard,None,100,,,,,,,,f,23,227,fr,r,0,raw,2022-07-05_10h29.15.215,oddball,2022.1.2,59.917517489338074,
0,,,,,0,0,0,0,3,0,3,0,21,0,21,0,,,,,,,,,,,,,,,,,437.48806240037084,None,438.1216214001179,438.721448100172,438.70532030053437,440.7058519003913,None,1,0.6126156998798251,2.613114799372852,decreament,0.6,1,standard,None,100,,,,,,,,f,23,227,fr,r,0,raw,2022-07-05_10h29.15.215,oddball,2022.1.2,59.917517489338074,
0,,,,,0,0,0,0,3,0,3,0,22,0,22,0,,,,,,,,,,,,,,,,,440.72243530023843,None,441.45638910029083,442.05619790032506,442.03974589984864,444.04031550046057,None,1,0.6098667997866869,2.6103694001212716,decreament,0.6,1,standard,None,100,,,,,,,,f,23,227,fr,r,0,raw,2022-07-05_10h29.15.215,oddball,2022.1.2,59.917517489338074,
0,,,,,0,0,0,0,3,0,3,0,23,0,23,0,,,,,,,,,,,,,,,,,444.05693749990314,None,444.79037060029805,445.3906872998923,445.3739700000733,447.37509510014206,None,1,0.6119400998577476,2.6131165996193886,decreament,0.6,1,standard,None,100,,,,,,,,f,23,227,fr,r,0,raw,2022-07-05_10h29.15.215,oddball,2022.1.2,59.917517489338074,
0,,,,,0,0,0,0,3,0,3,0,24,0,24,0,,,,,,,,,,,,,,,,,447.3914004005492,None,448.02534530032426,448.62496470008045,448.60885990038514,450.60976290050894,None,1,0.6110933991149068,2.612147799693048,decreament,0.6,1,standard,None,100,,,,,,,,f,23,227,fr,r,0,raw,2022-07-05_10h29.15.215,oddball,2022.1.2,59.917517489338074,
0,,,,,0,0,0,0,3,0,3,0,25,0,25,0,,,,,,,,,,,,,,,,,450.6265590004623,None,451.2429600004107,451.84304360020906,451.8267029002309,453.82748709991574,j,0,0.612440999597311,2.6132368994876742,decreament,0.6,1,standard,None,100,0.9275682996958494,,,,,,,f,23,227,fr,r,0,raw,2022-07-05_10h29.15.215,oddball,2022.1.2,59.917517489338074,
0,,,,,0,0,0,0,3,0,3,0,26,0,26,0,,,,,,,,,,,,,,,,,453.8439145004377,None,454.47719450015575,455.07755860034376,455.0610495004803,457.0621135998517,None,1,0.6141908001154661,2.6153397001326084,decreament,0.6,1,standard,None,100,,,,,,,,f,23,227,fr,r,0,raw,2022-07-05_10h29.15.215,oddball,2022.1.2,59.917517489338074,
0,,,,,0,0,0,0,3,0,3,0,27,0,27,0,,,,,,,,,,,,,,,,,457.0796785997227,None,457.62890260014683,457.9954329999164,457.96235639974475,459.9629282001406,j,1,0.363179799169302,2.363758899271488,decreament,0.36,3,oddball,j,60,0.5919059002771974,,,,,,,f,23,227,fr,r,0,raw,2022-07-05_10h29.15.215,oddball,2022.1.2,59.917517489338074,
0,,,,,0,0,0,0,3,0,3,0,28,0,28,0,,,,,,,,,,,,,,,,,459.97975230030715,None,460.61323960032314,461.21324010007083,461.1965318005532,463.1973278000951,None,1,0.612283599562943,2.6130638998001814,decreament,0.6,1,standard,None,100,,,,,,,,f,23,227,fr,r,0,raw,2022-07-05_10h29.15.215,oddball,2022.1.2,59.917517489338074,
0,,,,,0,0,0,0,3,0,3,0,29,0,29,0,,,,,,,,,,,,,,,,,463.214092399925,None,463.8310208003968,464.43149410001934,464.4147017998621,466.4154097000137,None,1,0.614326698705554,2.6150484988465905,decreament,0.6,1,standard,None,100,,,,,,,,f,23,227,fr,r,0,raw,2022-07-05_10h29.15.215,oddball,2022.1.2,59.917517489338074,
0,,,,,0,0,0,0,4,0,4,0,0,0,0,0,,,,,,,,,,,,,,,477.0220769001171,None,479.2534891003743,None,479.82035110052675,480.42040260042995,480.40409610047936,482.40464640036225,None,1,0.6125371996313334,2.613132099620998,increament,0.6,5,standard,None,100,,466.43228519987315,None,,,,,f,23,227,fr,r,0,raw,2022-07-05_10h29.15.215,oddball,2022.1.2,59.917517489338074,
0,,,,,0,0,0,0,4,0,4,0,1,0,1,0,,,,,,,,,,,,,,,,,482.42128720041364,None,483.08823170047253,483.6883875997737,483.6721390001476,485.67304609995335,None,1,0.6133908005431294,2.6143743004649878,increament,0.6,5,standard,None,100,,,,,,,,f,23,227,fr,r,0,raw,2022-07-05_10h29.15.215,oddball,2022.1.2,59.917517489338074,
0,,,,,0,0,0,0,4,0,4,0,2,0,2,0,,,,,,,,,,,,,,,,,485.68921300023794,None,486.25661760009825,486.85676810052246,486.83991710003465,488.840320199728,None,1,0.6104524992406368,2.610809398815036,increament,0.6,5,standard,None,100,,,,,,,,f,23,227,fr,r,0,raw,2022-07-05_10h29.15.215,oddball,2022.1.2,59.917517489338074,
0,,,,,0,0,0,0,4,0,4,0,3,0,3,0,,,,,,,,,,,,,,,,,488.8571377005428,None,489.406879699789,490.0077432002872,489.991332099773,None,None,1,0.5993896992877126,2.599648299627006,increament,0.6,5,standard,None,100,,,,,,,,f,23,227,fr,r,0,raw,2022-07-05_10h29.15.215,oddball,2022.1.2,59.917517489338074,
0,,,,,0,0,0,0,4,0,4,0,4,0,4,0,,,,,,,,,,,,,,,,,491.99183670058846,None,492.6085780002177,493.20872760005295,493.19271480012685,495.1927776997909,None,1,0.6143442001193762,2.6143102003261447,increament,0.6,5,standard,None,100,,,,,,,,f,23,227,fr,r,0,raw,2022-07-05_10h29.15.215,oddball,2022.1.2,59.917517489338074,
0,,,,,0,0,0,0,4,0,4,0,5,0,5,0,,,,,,,,,,,,,,,,,495.2095138998702,None,495.8763159001246,496.47674660012126,496.4600157998502,498.4606622001156,None,1,0.613184398971498,2.613833198323846,increament,0.6,5,standard,None,100,,,,,,,,f,23,227,fr,r,0,raw,2022-07-05_10h29.15.215,oddball,2022.1.2,59.917517489338074,
0,,,,,0,0,0,0,4,0,4,0,6,0,6,0,,,,,,,,,,,,,,,,,498.47773279994726,None,499.0115194004029,499.6113948998973,499.5946559002623,501.595467700623,None,1,0.6108992006629705,2.611740699969232,increament,0.6,5,standard,None,100,,,,,,,,f,23,227,fr,r,0,raw,2022-07-05_10h29.15.215,oddball,2022.1.2,59.917517489338074,
0,,,,,0,0,0,0,4,0,4,0,7,0,7,0,,,,,,,,,,,,,,,,,501.61198520008475,None,502.31240249983966,502.91242760047317,502.8958141002804,504.8964472003281,None,1,0.6109826005995274,2.611573399975896,increament,0.6,5,standard,None,100,,,,,,,,f,23,227,fr,r,0,raw,2022-07-05_10h29.15.215,oddball,2022.1.2,59.917517489338074,
0,,,,,0,0,0,0,4,0,4,0,8,0,8,0,,,,,,,,,,,,,,,,,504.91315979976207,None,505.6135291000828,506.58048320002854,506.54782800003886,508.548042899929,j,1,0.9635245995596051,2.963685099966824,increament,0.96,8,oddball,j,160,0.5654164999723434,,,,,,,f,23,227,fr,r,0,raw,2022-07-05_10h29.15.215,oddball,2022.1.2,59.917517489338074,
0,,,,,0,0,0,0,4,0,4,0,9,0,9,0,,,,,,,,,,,,,,,,,508.5645392006263,None,509.3651545001194,509.9656167002395,509.94848520029336,511.94926619995385,None,1,0.60929000005126,2.6100561004132032,increament,0.6,5,standard,None,100,,,,,,,,f,23,227,fr,r,0,raw,2022-07-05_10h29.15.215,oddball,2022.1.2,59.917517489338074,
0,,,,,0,0,0,0,4,0,4,0,10,0,10,0,,,,,,,,,,,,,,,,,511.9658561004326,None,512.5999396005645,513.1995360003784,513.1831481000409,515.1837376998737,None,1,0.6093956995755434,2.609978999942541,increament,0.6,5,standard,None,100,,,,,,,,f,23,227,fr,r,0,raw,2022-07-05_10h29.15.215,oddball,2022.1.2,59.917517489338074,
0,,,,,0,0,0,0,4,0,4,0,11,0,11,0,,,,,,,,,,,,,,,,,515.2004147004336,None,515.8672428997234,516.4674850003794,516.4510010005906,518.4515538001433,None,1,0.6129523003473878,2.6135235000401735,increament,0.6,5,standard,None,100,,,,,,,,f,23,227,fr,r,0,raw,2022-07-05_10h29.15.215,oddball,2022.1.2,59.917517489338074,
0,,,,,0,0,0,0,4,0,4,0,12,0,12,0,,,,,,,,,,,,,,,,,518.4684565998614,None,519.0018175002187,519.6024229004979,519.5859182998538,521.5864449003711,None,1,0.6138614993542433,2.6143613988533616,increament,0.6,5,standard,None,100,,,,,,,,f,23,227,fr,r,0,raw,2022-07-05_10h29.15.215,oddball,2022.1.2,59.917517489338074,
0,,,,,0,0,0,0,4,0,4,0,13,0,13,0,,,,,,,,,,,,,,,,,521.6027974002063,None,522.2531874002889,522.8533052997664,522.836641700007,524.8373058997095,None,1,0.6124081993475556,2.6130168987438083,increament,0.6,5,standard,None,100,,,,,,,,f,23,227,fr,r,0,raw,2022-07-05_10h29.15.215,oddball,2022.1.2,59.917517489338074,
0,,,,,0,0,0,0,4,0,4,0,14,0,14,0,,,,,,,,,,,,,,,,,524.8538316003978,None,525.4042202001438,526.0044312998652,525.9879970997572,527.9887060001493,j,0,0.6109228990972042,2.6116616996005177,increament,0.6,5,standard,None,100,0.637724700383842,,,,,,,f,23,227,fr,r,0,raw,2022-07-05_10h29.15.215,oddball,2022.1.2,59.917517489338074,
0,,,,,0,0,0,0,4,0,4,0,15,0,15,0,,,,,,,,,,,,,,,,,528.0052353003994,None,528.6059902003035,529.2057068999857,529.1892092004418,531.1903694998473,None,1,0.6091440003365278,2.6103320997208357,increament,0.6,5,standard,None,100,,,,,,,,f,23,227,fr,r,0,raw,2022-07-05_10h29.15.215,oddball,2022.1.2,59.917517489338074,
0,,,,,0,0,0,0,4,0,4,0,16,0,16,0,,,,,,,,,,,,,,,,,531.206457500346,None,531.8066910002381,532.4068195000291,532.3907695002854,534.3913179002702,j,0,0.613557300530374,2.614138100296259,increament,0.6,5,standard,None,100,1.5860254000872374,,,,,,,f,23,227,fr,r,0,raw,2022-07-05_10h29.15.215,oddball,2022.1.2,59.917517489338074,
0,,,,,0,0,0,0,4,0,4,0,17,0,17,0,,,,,,,,,,,,,,,,,534.4075726000592,None,535.2248212005943,535.8250285005197,535.808211600408,537.80891110003,None,1,0.6133083999156952,2.6139843994751573,increament,0.6,5,standard,None,100,,,,,,,,f,23,227,fr,r,0,raw,2022-07-05_10h29.15.215,oddball,2022.1.2,59.917517489338074,
0,,,,,0,0,0,0,4,0,4,0,18,0,18,0,,,,,,,,,,,,,,,,,537.8254776997492,None,538.3761232998222,538.9763083001599,538.9599299002439,540.9604869000614,None,1,0.6113038994371891,2.6118755992501974,increament,0.6,5,standard,None,100,,,,,,,,f,23,227,fr,r,0,raw,2022-07-05_10h29.15.215,oddball,2022.1.2,59.917517489338074,
0,,,,,0,0,0,0,4,0,4,0,19,0,19,0,,,,,,,,,,,,,,,,,540.9772708006203,None,541.5106236003339,542.1105572003871,542.0937814004719,544.0949234003201,None,1,0.6109755001962185,2.6121585005894303,increament,0.6,5,standard,None,100,,,,,,,,f,23,227,fr,r,0,raw,2022-07-05_10h29.15.215,oddball,2022.1.2,59.917517489338074,
0,,,,,0,0,0,0,4,0,4,0,20,0,20,0,,,,,,,,,,,,,,,,,544.1114017004147,None,544.7950929999352,545.3953518001363,545.3785113003105,547.3794970000163,None,1,0.6126477001234889,2.613656099885702,increament,0.6,5,standard,None,100,,,,,,,,f,23,227,fr,r,0,raw,2022-07-05_10h29.15.215,oddball,2022.1.2,59.917517489338074,
0,,,,,0,0,0,0,4,0,4,0,21,0,21,0,,,,,,,,,,,,,,,,,547.3960555000231,None,547.9797664005309,548.5802610004321,548.5632931999862,550.5643977997825,None,1,0.612504499964416,2.6136209005489945,increament,0.6,5,standard,None,100,,,,,,,,f,23,227,fr,r,0,raw,2022-07-05_10h29.15.215,oddball,2022.1.2,59.917517489338074,
0,,,,,0,0,0,0,4,0,4,0,22,0,22,0,,,,,,,,,,,,,,,,,550.580375299789,None,551.214303500019,551.8141491003335,551.7978175999597,553.7983429003507,None,1,0.6084464006125927,2.6089944997802377,increament,0.6,5,standard,None,100,,,,,,,,f,23,227,fr,r,0,raw,2022-07-05_10h29.15.215,oddball,2022.1.2,59.917517489338074,
0,,,,,0,0,0,0,4,0,4,0,23,0,23,0,,,,,,,,,,,,,,,,,553.8152307001874,None,554.3651187000796,555.0990125006065,555.0662831999362,557.0667011998594,j,1,0.7308182995766401,2.7312554996460676,increament,0.72,6,oddball,j,120,0.7275247005745769,,,,,,,f,23,227,fr,r,0,raw,2022-07-05_10h29.15.215,oddball,2022.1.2,59.917517489338074,
0,,,,,0,0,0,0,4,0,4,0,24,0,24,0,,,,,,,,,,,,,,,,,557.0828414997086,None,557.83346430026,558.4335056003183,558.4170265998691,560.4177540997043,None,1,0.6111100995913148,2.611874799244106,increament,0.6,5,standard,None,100,,,,,,,,f,23,227,fr,r,0,raw,2022-07-05_10h29.15.215,oddball,2022.1.2,59.917517489338074,
0,,,,,0,0,0,0,4,0,4,0,25,0,25,0,,,,,,,,,,,,,,,,,560.434599400498,None,561.1844683997333,561.784765300341,561.7684212997556,563.7692048000172,None,1,0.6137454994022846,2.6146062994375825,increament,0.6,5,standard,None,100,,,,,,,,f,23,227,fr,r,0,raw,2022-07-05_10h29.15.215,oddball,2022.1.2,59.917517489338074,
0,,,,,0,0,0,0,4,0,4,0,26,0,26,0,,,,,,,,,,,,,,,,,563.7859837003052,None,564.3526463005692,564.9528010003269,564.9361394997686,566.9368286998942,None,1,0.6084310002624989,2.609067400917411,increament,0.6,5,standard,None,100,,,,,,,,f,23,227,fr,r,0,raw,2022-07-05_10h29.15.215,oddball,2022.1.2,59.917517489338074,
0,,,,,0,0,0,0,4,0,4,0,27,0,27,0,,,,,,,,,,,,,,,,,566.9533670004457,None,567.803713100031,568.6539120003581,568.6207477003336,570.6217160997912,j,1,0.8463072003796697,2.847315300256014,increament,0.84,7,oddball,j,140,0.7089737001806498,,,,,,,f,23,227,fr,r,0,raw,2022-07-05_10h29.15.215,oddball,2022.1.2,59.917517489338074,
0,,,,,0,0,0,0,4,0,4,0,28,0,28,0,,,,,,,,,,,,,,,,,570.6382691003382,None,571.2051756000146,571.8051698002964,571.7884448003024,573.7896864004433,None,1,0.6125728003680706,2.613861399702728,increament,0.6,5,standard,None,100,,,,,,,,f,23,227,fr,r,0,raw,2022-07-05_10h29.15.215,oddball,2022.1.2,59.917517489338074,
0,,,,,0,0,0,0,4,0,4,0,29,0,29,0,,,,,,,,,,,,,,,,,573.8059972999617,None,574.5228296006098,575.1229456998408,575.1065207002684,577.1076567005366,None,1,0.6135874995961785,2.6147393994033337,increament,0.6,5,standard,None,100,,,,,,,,f,23,227,fr,r,0,raw,2022-07-05_10h29.15.215,oddball,2022.1.2,59.917517489338074,
0,,,,,0,0,0,0,5,0,5,0,0,0,0,0,,,,,,,,,,,,,,,589.3672893997282,None,590.5454521002248,None,591.1460699001327,591.7462838999927,591.7295483006164,593.7302659004927,None,1,0.6088225999847054,2.6095529003068805,decreament,0.6,1,standard,None,100,,577.1241116998717,None,,,,,f,23,227,fr,r,0,raw,2022-07-05_10h29.15.215,oddball,2022.1.2,59.917517489338074,
0,,,,,0,0,0,0,5,0,5,0,1,0,1,0,,,,,,,,,,,,,,,,,593.7467277003452,None,594.430919200182,595.0305532999337,595.013978600502,597.0146334003657,None,1,0.609332799911499,2.609999599866569,decreament,0.6,1,standard,None,100,,,,,,,,f,23,227,fr,r,0,raw,2022-07-05_10h29.15.215,oddball,2022.1.2,59.917517489338074,
0,,,,,0,0,0,0,5,0,5,0,2,0,2,0,,,,,,,,,,,,,,,,,597.0315447002649,None,597.6983852004632,598.2985455002636,598.2818652000278,600.2827404001728,None,1,0.6132499007508159,2.614114001393318,decreament,0.6,1,standard,None,100,,,,,,,,f,23,227,fr,r,0,raw,2022-07-05_10h29.15.215,oddball,2022.1.2,59.917517489338074,
0,,,,,0,0,0,0,5,0,5,0,3,0,3,0,,,,,,,,,,,,,,,,,600.299329300411,None,600.9830766003579,601.5835830997676,601.5667326999828,603.5671846000478,None,1,0.6095713991671801,2.6099396999925375,decreament,0.6,1,standard,None,100,,,,,,,,f,23,227,fr,r,0,raw,2022-07-05_10h29.15.215,oddball,2022.1.2,59.917517489338074,
0,,,,,0,0,0,0,5,0,5,0,4,0,4,0,,,,,,,,,,,,,,,,,603.58365780022,None,604.3011419000104,604.9012435004115,604.8845618003979,606.8851647004485,None,1,0.6096579991281033,2.6101918993517756,decreament,0.6,1,standard,None,100,,,,,,,,f,23,227,fr,r,0,raw,2022-07-05_10h29.15.215,oddball,2022.1.2,59.917517489338074,
0,,,,,0,0,0,0,5,0,5,0,5,0,5,0,,,,,,,,,,,,,,,,,606.9016717998311,None,607.4518178002909,608.0524645997211,608.0363087002188,610.0360497999936,j,0,0.6147898994386196,2.6144442996010184,decreament,0.6,1,standard,None,100,0.5967675000429153,,,,,,,f,23,227,fr,r,0,raw,2022-07-05_10h29.15.215,oddball,2022.1.2,59.917517489338074,
0,,,,,0,0,0,0,5,0,5,0,6,0,6,0,,,,,,,,,,,,,,,,,610.0527464998886,None,610.6536405999213,611.2534218998626,611.2368827005848,613.23784600012,None,1,0.6119589004665613,2.6129395999014378,decreament,0.6,1,standard,None,100,,,,,,,,f,23,227,fr,r,0,raw,2022-07-05_10h29.15.215,oddball,2022.1.2,59.917517489338074,
0,,,,,0,0,0,0,5,0,5,0,7,0,7,0,,,,,,,,,,,,,,,,,613.2542507005855,None,613.9710977002978,614.5713892001659,614.554481100291,616.5554311005399,None,1,0.6123960996046662,2.6133822994306684,decreament,0.6,1,standard,None,100,,,,,,,,f,23,227,fr,r,0,raw,2022-07-05_10h29.15.215,oddball,2022.1.2,59.917517489338074,
0,,,,,0,0,0,0,5,0,5,0,8,0,8,0,,,,,,,,,,,,,,,,,616.5721677001566,None,617.4223618004471,617.6727887000889,617.639517900534,619.6402043001726,j,1,0.24683919921517372,2.2475210996344686,decreament,0.24,2,oddball,j,40,0.48148580081760883,,,,,,,f,23,227,fr,r,0,raw,2022-07-05_10h29.15.215,oddball,2022.1.2,59.917517489338074,
0,,,,,0,0,0,0,5,0,5,0,9,0,9,0,,,,,,,,,,,,,,,,,619.6568291001022,None,620.4240364003927,621.0238455003127,621.007303500548,623.0082938997075,None,1,0.6103181997314095,2.6112703001126647,decreament,0.6,1,standard,None,100,,,,,,,,f,23,227,fr,r,0,raw,2022-07-05_10h29.15.215,oddball,2022.1.2,59.917517489338074,
0,,,,,0,0,0,0,5,0,5,0,10,0,10,0,,,,,,,,,,,,,,,,,623.0248506003991,None,623.6250817999244,624.2255501002073,624.2086808001623,626.2091634003446,None,1,0.6128161996603012,2.6132625993341208,decreament,0.6,1,standard,None,100,,,,,,,,f,23,227,fr,r,0,raw,2022-07-05_10h29.15.215,oddball,2022.1.2,59.917517489338074,
0,,,,,0,0,0,0,5,0,5,0,11,0,11,0,,,,,,,,,,,,,,,,,626.2258211998269,None,626.8096794001758,627.4095077998936,627.3931478997692,629.3935398999602,None,1,0.6096243998035789,2.6100478004664183,decreament,0.6,1,standard,None,100,,,,,,,,f,23,227,fr,r,0,raw,2022-07-05_10h29.15.215,oddball,2022.1.2,59.917517489338074,
0,,,,,0,0,0,0,5,0,5,0,12,0,12,0,,,,,,,,,,,,,,,,,629.4104304006323,None,630.077249799855,630.6778416000307,630.6610791999847,632.6615209002048,None,1,0.6135072996839881,2.6138895992189646,decreament,0.6,1,standard,None,100,,,,,,,,f,23,227,fr,r,0,raw,2022-07-05_10h29.15.215,oddball,2022.1.2,59.917517489338074,
0,,,,,0,0,0,0,5,0,5,0,13,0,13,0,,,,,,,,,,,,,,,,,632.6782037997618,None,633.261954200454,633.8622276997194,633.8455165997148,635.8461290998384,None,1,0.6129005998373032,2.6135080996900797,decreament,0.6,1,standard,None,100,,,,,,,,f,23,227,fr,r,0,raw,2022-07-05_10h29.15.215,oddball,2022.1.2,59.917517489338074,
0,,,,,0,0,0,0,5,0,5,0,14,0,14,0,,,,,,,,,,,,,,,,,635.8630474004894,None,636.479932400398,637.0800109999254,637.063562899828,639.0640495000407,j,0,0.6105561004951596,2.6110201999545097,decreament,0.6,1,standard,None,100,0.5697973007336259,,,,,,,f,23,227,fr,r,0,raw,2022-07-05_10h29.15.215,oddball,2022.1.2,59.917517489338074,
0,,,,,0,0,0,0,5,0,5,0,15,0,15,0,,,,,,,,,,,,,,,,,639.0809216005728,None,639.8140976000577,640.4148438004777,640.3981108004227,642.3985609998927,None,1,0.6095431996509433,2.6099888999015093,decreament,0.6,1,standard,None,100,,,,,,,,f,23,227,fr,r,0,raw,2022-07-05_10h29.15.215,oddball,2022.1.2,59.917517489338074,
0,,,,,0,0,0,0,5,0,5,0,16,0,16,0,,,,,,,,,,,,,,,,,642.4151934999973,None,643.015959800221,643.6155654005706,643.5989728001878,645.6000481005758,None,1,0.6105407997965813,2.61165629979223,decreament,0.6,1,standard,None,100,,,,,,,,f,23,227,fr,r,0,raw,2022-07-05_10h29.15.215,oddball,2022.1.2,59.917517489338074,
0,,,,,0,0,0,0,5,0,5,0,17,0,17,0,,,,,,,,,,,,,,,,,645.6164597002789,None,646.2334166998044,646.8336888998747,646.8170113004744,648.8178695999086,None,1,0.6125889997929335,2.613492999225855,decreament,0.6,1,standard,None,100,,,,,,,,f,23,227,fr,r,0,raw,2022-07-05_10h29.15.215,oddball,2022.1.2,59.917517489338074,
0,,,,,0,0,0,0,5,0,5,0,18,0,18,0,,,,,,,,,,,,,,,,,648.8342361999676,None,649.5014366004616,650.1020507998765,650.0851656999439,652.0856475997716,None,1,0.6131134992465377,2.6135393995791674,decreament,0.6,1,standard,None,100,,,,,,,,f,23,227,fr,r,0,raw,2022-07-05_10h29.15.215,oddball,2022.1.2,59.917517489338074,
0,,,,,0,0,0,0,5,0,5,0,19,0,19,0,,,,,,,,,,,,,,,,,652.102268400602,None,652.8360246997327,653.2029868001118,653.1698527000844,655.1706258999184,j,1,0.36276830080896616,2.3634868003427982,decreament,0.36,3,oddball,j,60,0.5983587997034192,,,,,,,f,23,227,fr,r,0,raw,2022-07-05_10h29.15.215,oddball,2022.1.2,59.917517489338074,
0,,,,,0,0,0,0,5,0,5,0,20,0,20,0,,,,,,,,,,,,,,,,,655.186980499886,None,655.7373585999012,656.3370155002922,656.3204711005092,658.3215910997242,None,1,0.6092760004103184,2.610477700829506,decreament,0.6,1,standard,None,100,,,,,,,,f,23,227,fr,r,0,raw,2022-07-05_10h29.15.215,oddball,2022.1.2,59.917517489338074,
0,,,,,0,0,0,0,5,0,5,0,21,0,21,0,,,,,,,,,,,,,,,,,658.3381978003308,None,659.0882029002532,659.6884919004515,659.6720214001834,661.6725188000128,None,1,0.6137515995651484,2.6142351999878883,decreament,0.6,1,standard,None,100,,,,,,,,f,23,227,fr,r,0,raw,2022-07-05_10h29.15.215,oddball,2022.1.2,59.917517489338074,
0,,,,,0,0,0,0,5,0,5,0,22,0,22,0,,,,,,,,,,,,,,,,,661.6892616003752,None,662.2893751002848,662.8898991998285,662.8735113004223,664.8738823002204,None,1,0.6128083989024162,2.6131725991144776,decreament,0.6,1,standard,None,100,,,,,,,,f,23,227,fr,r,0,raw,2022-07-05_10h29.15.215,oddball,2022.1.2,59.917517489338074,
0,,,,,0,0,0,0,5,0,5,0,23,0,23,0,,,,,,,,,,,,,,,,,664.890497200191,None,665.6243024002761,666.2242507999763,666.2081818999723,668.2085123006254,None,1,0.6113812001422048,2.6116722002625465,decreament,0.6,1,standard,None,100,,,,,,,,f,23,227,fr,r,0,raw,2022-07-05_10h29.15.215,oddball,2022.1.2,59.917517489338074,
0,,,,,0,0,0,0,5,0,5,0,24,0,24,0,,,,,,,,,,,,,,,,,668.2252871003002,None,668.8255238002166,669.4258610997349,669.4091630997136,671.4097148999572,None,1,0.6113521996885538,2.6118844989687204,decreament,0.6,1,standard,None,100,,,,,,,,f,23,227,fr,r,0,raw,2022-07-05_10h29.15.215,oddball,2022.1.2,59.917517489338074,
0,,,,,0,0,0,0,5,0,5,0,25,0,25,0,,,,,,,,,,,,,,,,,671.4264604998752,None,672.0269518001005,672.6268068999052,672.6102791000158,674.6108379997313,None,1,0.6096618007868528,2.6101874001324177,decreament,0.6,1,standard,None,100,,,,,,,,f,23,227,fr,r,0,raw,2022-07-05_10h29.15.215,oddball,2022.1.2,59.917517489338074,
0,,,,,0,0,0,0,5,0,5,0,26,0,26,0,,,,,,,,,,,,,,,,,674.627742100507,None,675.2445651004091,675.7278848001733,675.7114057997242,677.7122737998143,None,0,0.494709899649024,2.495537900365889,decreament,0.48,4,oddball,j,80,,,,,,,,f,23,227,fr,r,0,raw,2022-07-05_10h29.15.215,oddball,2022.1.2,59.917517489338074,
0,,,,,0,0,0,0,5,0,5,0,27,0,27,0,,,,,,,,,,,,,,,,,677.7284960001707,None,678.2957458999008,678.8956682998687,678.8792973002419,680.8799745002761,None,1,0.6115081002935767,2.6122666001319885,decreament,0.6,1,standard,None,100,,,,,,,,f,23,227,fr,r,0,raw,2022-07-05_10h29.15.215,oddball,2022.1.2,59.917517489338074,
0,,,,,0,0,0,0,5,0,5,0,28,0,28,0,,,,,,,,,,,,,,,,,680.8966973004863,None,681.5637340005487,682.1641338001937,682.147159400396,684.1477942001075,None,1,0.6111890999600291,2.6118120001628995,decreament,0.6,1,standard,None,100,,,,,,,,f,23,227,fr,r,0,raw,2022-07-05_10h29.15.215,oddball,2022.1.2,59.917517489338074,
0,,,,,0,0,0,0,5,0,5,0,29,0,29,0,,,,,,,,,,,,,,,,,684.164447600022,None,684.6982316998765,685.2985148001462,685.2817267999053,687.2823230000213,None,1,0.612878899089992,2.613462198525667,decreament,0.6,1,standard,None,100,,,,,,,,f,23,227,fr,r,0,raw,2022-07-05_10h29.15.215,oddball,2022.1.2,59.917517489338074,
0,,,,,0,0,0,0,6,0,6,0,0,0,0,0,,,,,,,,,,,,,,,693.20347569976,None,699.9703130004928,None,700.5539258997887,701.1542948000133,701.137513300404,703.1382044004276,None,1,0.6130731999874115,2.6137627996504307,increament,0.6,5,standard,None,100,,687.2995020998642,None,,,,,f,23,227,fr,r,0,raw,2022-07-05_10h29.15.215,oddball,2022.1.2,59.917517489338074,
0,,,,,0,0,0,0,6,0,6,0,1,0,1,0,,,,,,,,,,,,,,,,,703.1550871999934,None,703.83840170037,704.4384650997818,704.4217926003039,706.4228737000376,None,1,0.6126551991328597,2.6137850992381573,increament,0.6,5,standard,None,100,,,,,,,,f,23,227,fr,r,0,raw,2022-07-05_10h29.15.215,oddball,2022.1.2,59.917517489338074,
0,,,,,0,0,0,0,6,0,6,0,2,0,2,0,,,,,,,,,,,,,,,,,706.4397343005985,None,707.123612800613,707.7231772001833,707.7065526004881,709.7076133005321,None,1,0.6096815997734666,2.610818499699235,increament,0.6,5,standard,None,100,,,,,,,,f,23,227,fr,r,0,raw,2022-07-05_10h29.15.215,oddball,2022.1.2,59.917517489338074,
0,,,,,0,0,0,0,6,0,6,0,3,0,3,0,,,,,,,,,,,,,,,,,709.7243670001626,None,710.4079168997705,711.007949700579,710.9912505997345,712.9919848004356,None,1,0.6117528006434441,2.612489400431514,increament,0.6,5,standard,None,100,,,,,,,,f,23,227,fr,r,0,raw,2022-07-05_10h29.15.215,oddball,2022.1.2,59.917517489338074,
0,,,,,0,0,0,0,6,0,6,0,4,0,4,0,,,,,,,,,,,,,,,,,713.0086206002161,None,713.6758904000744,714.2760103000328,714.2591454004869,716.260004799813,None,1,0.6116309994831681,2.612497699446976,increament,0.6,5,standard,None,100,,,,,,,,f,23,227,fr,r,0,raw,2022-07-05_10h29.15.215,oddball,2022.1.2,59.917517489338074,
0,,,,,0,0,0,0,6,0,6,0,5,0,5,0,,,,,,,,,,,,,,,,,716.2769148005173,None,716.8601441998035,717.4604350002483,717.4438808998093,719.4444751003757,None,1,0.6127825006842613,2.6133607011288404,increament,0.6,5,standard,None,100,,,,,,,,f,23,227,fr,r,0,raw,2022-07-05_10h29.15.215,oddball,2022.1.2,59.917517489338074,
0,,,,,0,0,0,0,6,0,6,0,6,0,6,0,,,,,,,,,,,,,,,,,719.4610470999032,None,720.0282944999635,720.6282400004566,720.6118163997307,722.6125853005797,None,1,0.6095511000603437,2.610364499501884,increament,0.6,5,standard,None,100,,,,,,,,f,23,227,fr,r,0,raw,2022-07-05_10h29.15.215,oddball,2022.1.2,59.917517489338074,
0,,,,,0,0,0,0,6,0,6,0,7,0,7,0,,,,,,,,,,,,,,,,,722.6288087004796,None,723.429573699832,724.0296614998952,724.0128292003646,726.0134589001536,None,1,0.6125417994335294,2.6131373988464475,increament,0.6,5,standard,None,100,,,,,,,,f,23,227,fr,r,0,raw,2022-07-05_10h29.15.215,oddball,2022.1.2,59.917517489338074,
0,,,,,0,0,0,0,6,0,6,0,8,0,8,0,,,,,,,,,,,,,,,,,726.0300741000101,None,726.6641247002408,727.2639290997759,727.2474744999781,729.2480302006006,None,1,0.6124402992427349,2.613006199710071,increament,0.6,5,standard,None,100,,,,,,,,f,23,227,fr,r,0,raw,2022-07-05_10h29.15.215,oddball,2022.1.2,59.917517489338074,
0,,,,,0,0,0,0,6,0,6,0,9,0,9,0,,,,,,,,,,,,,,,,,729.2648189002648,None,729.8818658003584,730.4819974005222,730.4651966001838,732.4663166999817,j,0,0.6119007999077439,2.6130731999874115,increament,0.6,5,standard,None,100,1.0558310002088547,,,,,,,f,23,227,fr,r,0,raw,2022-07-05_10h29.15.215,oddball,2022.1.2,59.917517489338074,
0,,,,,0,0,0,0,6,0,6,0,10,0,10,0,,,,,,,,,,,,,,,,,732.4828989999369,None,733.082995899953,733.6834132000804,733.6666366998106,735.6678480999544,None,1,0.6122863991186023,2.6135291988030076,increament,0.6,5,standard,None,100,,,,,,,,f,23,227,fr,r,0,raw,2022-07-05_10h29.15.215,oddball,2022.1.2,59.917517489338074,
0,,,,,0,0,0,0,6,0,6,0,11,0,11,0,,,,,,,,,,,,,,,,,735.6848084004596,None,736.300852900371,736.9012786000967,736.8845851002261,738.8852164000273,None,1,0.6120466999709606,2.612626599147916,increament,0.6,5,standard,None,100,,,,,,,,f,23,227,fr,r,0,raw,2022-07-05_10h29.15.215,oddball,2022.1.2,59.917517489338074,
0,,,,,0,0,0,0,6,0,6,0,12,0,12,0,,,,,,,,,,,,,,,,,738.9018320003524,None,739.6356664001942,740.235861800611,740.2193165998906,742.2197796003893,None,1,0.6125725992023945,2.6130292993038893,increament,0.6,5,standard,None,100,,,,,,,,f,23,227,fr,r,0,raw,2022-07-05_10h29.15.215,oddball,2022.1.2,59.917517489338074,
0,,,,,0,0,0,0,6,0,6,0,13,0,13,0,,,,,,,,,,,,,,,,,742.2364766998217,None,742.7533408999443,743.3536956999451,743.3373043006286,745.3375979000703,None,1,0.613272899761796,2.6135056000202894,increament,0.6,5,standard,None,100,,,,,,,,f,23,227,fr,r,0,raw,2022-07-05_10h29.15.215,oddball,2022.1.2,59.917517489338074,
0,,,,,0,0,0,0,6,0,6,0,14,0,14,0,,,,,,,,,,,,,,,,,745.3543773004785,None,745.9885243000463,746.8381676003337,746.8049777997658,748.8055150005966,j,1,0.8430383000522852,2.8435070998966694,increament,0.84,7,oddball,j,140,0.3959853006526828,,,,,,,f,23,227,fr,r,0,raw,2022-07-05_10h29.15.215,oddball,2022.1.2,59.917517489338074,
0,,,,,0,0,0,0,6,0,6,0,15,0,15,0,,,,,,,,,,,,,,,,,748.8221562001854,None,749.6730310004205,750.2726213000715,750.2560133002698,752.2567819003016,None,1,0.6109623005613685,2.6117241997271776,increament,0.6,5,standard,None,100,,,,,,,,f,23,227,fr,r,0,raw,2022-07-05_10h29.15.215,oddball,2022.1.2,59.917517489338074,
0,,,,,0,0,0,0,6,0,6,0,16,0,16,0,,,,,,,,,,,,,,,,,752.2735008997843,None,753.1071891002357,753.7071190997958,753.6908437004313,755.6913585998118,None,1,0.6122053004801273,2.6127255000174046,increament,0.6,5,standard,None,100,,,,,,,,f,23,227,fr,r,0,raw,2022-07-05_10h29.15.215,oddball,2022.1.2,59.917517489338074,
0,,,,,0,0,0,0,6,0,6,0,17,0,17,0,,,,,,,,,,,,,,,,,755.7082668002695,None,756.3254404999316,756.9253099001944,756.9086094005033,758.9093040004373,None,1,0.6107014995068312,2.611372899264097,increament,0.6,5,standard,None,100,,,,,,,,f,23,227,fr,r,0,raw,2022-07-05_10h29.15.215,oddball,2022.1.2,59.917517489338074,
0,,,,,0,0,0,0,6,0,6,0,18,0,18,0,,,,,,,,,,,,,,,,,758.9262000005692,None,759.6928641004488,760.293275100179,760.2766332998872,762.2775089005008,None,1,0.6134147997945547,2.6143225990235806,increament,0.6,5,standard,None,100,,,,,,,,f,23,227,fr,r,0,raw,2022-07-05_10h29.15.215,oddball,2022.1.2,59.917517489338074,
0,,,,,0,0,0,0,6,0,6,0,19,0,19,0,,,,,,,,,,,,,,,,,762.2939697001129,None,763.0110365003347,763.6115081999451,763.5948157003149,765.5952949002385,j,0,0.6126451995223761,2.613081599585712,increament,0.6,5,standard,None,100,0.37324480060487986,,,,,,,f,23,227,fr,r,0,raw,2022-07-05_10h29.15.215,oddball,2022.1.2,59.917517489338074,
0,,,,,0,0,0,0,6,0,6,0,20,0,20,0,,,,,,,,,,,,,,,,,765.6119499001652,None,766.2124709002674,766.812316399999,766.795555899851,768.7962955003604,j,0,0.6117660999298096,2.612518100067973,increament,0.6,5,standard,None,100,1.1664559999480844,,,,,,,f,23,227,fr,r,0,raw,2022-07-05_10h29.15.215,oddball,2022.1.2,59.917517489338074,
0,,,,,0,0,0,0,6,0,6,0,21,0,21,0,,,,,,,,,,,,,,,,,768.8130970997736,None,769.4632569001988,770.063499700278,770.0471609998494,772.0476393997669,None,1,0.6133724004030228,2.6138633005321026,increament,0.6,5,standard,None,100,,,,,,,,f,23,227,fr,r,0,raw,2022-07-05_10h29.15.215,oddball,2022.1.2,59.917517489338074,
0,,,,,0,0,0,0,6,0,6,0,22,0,22,0,,,,,,,,,,,,,,,,,772.0646259998903,None,772.8145781997591,773.4148030998185,773.3983971998096,775.3991897003725,None,1,0.6124086994677782,2.6132610999047756,increament,0.6,5,standard,None,100,,,,,,,,f,23,227,fr,r,0,raw,2022-07-05_10h29.15.215,oddball,2022.1.2,59.917517489338074,
0,,,,,0,0,0,0,6,0,6,0,23,0,23,0,,,,,,,,,,,,,,,,,775.4158760001883,None,775.9491319004446,776.5493419002742,776.5327182998881,778.5335285002366,None,1,0.6131022991612554,2.6139748990535736,increament,0.6,5,standard,None,100,,,,,,,,f,23,227,fr,r,0,raw,2022-07-05_10h29.15.215,oddball,2022.1.2,59.917517489338074,
0,,,,,0,0,0,0,6,0,6,0,24,0,24,0,,,,,,,,,,,,,,,,,778.5501573001966,None,779.2176024997607,780.1844803001732,780.1507059000432,782.1514768004417,j,1,0.9618517002090812,2.962575100362301,increament,0.96,8,oddball,j,160,0.6015941994264722,,,,,,,f,23,227,fr,r,0,raw,2022-07-05_10h29.15.215,oddball,2022.1.2,59.917517489338074,
0,,,,,0,0,0,0,6,0,6,0,25,0,25,0,,,,,,,,,,,,,,,,,782.1681356001645,None,782.7685463000089,783.3689462002367,783.3521127998829,785.3528009001166,None,1,0.6125125996768475,2.613137699663639,increament,0.6,5,standard,None,100,,,,,,,,f,23,227,fr,r,0,raw,2022-07-05_10h29.15.215,oddball,2022.1.2,59.917517489338074,
0,,,,,0,0,0,0,6,0,6,0,26,0,26,0,,,,,,,,,,,,,,,,,785.3695323001593,None,786.0195829002187,786.6197511004284,786.6033175000921,788.6038846997544,None,1,0.6120482990518212,2.612623599357903,increament,0.6,5,standard,None,100,,,,,,,,f,23,227,fr,r,0,raw,2022-07-05_10h29.15.215,oddball,2022.1.2,59.917517489338074,
0,,,,,0,0,0,0,6,0,6,0,27,0,27,0,,,,,,,,,,,,,,,,,788.6209017997608,None,789.2544995006174,789.8544024005532,789.8378606000915,791.8385960999876,None,1,0.6115429997444153,2.6123119993135333,increament,0.6,5,standard,None,100,,,,,,,,f,23,227,fr,r,0,raw,2022-07-05_10h29.15.215,oddball,2022.1.2,59.917517489338074,
0,,,,,0,0,0,0,6,0,6,0,28,0,28,0,,,,,,,,,,,,,,,,,791.8552330005914,None,792.555362300016,793.2892423998564,793.2558407001197,795.2566320998594,None,0,0.7306292001157999,2.731327999383211,increament,0.72,6,oddball,j,120,,,,,,,,f,23,227,fr,r,0,raw,2022-07-05_10h29.15.215,oddball,2022.1.2,59.917517489338074,
0,,,,,0,0,0,0,6,0,6,0,29,0,29,0,,,,,,,,,,,,,,,,,795.2735294001177,None,795.9065760998055,796.507104200311,796.4905844004825,798.4909947998822,None,1,0.611357000656426,2.611726200208068,increament,0.6,5,standard,None,100,,,,,,,,f,23,227,fr,r,0,raw,2022-07-05_10h29.15.215,oddball,2022.1.2,59.917517489338074,
0,,,,,0,0,0,0,7,0,7,0,0,0,0,0,,,,,,,,,,,,,,,807.1132535003126,None,809.278556600213,None,809.9120315006003,810.5121317002922,810.4954002005979,812.4965396001935,None,1,0.6114102993160486,2.6126526994630694,decreament,0.6,1,standard,None,100,,798.5081772999838,None,,,,,f,23,227,fr,r,0,raw,2022-07-05_10h29.15.215,oddball,2022.1.2,59.917517489338074,
0,,,,,0,0,0,0,7,0,7,0,1,0,1,0,,,,,,,,,,,,,,,,,812.5130919003859,None,813.1970559004694,813.7969717998058,813.7802202999592,815.7810351001099,None,1,0.6103408001363277,2.611149000003934,decreament,0.6,1,standard,None,100,,,,,,,,f,23,227,fr,r,0,raw,2022-07-05_10h29.15.215,oddball,2022.1.2,59.917517489338074,
0,,,,,0,0,0,0,7,0,7,0,2,0,2,0,,,,,,,,,,,,,,,,,815.7978039998561,None,816.531342100352,817.1314329002053,817.114763200283,819.1158964997157,None,1,0.6123294001445174,2.61354919988662,decreament,0.6,1,standard,None,100,,,,,,,,f,23,227,fr,r,0,raw,2022-07-05_10h29.15.215,oddball,2022.1.2,59.917517489338074,
0,,,,,0,0,0,0,7,0,7,0,3,0,3,0,,,,,,,,,,,,,,,,,819.1320040002465,None,819.7825866006315,820.3826692998409,820.3664263002574,822.3668557005003,None,1,0.6112334001809359,2.611605600453913,decreament,0.6,1,standard,None,100,,,,,,,,f,23,227,fr,r,0,raw,2022-07-05_10h29.15.215,oddball,2022.1.2,59.917517489338074,
0,,,,,0,0,0,0,7,0,7,0,4,0,4,0,,,,,,,,,,,,,,,,,822.3834214005619,None,823.0170298004523,823.616958799772,823.6006334004924,825.6017032004893,None,1,0.6114487992599607,2.612565799616277,decreament,0.6,1,standard,None,100,,,,,,,,f,23,227,fr,r,0,raw,2022-07-05_10h29.15.215,oddball,2022.1.2,59.917517489338074,
0,,,,,0,0,0,0,7,0,7,0,5,0,5,0,,,,,,,,,,,,,,,,,825.6181088006124,None,826.2184222005308,826.5849235998467,826.5519626997411,828.552490000613,None,0,0.36263080034404993,2.363121399655938,decreament,0.36,3,oddball,j,60,,,,,,,,f,23,227,fr,r,0,raw,2022-07-05_10h29.15.215,oddball,2022.1.2,59.917517489338074,
0,,,,,0,0,0,0,7,0,7,0,6,0,6,0,,,,,,,,,,,,,,,,,828.5692102005705,None,829.252865199931,829.8528824001551,829.8363179005682,831.8369784001261,None,1,0.611685698851943,2.6123550990596414,decreament,0.6,1,standard,None,100,,,,,,,,f,23,227,fr,r,0,raw,2022-07-05_10h29.15.215,oddball,2022.1.2,59.917517489338074,
0,,,,,0,0,0,0,7,0,7,0,7,0,7,0,,,,,,,,,,,,,,,,,831.8536336002871,None,832.4372299006209,833.037971300073,833.0211439002305,835.0218286002055,j,0,0.6130023989826441,2.613617098890245,decreament,0.6,1,standard,None,100,0.7627351004630327,,,,,,,f,23,227,fr,r,0,raw,2022-07-05_10h29.15.215,oddball,2022.1.2,59.917517489338074,
0,,,,,0,0,0,0,7,0,7,0,8,0,8,0,,,,,,,,,,,,,,,,,835.0383754000068,None,835.5718545997515,836.1720329001546,836.1555134998634,838.1560577005148,j,0,0.6129308994859457,2.6134442994371057,decreament,0.6,1,standard,None,100,0.5330431992188096,,,,,,,f,23,227,fr,r,0,raw,2022-07-05_10h29.15.215,oddball,2022.1.2,59.917517489338074,
0,,,,,0,0,0,0,7,0,7,0,9,0,9,0,,,,,,,,,,,,,,,,,838.172926899977,None,838.8064048001543,839.406865700148,839.3898932999,841.3906736001372,None,1,0.6115379994735122,2.612255299463868,decreament,0.6,1,standard,None,100,,,,,,,,f,23,227,fr,r,0,raw,2022-07-05_10h29.15.215,oddball,2022.1.2,59.917517489338074,
0,,,,,0,0,0,0,7,0,7,0,10,0,10,0,,,,,,,,,,,,,,,,,841.4073935998604,None,842.0077625997365,842.6076591005549,842.5910032000393,844.5917477998883,None,1,0.6095082992687821,2.610237899236381,decreament,0.6,1,standard,None,100,,,,,,,,f,23,227,fr,r,0,raw,2022-07-05_10h29.15.215,oddball,2022.1.2,59.917517489338074,
0,,,,,0,0,0,0,7,0,7,0,11,0,11,0,,,,,,,,,,,,,,,,,844.6093115005642,None,845.2087898002937,845.8087865998968,845.7921515004709,847.7931171003729,None,1,0.6130188005045056,2.6140357004478574,decreament,0.6,1,standard,None,100,,,,,,,,f,23,227,fr,r,0,raw,2022-07-05_10h29.15.215,oddball,2022.1.2,59.917517489338074,
0,,,,,0,0,0,0,7,0,7,0,12,0,12,0,,,,,,,,,,,,,,,,,847.8100781003013,None,848.4098001997918,849.0101231001318,848.9937473004684,850.994324600324,None,1,0.6145970998331904,2.6151841999962926,decreament,0.6,1,standard,None,100,,,,,,,,f,23,227,fr,r,0,raw,2022-07-05_10h29.15.215,oddball,2022.1.2,59.917517489338074,
0,,,,,0,0,0,0,7,0,7,0,13,0,13,0,,,,,,,,,,,,,,,,,851.0111827002838,None,851.7280564997345,852.3283409001306,852.311491000466,854.3121648002416,None,1,0.613017899915576,2.6136737996712327,decreament,0.6,1,standard,None,100,,,,,,,,f,23,227,fr,r,0,raw,2022-07-05_10h29.15.215,oddball,2022.1.2,59.917517489338074,
0,,,,,0,0,0,0,7,0,7,0,14,0,14,0,,,,,,,,,,,,,,,,,854.3288925997913,None,854.9959332002327,855.595970899798,855.5795713001862,857.5800523003563,None,1,0.6128818010911345,2.613372201099992,decreament,0.6,1,standard,None,100,,,,,,,,f,23,227,fr,r,0,raw,2022-07-05_10h29.15.215,oddball,2022.1.2,59.917517489338074,
0,,,,,0,0,0,0,7,0,7,0,15,0,15,0,,,,,,,,,,,,,,,,,857.5968682998791,None,858.3305715005845,858.9308545999229,858.9140592003241,860.9145865002647,None,1,0.608075400814414,2.6085157999768853,decreament,0.6,1,standard,None,100,,,,,,,,f,23,227,fr,r,0,raw,2022-07-05_10h29.15.215,oddball,2022.1.2,59.917517489338074,
0,,,,,0,0,0,0,7,0,7,0,16,0,16,0,,,,,,,,,,,,,,,,,860.9311210997403,None,861.7149659004062,862.3153950003907,862.2985586998984,864.2995536001399,None,1,0.6130518997088075,2.6141967000439763,decreament,0.6,1,standard,None,100,,,,,,,,f,23,227,fr,r,0,raw,2022-07-05_10h29.15.215,oddball,2022.1.2,59.917517489338074,
0,,,,,0,0,0,0,7,0,7,0,17,0,17,0,,,,,,,,,,,,,,,,,864.3159642005339,None,865.1161869000643,865.7164460001513,865.6997162997723,867.7011949997395,None,1,0.6126811997964978,2.614244700409472,decreament,0.6,1,standard,None,100,,,,,,,,f,23,227,fr,r,0,raw,2022-07-05_10h29.15.215,oddball,2022.1.2,59.917517489338074,
0,,,,,0,0,0,0,7,0,7,0,18,0,18,0,,,,,,,,,,,,,,,,,867.7179629001766,None,868.3012696998194,868.9010461000726,868.8845067005605,870.8849645005539,None,1,0.6112988004460931,2.6117036007344723,decreament,0.6,1,standard,None,100,,,,,,,,f,23,227,fr,r,0,raw,2022-07-05_10h29.15.215,oddball,2022.1.2,59.917517489338074,
0,,,,,0,0,0,0,7,0,7,0,19,0,19,0,,,,,,,,,,,,,,,,,870.9017168004066,None,871.6187653997913,872.2189616002142,872.202558199875,874.2028644001111,None,1,0.6133918995037675,2.613635699264705,decreament,0.6,1,standard,None,100,,,,,,,,f,23,227,fr,r,0,raw,2022-07-05_10h29.15.215,oddball,2022.1.2,59.917517489338074,
0,,,,,0,0,0,0,7,0,7,0,20,0,20,0,,,,,,,,,,,,,,,,,874.2197655001655,None,874.7870236998424,875.2703892001882,875.2534841997549,877.2545090001076,j,1,0.49523009918630123,2.4963056994602084,decreament,0.48,4,oddball,j,80,0.5160571001470089,,,,,,,f,23,227,fr,r,0,raw,2022-07-05_10h29.15.215,oddball,2022.1.2,59.917517489338074,
0,,,,,0,0,0,0,7,0,7,0,21,0,21,0,,,,,,,,,,,,,,,,,877.2707406999543,None,877.9044136004522,878.5046418001875,878.4879084005952,880.4888529004529,None,1,0.6125615006312728,2.613493600860238,decreament,0.6,1,standard,None,100,,,,,,,,f,23,227,fr,r,0,raw,2022-07-05_10h29.15.215,oddball,2022.1.2,59.917517489338074,
0,,,,,0,0,0,0,7,0,7,0,22,0,22,0,,,,,,,,,,,,,,,,,880.5056835003197,None,881.0726698003709,881.6726267999038,881.6559254005551,883.6568676000461,None,1,0.6115594999864697,2.6125328997150064,decreament,0.6,1,standard,None,100,,,,,,,,f,23,227,fr,r,0,raw,2022-07-05_10h29.15.215,oddball,2022.1.2,59.917517489338074,
0,,,,,0,0,0,0,7,0,7,0,23,0,23,0,,,,,,,,,,,,,,,,,883.6734536001459,None,884.2903752997518,884.8904854999855,884.8739188006148,886.8750263005495,None,1,0.6135256998240948,2.6147186998277903,decreament,0.6,1,standard,None,100,,,,,,,,f,23,227,fr,r,0,raw,2022-07-05_10h29.15.215,oddball,2022.1.2,59.917517489338074,
0,,,,,0,0,0,0,7,0,7,0,24,0,24,0,,,,,,,,,,,,,,,,,886.8911334006116,None,887.4081882005557,888.0086751999334,887.9917393997312,889.9926417004317,None,1,0.6111608007922769,2.612078000791371,decreament,0.6,1,standard,None,100,,,,,,,,f,23,227,fr,r,0,raw,2022-07-05_10h29.15.215,oddball,2022.1.2,59.917517489338074,
0,,,,,0,0,0,0,7,0,7,0,25,0,25,0,,,,,,,,,,,,,,,,,890.009148100391,None,890.7594971004874,891.0093708001077,890.9760223003104,892.9772727005184,j,1,0.24496279936283827,2.246310099028051,decreament,0.24,2,oddball,j,40,0.863832600414753,,,,,,,f,23,227,fr,r,0,raw,2022-07-05_10h29.15.215,oddball,2022.1.2,59.917517489338074,
0,,,,,0,0,0,0,7,0,7,0,26,0,26,0,,,,,,,,,,,,,,,,,892.9933729004115,None,893.6105466997251,894.2106018997729,894.1942266998813,896.1947354003787,None,1,0.6106540998443961,2.6111057000234723,decreament,0.6,1,standard,None,100,,,,,,,,f,23,227,fr,r,0,raw,2022-07-05_10h29.15.215,oddball,2022.1.2,59.917517489338074,
0,,,,,0,0,0,0,7,0,7,0,27,0,27,0,,,,,,,,,,,,,,,,,896.2111919000745,None,896.8615656001493,897.4619821999222,897.4451937004924,899.4459399003536,None,1,0.6120499996468425,2.612834899686277,decreament,0.6,1,standard,None,100,,,,,,,,f,23,227,fr,r,0,raw,2022-07-05_10h29.15.215,oddball,2022.1.2,59.917517489338074,
0,,,,,0,0,0,0,7,0,7,0,28,0,28,0,,,,,,,,,,,,,,,,,899.4625645000488,None,900.0629735998809,900.6633703000844,900.6464296998456,902.6470854999498,None,1,0.6127742007374763,2.6134407008066773,decreament,0.6,1,standard,None,100,,,,,,,,f,23,227,fr,r,0,raw,2022-07-05_10h29.15.215,oddball,2022.1.2,59.917517489338074,
0,,,,,0,0,0,0,7,0,7,0,29,0,29,0,,,,,,,,,,,,,,,,,902.6638412000611,None,903.2307142000645,903.8309590006247,903.8142598997802,905.8150721006095,j,0,0.614410100504756,2.615262900479138,decreament,0.6,1,standard,None,100,0.4335117004811764,,,,,,,f,23,227,fr,r,0,raw,2022-07-05_10h29.15.215,oddball,2022.1.2,59.917517489338074,
0,,,,,0,0,0,0,8,0,8,0,0,0,0,0,,,,,,,,,,,,,,,916.5527183003724,None,918.3531252006069,None,918.9032196998596,919.503579299897,919.4870814001188,921.4874582998455,None,1,0.6144879991188645,2.6148480996489525,increament,0.6,5,standard,None,100,,905.8319089999422,None,,,,,f,23,227,fr,r,0,raw,2022-07-05_10h29.15.215,oddball,2022.1.2,59.917517489338074,
0,,,,,0,0,0,0,8,0,8,0,1,0,1,0,,,,,,,,,,,,,,,,,921.5044507998973,None,922.1212344001979,922.721309600398,922.7047715000808,924.7057015998289,None,1,0.613261098973453,2.614223098382354,increament,0.6,5,standard,None,100,,,,,,,,f,23,227,fr,r,0,raw,2022-07-05_10h29.15.215,oddball,2022.1.2,59.917517489338074,
0,,,,,0,0,0,0,8,0,8,0,2,0,2,0,,,,,,,,,,,,,,,,,924.7223525997251,None,925.3229025006294,925.92290910054,925.9060815004632,927.9067307999358,None,1,0.6098138000816107,2.610485600307584,increament,0.6,5,standard,None,100,,,,,,,,f,23,227,fr,r,0,raw,2022-07-05_10h29.15.215,oddball,2022.1.2,59.917517489338074,
0,,,,,0,0,0,0,8,0,8,0,3,0,3,0,,,,,,,,,,,,,,,,,927.9234698005021,None,928.4738789005205,929.0741355000064,929.0572359999642,931.0578733999282,None,1,0.611455500125885,2.6120734000578523,increament,0.6,5,standard,None,100,,,,,,,,f,23,227,fr,r,0,raw,2022-07-05_10h29.15.215,oddball,2022.1.2,59.917517489338074,
0,,,,,0,0,0,0,8,0,8,0,4,0,4,0,,,,,,,,,,,,,,,,,931.0745240999386,None,931.6248355004936,932.2250757999718,932.2086204998195,934.2092296006158,None,1,0.612792999483645,2.6133982995525002,increament,0.6,5,standard,None,100,,,,,,,,f,23,227,fr,r,0,raw,2022-07-05_10h29.15.215,oddball,2022.1.2,59.917517489338074,
0,,,,,0,0,0,0,8,0,8,0,5,0,5,0,,,,,,,,,,,,,,,,,934.2258382001892,None,934.8596154004335,935.4598307004198,935.4430162999779,937.4437132002786,None,1,0.6099848998710513,2.610666399821639,increament,0.6,5,standard,None,100,,,,,,,,f,23,227,fr,r,0,raw,2022-07-05_10h29.15.215,oddball,2022.1.2,59.917517489338074,
0,,,,,0,0,0,0,8,0,8,0,6,0,6,0,,,,,,,,,,,,,,,,,937.4603842999786,None,938.1605257997289,939.010824800469,938.9776403000578,940.9809809997678,j,1,0.8456608997657895,2.8490236001089215,increament,0.84,7,oddball,j,140,0.6221503000706434,,,,,,,f,23,227,fr,r,0,raw,2022-07-05_10h29.15.215,oddball,2022.1.2,59.917517489338074,
0,,,,,0,0,0,0,8,0,8,0,7,0,7,0,,,,,,,,,,,,,,,,,940.995009300299,None,941.5618810001761,942.162376199849,942.1454755999148,944.1464197002351,None,1,0.6135730994865298,2.614508899860084,increament,0.6,5,standard,None,100,,,,,,,,f,23,227,fr,r,0,raw,2022-07-05_10h29.15.215,oddball,2022.1.2,59.917517489338074,
0,,,,,0,0,0,0,8,0,8,0,8,0,8,0,,,,,,,,,,,,,,,,,944.1629387000576,None,944.7636374002323,945.3636157000437,945.3470377000049,947.3477285997942,None,1,0.6097153993323445,2.6103948997333646,increament,0.6,5,standard,None,100,,,,,,,,f,23,227,fr,r,0,raw,2022-07-05_10h29.15.215,oddball,2022.1.2,59.917517489338074,
0,,,,,0,0,0,0,8,0,8,0,9,0,9,0,,,,,,,,,,,,,,,,,947.3641964001581,None,947.9309686999768,948.5310676004738,948.5148314004764,950.5151947000995,None,1,0.6130015002563596,2.6133253006264567,increament,0.6,5,standard,None,100,,,,,,,,f,23,227,fr,r,0,raw,2022-07-05_10h29.15.215,oddball,2022.1.2,59.917517489338074,
0,,,,,0,0,0,0,8,0,8,0,10,0,10,0,,,,,,,,,,,,,,,,,950.5317743001506,None,951.0657278001308,951.6659001000226,951.6493169004098,953.6498201005161,None,1,0.6107007004320621,2.6112401001155376,increament,0.6,5,standard,None,100,,,,,,,,f,23,227,fr,r,0,raw,2022-07-05_10h29.15.215,oddball,2022.1.2,59.917517489338074,
0,,,,,0,0,0,0,8,0,8,0,11,0,11,0,,,,,,,,,,,,,,,,,953.6666478002444,None,954.3670076001436,954.9668789003044,954.9503301000223,956.9508405001834,None,1,0.6124972002580762,2.6129545997828245,increament,0.6,5,standard,None,100,,,,,,,,f,23,227,fr,r,0,raw,2022-07-05_10h29.15.215,oddball,2022.1.2,59.917517489338074,
0,,,,,0,0,0,0,8,0,8,0,12,0,12,0,,,,,,,,,,,,,,,,,956.9678231002763,None,957.6346220001578,958.234772500582,958.2182001005858,960.2190421000123,j,0,0.6131032994017005,2.613934399560094,increament,0.6,5,standard,None,100,0.6211780002340674,,,,,,,f,23,227,fr,r,0,raw,2022-07-05_10h29.15.215,oddball,2022.1.2,59.917517489338074,
0,,,,,0,0,0,0,8,0,8,0,13,0,13,0,,,,,,,,,,,,,,,,,960.2355361999944,None,960.7859826004133,961.3862259006128,961.369475999847,963.3700175005943,None,1,0.6135481996461749,2.614058599807322,increament,0.6,5,standard,None,100,,,,,,,,f,23,227,fr,r,0,raw,2022-07-05_10h29.15.215,oddball,2022.1.2,59.917517489338074,
0,,,,,0,0,0,0,8,0,8,0,14,0,14,0,,,,,,,,,,,,,,,,,963.3868391998112,None,964.1043298002332,964.7039839001372,964.6872784001753,966.6880660001189,None,1,0.6096439994871616,2.6104264995083213,increament,0.6,5,standard,None,100,,,,,,,,f,23,227,fr,r,0,raw,2022-07-05_10h29.15.215,oddball,2022.1.2,59.917517489338074,
0,,,,,0,0,0,0,8,0,8,0,15,0,15,0,,,,,,,,,,,,,,,,,966.7050437005237,None,967.3883426003158,967.9887250997126,967.972141600214,969.972946099937,None,1,0.6119854999706149,2.612818599678576,increament,0.6,5,standard,None,100,,,,,,,,f,23,227,fr,r,0,raw,2022-07-05_10h29.15.215,oddball,2022.1.2,59.917517489338074,
0,,,,,0,0,0,0,8,0,8,0,16,0,16,0,,,,,,,,,,,,,,,,,969.9894866002724,None,970.7397832004353,971.3396151997149,971.3231822000816,973.3241276005283,j,0,0.6128710992634296,2.6138603994622827,increament,0.6,5,standard,None,100,1.0849125999957323,,,,,,,f,23,227,fr,r,0,raw,2022-07-05_10h29.15.215,oddball,2022.1.2,59.917517489338074,
0,,,,,0,0,0,0,8,0,8,0,17,0,17,0,,,,,,,,,,,,,,,,,973.340631400235,None,973.9243056997657,974.5242603998631,974.5079827001318,976.5081133004278,None,1,0.612212399020791,2.6122428998351097,increament,0.6,5,standard,None,100,,,,,,,,f,23,227,fr,r,0,raw,2022-07-05_10h29.15.215,oddball,2022.1.2,59.917517489338074,
0,,,,,0,0,0,0,8,0,8,0,18,0,18,0,,,,,,,,,,,,,,,,,976.5248114997521,None,977.0754610002041,977.6755784004927,977.6590774003416,979.6597985997796,None,1,0.6124252993613482,2.613191199488938,increament,0.6,5,standard,None,100,,,,,,,,f,23,227,fr,r,0,raw,2022-07-05_10h29.15.215,oddball,2022.1.2,59.917517489338074,
0,,,,,0,0,0,0,8,0,8,0,19,0,19,0,,,,,,,,,,,,,,,,,979.6765518002212,None,980.1933891000226,980.793654399924,980.777046000585,982.777622600086,None,1,0.612997000105679,2.6135296998545527,increament,0.6,5,standard,None,100,,,,,,,,f,23,227,fr,r,0,raw,2022-07-05_10h29.15.215,oddball,2022.1.2,59.917517489338074,
0,,,,,0,0,0,0,8,0,8,0,20,0,20,0,,,,,,,,,,,,,,,,,982.7943011000752,None,983.5449223006144,984.1448782002553,984.1281553003937,986.1289852000773,None,1,0.6111352005973458,2.6119808005169034,increament,0.6,5,standard,None,100,,,,,,,,f,23,227,fr,r,0,raw,2022-07-05_10h29.15.215,oddball,2022.1.2,59.917517489338074,
0,,,,,0,0,0,0,8,0,8,0,21,0,21,0,,,,,,,,,,,,,,,,,986.1453403001651,None,986.7795983999968,987.3793000997975,987.3626025998965,989.3634013002738,None,1,0.6095306007191539,2.6103370003402233,increament,0.6,5,standard,None,100,,,,,,,,f,23,227,fr,r,0,raw,2022-07-05_10h29.15.215,oddball,2022.1.2,59.917517489338074,
0,,,,,0,0,0,0,8,0,8,0,22,0,22,0,,,,,,,,,,,,,,,,,989.3800202999264,None,990.0806350000203,991.0472769001499,991.0139816999435,993.0146327000111,j,1,0.961578301154077,2.9622297007590532,increament,0.96,8,oddball,j,160,0.4492517998442054,,,,,,,f,23,227,fr,r,0,raw,2022-07-05_10h29.15.215,oddball,2022.1.2,59.917517489338074,
0,,,,,0,0,0,0,8,0,8,0,23,0,23,0,,,,,,,,,,,,,,,,,993.0316110001877,None,993.6817386997864,994.2818868998438,994.2653680006042,996.2661516005173,None,1,0.6126728001981974,2.6134857004508376,increament,0.6,5,standard,None,100,,,,,,,,f,23,227,fr,r,0,raw,2022-07-05_10h29.15.215,oddball,2022.1.2,59.917517489338074,
0,,,,,0,0,0,0,8,0,8,0,24,0,24,0,,,,,,,,,,,,,,,,,996.2827751003206,None,996.9162961002439,997.5167740006,997.4997457005084,999.5004283003509,None,1,0.6114329993724823,2.612140999175608,increament,0.6,5,standard,None,100,,,,,,,,f,23,227,fr,r,0,raw,2022-07-05_10h29.15.215,oddball,2022.1.2,59.917517489338074,
0,,,,,0,0,0,0,8,0,8,0,25,0,25,0,,,,,,,,,,,,,,,,,999.5171984005719,None,1000.1840785006061,1000.784259499982,1000.7676828000695,1002.7682958999649,None,1,0.6135921999812126,2.6142104007303715,increament,0.6,5,standard,None,100,,,,,,,,f,23,227,fr,r,0,raw,2022-07-05_10h29.15.215,oddball,2022.1.2,59.917517489338074,
0,,,,,0,0,0,0,8,0,8,0,26,0,26,0,,,,,,,,,,,,,,,,,1002.7849369002506,None,1003.3356240000576,1004.0689436998218,1004.0355917997658,1006.0363336997107,None,0,0.7269431995227933,2.7276122998446226,increament,0.72,6,oddball,j,120,,,,,,,,f,23,227,fr,r,0,raw,2022-07-05_10h29.15.215,oddball,2022.1.2,59.917517489338074,
0,,,,,0,0,0,0,8,0,8,0,27,0,27,0,,,,,,,,,,,,,,,,,1006.0532852998003,None,1006.6864799000323,1007.2870132001117,1007.2707515005022,1009.2713657999411,None,1,0.6137753995135427,2.614388599060476,increament,0.6,5,standard,None,100,,,,,,,,f,23,227,fr,r,0,raw,2022-07-05_10h29.15.215,oddball,2022.1.2,59.917517489338074,
0,,,,,0,0,0,0,8,0,8,0,28,0,28,0,,,,,,,,,,,,,,,,,1009.2878937004134,None,1009.9880478000268,1010.5880078999326,1010.5714587997645,1012.5720105003566,None,1,0.6122969994321465,2.6128152990713716,increament,0.6,5,standard,None,100,,,,,,,,f,23,227,fr,r,0,raw,2022-07-05_10h29.15.215,oddball,2022.1.2,59.917517489338074,
0,,,,,0,0,0,0,8,0,8,0,29,0,29,0,,,,,,,,,,,,,,,,,1012.5888021998107,None,1013.2723967004567,1013.8729368001223,1013.8563716001809,1015.8568807002157,None,1,0.6093307007104158,2.609789500012994,increament,0.6,5,standard,None,100,,,,,,,,f,23,227,fr,r,0,raw,2022-07-05_10h29.15.215,oddball,2022.1.2,59.917517489338074,
0,,,,,0,0,0,0,9,0,9,0,0,0,0,0,,,,,,,,,,,,,,,1038.2714585997164,None,1040.765618399717,None,1041.3497943999246,1041.9496504999697,1041.9336355002597,1043.933943000622,None,1,0.6122679989784956,2.612525898963213,decreament,0.6,1,standard,None,100,,1015.8751948000863,None,,,,,f,23,227,fr,r,0,raw,2022-07-05_10h29.15.215,oddball,2022.1.2,59.917517489338074,
0,,,,,0,0,0,0,9,0,9,0,1,0,1,0,,,,,,,,,,,,,,,,,1043.950832400471,None,1044.5512696998194,1045.1518018003553,1045.1347714997828,1047.1355464998633,None,1,0.6121477000415325,2.6128996005281806,decreament,0.6,1,standard,None,100,,,,,,,,f,23,227,fr,r,0,raw,2022-07-05_10h29.15.215,oddball,2022.1.2,59.917517489338074,
0,,,,,0,0,0,0,9,0,9,0,2,0,2,0,,,,,,,,,,,,,,,,,1047.152244700119,None,1047.8521846001968,1048.452493400313,1048.4357799999416,1050.4365159003064,None,1,0.6121546002104878,2.6129339998587966,decreament,0.6,1,standard,None,100,,,,,,,,f,23,227,fr,r,0,raw,2022-07-05_10h29.15.215,oddball,2022.1.2,59.917517489338074,
0,,,,,0,0,0,0,9,0,9,0,3,0,3,0,,,,,,,,,,,,,,,,,1050.4534814003855,None,1051.1369173005223,1051.737060399726,1051.7205523997545,1053.7209859006107,None,1,0.6128329001367092,2.613207600079477,decreament,0.6,1,standard,None,100,,,,,,,,f,23,227,fr,r,0,raw,2022-07-05_10h29.15.215,oddball,2022.1.2,59.917517489338074,
0,,,,,0,0,0,0,9,0,9,0,4,0,4,0,,,,,,,,,,,,,,,,,1053.7378102997318,None,1054.4547554003075,1055.0551944999024,1055.0384518997744,1057.0391500005499,None,1,0.6115349996834993,2.6122129997238517,decreament,0.6,1,standard,None,100,,,,,,,,f,23,227,fr,r,0,raw,2022-07-05_10h29.15.215,oddball,2022.1.2,59.917517489338074,
0,,,,,0,0,0,0,9,0,9,0,5,0,5,0,,,,,,,,,,,,,,,,,1057.055657000281,None,1057.672851599753,1058.2727995999157,1058.2561229998246,1060.2569534005597,None,1,0.611480699852109,2.612299100495875,decreament,0.6,1,standard,None,100,,,,,,,,f,23,227,fr,r,0,raw,2022-07-05_10h29.15.215,oddball,2022.1.2,59.917517489338074,
0,,,,,0,0,0,0,9,0,9,0,6,0,6,0,,,,,,,,,,,,,,,,,1060.2733641006052,None,1060.89045239985,1061.490849999711,1061.474166000262,1063.4751366004348,None,1,0.6094589987769723,2.6104704989120364,decreament,0.6,1,standard,None,100,,,,,,,,f,23,227,fr,r,0,raw,2022-07-05_10h29.15.215,oddball,2022.1.2,59.917517489338074,
0,,,,,0,0,0,0,9,0,9,0,7,0,7,0,,,,,,,,,,,,,,,,,1063.4914134005085,None,1064.1254850002006,1064.7250209003687,1064.7085501998663,1066.7097698999569,None,1,0.6100642001256347,2.611400400288403,decreament,0.6,1,standard,None,100,,,,,,,,f,23,227,fr,r,0,raw,2022-07-05_10h29.15.215,oddball,2022.1.2,59.917517489338074,
0,,,,,0,0,0,0,9,0,9,0,8,0,8,0,,,,,,,,,,,,,,,,,1066.725738200359,None,1067.4599599000067,1068.0599619997665,1068.043731700629,1070.043891100213,None,1,0.6123722000047565,2.6125063002109528,decreament,0.6,1,standard,None,100,,,,,,,,f,23,227,fr,r,0,raw,2022-07-05_10h29.15.215,oddball,2022.1.2,59.917517489338074,
0,,,,,0,0,0,0,9,0,9,0,9,0,9,0,,,,,,,,,,,,,,,,,1070.0607534004375,None,1070.6776278000325,1071.1608393006027,1071.1281479001045,1073.128447599709,None,0,0.48050760105252266,2.48074550088495,decreament,0.48,4,oddball,j,80,,,,,,,,f,23,227,fr,r,0,raw,2022-07-05_10h29.15.215,oddball,2022.1.2,59.917517489338074,
0,,,,,0,0,0,0,9,0,9,0,10,0,10,0,,,,,,,,,,,,,,,,,1073.1450776001438,None,1073.7952342005447,1074.3959643999115,1074.3794863000512,1076.3795360000804,None,1,0.6132380999624729,2.613226800225675,decreament,0.6,1,standard,None,100,,,,,,,,f,23,227,fr,r,0,raw,2022-07-05_10h29.15.215,oddball,2022.1.2,59.917517489338074,
0,,,,,0,0,0,0,9,0,9,0,11,0,11,0,,,,,,,,,,,,,,,,,1076.396220500581,None,1077.0965044004843,1077.697040100582,1077.6803547004238,1079.6807714002207,None,1,0.6130460994318128,2.613395999185741,decreament,0.6,1,standard,None,100,,,,,,,,f,23,227,fr,r,0,raw,2022-07-05_10h29.15.215,oddball,2022.1.2,59.917517489338074,
0,,,,,0,0,0,0,9,0,9,0,12,0,12,0,,,,,,,,,,,,,,,,,1079.6975865997374,None,1080.3312162002549,1080.93184030056,1080.9147855006158,1082.9152845004573,None,1,0.6129560992121696,2.6134008998051286,decreament,0.6,1,standard,None,100,,,,,,,,f,23,227,fr,r,0,raw,2022-07-05_10h29.15.215,oddball,2022.1.2,59.917517489338074,
0,,,,,0,0,0,0,9,0,9,0,13,0,13,0,,,,,,,,,,,,,,,,,1082.9318489003927,None,1083.5825997004285,1084.1829097997397,1084.1662720004097,1086.1671425001696,None,1,0.6127885999158025,2.6136568998917937,decreament,0.6,1,standard,None,100,,,,,,,,f,23,227,fr,r,0,raw,2022-07-05_10h29.15.215,oddball,2022.1.2,59.917517489338074,
0,,,,,0,0,0,0,9,0,9,0,14,0,14,0,,,,,,,,,,,,,,,,,1086.1840471997857,None,1086.7838928997517,1087.3839266002178,1087.367378800176,1089.3675378998742,j,0,0.6119084004312754,2.6119881998747587,decreament,0.6,1,standard,None,100,0.5127119002863765,,,,,,,f,23,227,fr,r,0,raw,2022-07-05_10h29.15.215,oddball,2022.1.2,59.917517489338074,
0,,,,,0,0,0,0,9,0,9,0,15,0,15,0,,,,,,,,,,,,,,,,,1089.3841877998784,None,1090.1019044006243,1090.701757600531,1090.6850562999025,1092.6857783999294,None,1,0.6110835000872612,2.6117807999253273,decreament,0.6,1,standard,None,100,,,,,,,,f,23,227,fr,r,0,raw,2022-07-05_10h29.15.215,oddball,2022.1.2,59.917517489338074,
0,,,,,0,0,0,0,9,0,9,0,16,0,16,0,,,,,,,,,,,,,,,,,1092.7023366000503,None,1093.302883000113,1093.9026929000393,1093.8861349001527,1095.887155899778,j,0,0.6097819991409779,2.6108210990205407,decreament,0.6,1,standard,None,100,1.0413999995216727,,,,,,,f,23,227,fr,r,0,raw,2022-07-05_10h29.15.215,oddball,2022.1.2,59.917517489338074,
0,,,,,0,0,0,0,9,0,9,0,17,0,17,0,,,,,,,,,,,,,,,,,1095.9037017002702,None,1096.4377418002114,1096.6875486997887,1096.6540093999356,1098.654884800315,j,1,0.24221230018883944,2.243104400113225,decreament,0.24,2,oddball,j,40,0.6326577002182603,,,,,,,f,23,227,fr,r,0,raw,2022-07-05_10h29.15.215,oddball,2022.1.2,59.917517489338074,
0,,,,,0,0,0,0,9,0,9,0,18,0,18,0,,,,,,,,,,,,,,,,,1098.6714678006247,None,1099.1884965002537,1099.788512200117,1099.7719678999856,1101.7730672005564,None,1,0.6099033989012241,2.611085399053991,decreament,0.6,1,standard,None,100,,,,,,,,f,23,227,fr,r,0,raw,2022-07-05_10h29.15.215,oddball,2022.1.2,59.917517489338074,
0,,,,,0,0,0,0,9,0,9,0,19,0,19,0,,,,,,,,,,,,,,,,,1101.790476700291,None,1102.5897141005844,1103.189887800254,1103.173412900418,1105.1742505002767,None,1,0.6125878989696503,2.613405299372971,decreament,0.6,1,standard,None,100,,,,,,,,f,23,227,fr,r,0,raw,2022-07-05_10h29.15.215,oddball,2022.1.2,59.917517489338074,
0,,,,,0,0,0,0,9,0,9,0,20,0,20,0,,,,,,,,,,,,,,,,,1105.1904728002846,None,1105.807417199947,1106.407677900046,1106.3910477003083,1108.391792099923,None,1,0.6117074005305767,2.6124693006277084,decreament,0.6,1,standard,None,100,,,,,,,,f,23,227,fr,r,0,raw,2022-07-05_10h29.15.215,oddball,2022.1.2,59.917517489338074,
0,,,,,0,0,0,0,9,0,9,0,21,0,21,0,,,,,,,,,,,,,,,,,1108.408431299962,None,1109.2254619002342,1109.8258162997663,1109.809433599934,1111.8097820002586,None,1,0.612351500429213,2.6126791005954146,decreament,0.6,1,standard,None,100,,,,,,,,f,23,227,fr,r,0,raw,2022-07-05_10h29.15.215,oddball,2022.1.2,59.917517489338074,
0,,,,,0,0,0,0,9,0,9,0,22,0,22,0,,,,,,,,,,,,,,,,,1111.8263683002442,None,1112.5099787004292,1113.11077820044,1113.093760699965,1115.0943248998374,None,1,0.6135582998394966,2.6139607997611165,decreament,0.6,1,standard,None,100,,,,,,,,f,23,227,fr,r,0,raw,2022-07-05_10h29.15.215,oddball,2022.1.2,59.917517489338074,
0,,,,,0,0,0,0,9,0,9,0,23,0,23,0,,,,,,,,,,,,,,,,,1115.110920900479,None,1115.744687099941,1116.3449242003262,1116.3281990997493,1118.329012800008,None,1,0.6117578996345401,2.6125768991187215,decreament,0.6,1,standard,None,100,,,,,,,,f,23,227,fr,r,0,raw,2022-07-05_10h29.15.215,oddball,2022.1.2,59.917517489338074,
0,,,,,0,0,0,0,9,0,9,0,24,0,24,0,,,,,,,,,,,,,,,,,1118.3455127999187,None,1119.012392600067,1119.6124382000417,1119.5959271006286,1121.5968172997236,j,0,0.6112585999071598,2.612203700467944,decreament,0.6,1,standard,None,100,0.5560026997700334,,,,,,,f,23,227,fr,r,0,raw,2022-07-05_10h29.15.215,oddball,2022.1.2,59.917517489338074,
0,,,,,0,0,0,0,9,0,9,0,25,0,25,0,,,,,,,,,,,,,,,,,1121.6136373998597,None,1122.2638415005058,1122.630666299723,1122.5972346998751,1124.5979323005304,j,1,0.36031429935246706,2.3609836995601654,decreament,0.36,3,oddball,j,60,0.4819275997579098,,,,,,,f,23,227,fr,r,0,raw,2022-07-05_10h29.15.215,oddball,2022.1.2,59.917517489338074,
0,,,,,0,0,0,0,9,0,9,0,26,0,26,0,,,,,,,,,,,,,,,,,1124.614580400288,None,1125.198661500588,1125.7984279002994,1125.78231099993,1127.7822807002813,None,1,0.6096581993624568,2.6095653995871544,decreament,0.6,1,standard,None,100,,,,,,,,f,23,227,fr,r,0,raw,2022-07-05_10h29.15.215,oddball,2022.1.2,59.917517489338074,
0,,,,,0,0,0,0,9,0,9,0,27,0,27,0,,,,,,,,,,,,,,,,,1127.7991241002455,None,1128.4994338005781,1129.0994982998818,1129.0829777000472,1131.0836656000465,None,1,0.612364599481225,2.6130927996709943,decreament,0.6,1,standard,None,100,,,,,,,,f,23,227,fr,r,0,raw,2022-07-05_10h29.15.215,oddball,2022.1.2,59.917517489338074,
0,,,,,0,0,0,0,9,0,9,0,28,0,28,0,,,,,,,,,,,,,,,,,1131.1004926003516,None,1131.7510489998385,1132.3508358998224,1132.3344133002684,1134.334754500538,None,1,0.6106801005080342,2.6110071009024978,decreament,0.6,1,standard,None,100,,,,,,,,f,23,227,fr,r,0,raw,2022-07-05_10h29.15.215,oddball,2022.1.2,59.917517489338074,
0,,,,,0,0,0,0,9,0,9,0,29,0,29,0,,,,,,,,,,,,,,,,,1134.3518269006163,None,1135.0851925006136,1135.6855846000835,1135.6688882000744,1137.6697252001613,None,1,0.6128094987943769,2.6136385994032025,decreament,0.6,1,standard,None,100,,,,,,,,f,23,227,fr,r,0,raw,2022-07-05_10h29.15.215,oddball,2022.1.2,59.917517489338074,
20,,,,,0,1,1,3,0,0,0,0,0,0,0,0,,,,,,,,,,,,,,,1377.1014164006338,None,1378.4607092002407,None,1379.0944058997557,1379.6946187000722,1379.6782669005916,1381.6787162004039,None,1,0.6107744993641973,2.6111462991684675,increament,0.6,45,standard,None,100,,1317.7214387999848,None,1137.7075687004253,None,,,f,23,227,fr,r,0,raw,2022-07-05_10h29.15.215,oddball,2022.1.2,59.917517489338074,
20,,,,,0,1,1,3,0,0,0,0,1,0,1,0,,,,,,,,,,,,,,,,,1381.6952422000468,None,1382.295647200197,1382.8957604002208,1382.8792411005124,1384.8802641006187,None,1,0.6128024002537131,2.6138763995841146,increament,0.6,45,standard,None,100,,,,,,,,f,23,227,fr,r,0,raw,2022-07-05_10h29.15.215,oddball,2022.1.2,59.917517489338074,
20,,,,,0,1,1,3,0,0,0,0,2,0,2,0,,,,,,,,,,,,,,,,,1384.8968203999102,None,1385.6302650999278,1386.2302844002843,1386.2137305997312,1388.214333800599,None,1,0.6094257002696395,2.6100706001743674,increament,0.6,45,standard,None,100,,,,,,,,f,23,227,fr,r,0,raw,2022-07-05_10h29.15.215,oddball,2022.1.2,59.917517489338074,
20,,,,,0,1,1,3,0,0,0,0,3,0,3,0,,,,,,,,,,,,,,,,,1388.2310685003176,None,1389.0648439005017,1389.6649544006214,1389.6486598001793,1391.6493874005973,None,1,0.613009599968791,2.6137669002637267,increament,0.6,45,standard,None,100,,,,,,,,f,23,227,fr,r,0,raw,2022-07-05_10h29.15.215,oddball,2022.1.2,59.917517489338074,
20,,,,,0,1,1,3,0,0,0,0,4,0,4,0,,,,,,,,,,,,,,,,,1391.665645699948,None,1392.1993995998055,1392.7995068999007,1392.7831845004112,1394.7834130004048,None,1,0.6132650002837181,2.6134387999773026,increament,0.6,45,standard,None,100,,,,,,,,f,23,227,fr,r,0,raw,2022-07-05_10h29.15.215,oddball,2022.1.2,59.917517489338074,
20,,,,,0,1,1,3,0,0,0,0,5,0,5,0,,,,,,,,,,,,,,,,,1394.8004550002515,None,1395.433861600235,1396.0340419001877,1396.0174088003114,1398.0179532999173,None,1,0.6119470000267029,2.6124815000221133,increament,0.6,45,standard,None,100,,,,,,,,f,23,227,fr,r,0,raw,2022-07-05_10h29.15.215,oddball,2022.1.2,59.917517489338074,
20,,,,,0,1,1,3,0,0,0,0,6,0,6,0,,,,,,,,,,,,,,,,,1398.0347143001854,None,1398.7515652002767,1399.3519088998437,1399.335452400148,1401.3359377002344,None,1,0.6132324002683163,2.6136871008202434,increament,0.6,45,standard,None,100,,,,,,,,f,23,227,fr,r,0,raw,2022-07-05_10h29.15.215,oddball,2022.1.2,59.917517489338074,
20,,,,,0,1,1,3,0,0,0,0,7,0,7,0,,,,,,,,,,,,,,,,,1401.3525609998032,None,1402.0028926003724,1402.6032488998026,1402.5863576000556,1404.5877149002627,None,1,0.6130400998517871,2.6144980993121862,increament,0.6,45,standard,None,100,,,,,,,,f,23,227,fr,r,0,raw,2022-07-05_10h29.15.215,oddball,2022.1.2,59.917517489338074,
20,,,,,0,1,1,3,0,0,0,0,8,0,8,0,,,,,,,,,,,,,,,,,1404.6037861006334,None,1405.404576100409,1406.0047372002155,1405.9877239000052,1407.9885836998,None,1,0.6108051994815469,2.6116674998775125,increament,0.6,45,standard,None,100,,,,,,,,f,23,227,fr,r,0,raw,2022-07-05_10h29.15.215,oddball,2022.1.2,59.917517489338074,
20,,,,,0,1,1,3,0,0,0,0,9,0,9,0,,,,,,,,,,,,,,,,,1408.0052669998258,None,1408.5223187003285,1409.1225509000942,1409.1057980004698,1411.1065739002079,None,1,0.612627699971199,2.6133816996589303,increament,0.6,45,standard,None,100,,,,,,,,f,23,227,fr,r,0,raw,2022-07-05_10h29.15.215,oddball,2022.1.2,59.917517489338074,
20,,,,,0,1,1,3,0,0,0,0,10,0,10,0,,,,,,,,,,,,,,,,,1411.1231704000384,None,1411.6570771997795,1412.2567779002711,1412.2404404003173,1414.2410570997745,None,1,0.6128941001370549,2.613462899811566,increament,0.6,45,standard,None,100,,,,,,,,f,23,227,fr,r,0,raw,2022-07-05_10h29.15.215,oddball,2022.1.2,59.917517489338074,
20,,,,,0,1,1,3,0,0,0,0,11,0,11,0,,,,,,,,,,,,,,,,,1414.2575400006026,None,1414.925040400587,1415.5246347002685,1415.5081106005237,1417.5089386999607,None,1,0.6093982001766562,2.6102200001478195,increament,0.6,45,standard,None,100,,,,,,,,f,23,227,fr,r,0,raw,2022-07-05_10h29.15.215,oddball,2022.1.2,59.917517489338074,
20,,,,,0,1,1,3,0,0,0,0,12,0,12,0,,,,,,,,,,,,,,,,,1417.5254442002624,None,1418.2760693002492,1418.8760168999434,1418.8594845999032,1420.8599717998877,None,1,0.6123105995357037,2.6127669997513294,increament,0.6,45,standard,None,100,,,,,,,,f,23,227,fr,r,0,raw,2022-07-05_10h29.15.215,oddball,2022.1.2,59.917517489338074,
20,,,,,0,1,1,3,0,0,0,0,13,0,13,0,,,,,,,,,,,,,,,,,1420.8770058006048,None,1421.5436658998951,1422.5109529001638,1422.4776464998722,1424.478202700615,j,1,0.9624030003324151,2.9630046002566814,increament,0.96,48,oddball,j,160,0.4807473998516798,,,,,,,f,23,227,fr,r,0,raw,2022-07-05_10h29.15.215,oddball,2022.1.2,59.917517489338074,
