grating_freq,blocks_prac.thisRepN,blocks_prac.thisTrialN,blocks_prac.thisN,blocks_prac.thisIndex,blocks.thisRepN,blocks.thisTrialN,blocks.thisN,blocks.thisIndex,repeat_freq.thisRepN,repeat_freq.thisTrialN,repeat_freq.thisN,repeat_freq.thisIndex,trials.thisRepN,trials.thisTrialN,trials.thisN,trials.thisIndex,break_loop.thisRepN,break_loop.thisTrialN,break_loop.thisN,break_loop.thisIndex,rest_loop.thisRepN,rest_loop.thisTrialN,rest_loop.thisN,rest_loop.thisIndex,instruct_prac_text.started,instruct_prac_text.stopped,b_instruct_text_2_.started,b_instruct_text_2_.stopped,prac_done_text.started,prac_done_text.stopped,instruct_text.started,instruct_text.stopped,fixation.started,fixation.stopped,grating.started,grating.stopped,blank.started,blank.stopped,resp.keys,resp.corr,resp.started,resp.stopped,direction,duration,trigger,stim_type,corr_ans,scaling,resp.rt,rest_text.started,rest_text.stopped,text_2.started,text_2.stopped,thx_txt.started,thx_txt.stopped,gender,age,participant,language,main_hand,nBlock_prac,file_suffix,date,expName,psychopyVersion,frameRate,
5,,,,,0,0,0,1,0,0,0,0,0,0,0,0,,,,,,,,,32.045861599966884,None,35.037441899999976,None,35.430255100131035,None,39.4260098002851,None,42.50666500069201,None,43.39706709980965,44.00726140011102,43.956987200304866,45.957867099903524,None,1,0.6102023301646113,2.6110327299684286,increament,0.6,15,standard,None,100,,,,,,,,f,35,229,fr,r,0,raw,2022-07-06_15h40.43.588,oddball,2022.1.2,59.92670964809513,
5,,,,,0,0,0,1,0,0,0,0,1,0,1,0,,,,,,,,,,,,,,,,,45.974565899930894,None,46.62513610068709,47.22488970030099,47.20835939981043,49.209159600548446,None,1,0.612326130270958,2.6131568299606442,increament,0.6,15,standard,None,100,,,,,,,,f,35,229,fr,r,0,raw,2022-07-06_15h40.43.588,oddball,2022.1.2,59.92670964809513,
5,,,,,0,0,0,1,0,0,0,0,2,0,2,0,,,,,,,,,,,,,,,,,49.22561770025641,None,49.92633180040866,50.52656390052289,50.509578600525856,52.51031559985131,None,1,0.6091838320717216,2.6098853312432766,increament,0.6,15,standard,None,100,,,,,,,,f,35,229,fr,r,0,raw,2022-07-06_15h40.43.588,oddball,2022.1.2,59.92670964809513,
5,,,,,0,0,0,1,0,0,0,0,3,0,3,0,,,,,,,,,,,,,,,,,52.52715199999511,None,53.093836300075054,53.694384700618684,53.6776203000918,55.67852170020342,None,1,0.6134552313014865,2.614330330863595,increament,0.6,15,standard,None,100,,,,,,,,f,35,229,fr,r,0,raw,2022-07-06_15h40.43.588,oddball,2022.1.2,59.92670964809513,
5,,,,,0,0,0,1,0,0,0,0,4,0,4,0,,,,,,,,,,,,,,,,,55.695120099931955,None,56.36165540013462,56.961845700629056,56.945265100337565,58.9464186001569,None,1,0.6120556304231286,2.6133182300254703,increament,0.6,15,standard,None,100,,,,,,,,f,35,229,fr,r,0,raw,2022-07-06_15h40.43.588,oddball,2022.1.2,59.92670964809513,
5,,,,,0,0,0,1,0,0,0,0,5,0,5,0,,,,,,,,,,,,,,,,,58.96259010024369,None,59.64623349998146,60.2465475006029,60.229817599989474,62.2311770003289,None,1,0.613264930434525,2.6147103309631348,increament,0.6,15,standard,None,100,,,,,,,,f,35,229,fr,r,0,raw,2022-07-06_15h40.43.588,oddball,2022.1.2,59.92670964809513,
5,,,,,0,0,0,1,0,0,0,0,6,0,6,0,,,,,,,,,,,,,,,,,62.247560599818826,None,62.88085430022329,63.480881600640714,63.46467090025544,65.46532370056957,None,1,0.6136364303529263,2.614232731051743,increament,0.6,15,standard,None,100,,,,,,,,f,35,229,fr,r,0,raw,2022-07-06_15h40.43.588,oddball,2022.1.2,59.92670964809513,
5,,,,,0,0,0,1,0,0,0,0,7,0,7,0,,,,,,,,,,,,,,,,,65.4818518999964,None,66.24885090067983,66.84908349998295,66.83240929991007,68.8333525005728,None,1,0.6121640307828784,2.6131418300792575,increament,0.6,15,standard,None,100,,,,,,,,f,35,229,fr,r,0,raw,2022-07-06_15h40.43.588,oddball,2022.1.2,59.92670964809513,
5,,,,,0,0,0,1,0,0,0,0,8,0,8,0,,,,,,,,,,,,,,,,,68.85011610016227,None,69.56705579999834,70.16703139990568,70.15041160024703,72.15099340025336,None,1,0.6130220303311944,2.613653030246496,increament,0.6,15,standard,None,100,,,,,,,,f,35,229,fr,r,0,raw,2022-07-06_15h40.43.588,oddball,2022.1.2,59.92670964809513,
5,,,,,0,0,0,1,0,0,0,0,9,0,9,0,,,,,,,,,,,,,,,,,72.16796439979225,None,72.73480449989438,73.33504649996758,73.31824410054833,75.3188859000802,None,1,0.6084992298856378,2.6091134306043386,increament,0.6,15,standard,None,100,,,,,,,,f,35,229,fr,r,0,raw,2022-07-06_15h40.43.588,oddball,2022.1.2,59.92670964809513,
5,,,,,0,0,0,1,0,0,0,0,10,0,10,0,,,,,,,,,,,,,,,,,75.33542389981449,None,76.08598600048572,76.68641630001366,76.66995720006526,78.67049460019916,None,1,0.6130804307758808,2.613615831360221,increament,0.6,15,standard,None,100,,,,,,,,f,35,229,fr,r,0,raw,2022-07-06_15h40.43.588,oddball,2022.1.2,59.92670964809513,
5,,,,,0,0,0,1,0,0,0,0,11,0,11,0,,,,,,,,,,,,,,,,,78.68752820044756,None,79.4371824003756,80.17066949978471,80.13740549981594,82.13835000060499,None,0,0.7301934314891696,2.7311577312648296,increament,0.72,16,oddball,j,120,,,,,,,,f,35,229,fr,r,0,raw,2022-07-06_15h40.43.588,oddball,2022.1.2,59.92670964809513,
5,,,,,0,0,0,1,0,0,0,0,12,0,12,0,,,,,,,,,,,,,,,,,82.1549570998177,None,82.88844070024788,83.48842380009592,83.47253380063921,85.47283750027418,None,1,0.6134631307795644,2.6136978305876255,increament,0.6,15,standard,None,100,,,,,,,,f,35,229,fr,r,0,raw,2022-07-06_15h40.43.588,oddball,2022.1.2,59.92670964809513,
5,,,,,0,0,0,1,0,0,0,0,13,0,13,0,,,,,,,,,,,,,,,,,85.48948170058429,None,86.28981770016253,86.88984030019492,86.87316800002009,88.87461400032043,None,1,0.6138192303478718,2.6154202297329903,increament,0.6,15,standard,None,100,,,,,,,,f,35,229,fr,r,0,raw,2022-07-06_15h40.43.588,oddball,2022.1.2,59.92670964809513,
5,,,,,0,0,0,1,0,0,0,0,14,0,14,0,,,,,,,,,,,,,,,,,88.89132300019264,None,89.54110080003738,90.14135840069503,90.12475080043077,92.12553730048239,None,1,0.6123277312144637,2.6131582306697965,increament,0.6,15,standard,None,100,,,,,,,,f,35,229,fr,r,0,raw,2022-07-06_15h40.43.588,oddball,2022.1.2,59.92670964809513,
5,,,,,0,0,0,1,0,0,0,0,15,0,15,0,,,,,,,,,,,,,,,,,92.14267520047724,None,92.7924509998411,93.39259009994566,93.37612539995462,95.376813900657,None,1,0.6122080311179161,2.61290733050555,increament,0.6,15,standard,None,100,,,,,,,,f,35,229,fr,r,0,raw,2022-07-06_15h40.43.588,oddball,2022.1.2,59.92670964809513,
5,,,,,0,0,0,1,0,0,0,0,16,0,16,0,,,,,,,,,,,,,,,,,95.39344620052725,None,96.01011710055172,96.61031389981508,96.59358180034906,98.59441960044205,None,1,0.612097330391407,2.612939029932022,increament,0.6,15,standard,None,100,,,,,,,,f,35,229,fr,r,0,raw,2022-07-06_15h40.43.588,oddball,2022.1.2,59.92670964809513,
5,,,,,0,0,0,1,0,0,0,0,17,0,17,0,,,,,,,,,,,,,,,,,98.61118330061436,None,99.29489229992032,99.89486060012132,99.87816040031612,101.8789242003113,None,1,0.6111400304362178,2.6118902303278446,increament,0.6,15,standard,None,100,,,,,,,,f,35,229,fr,r,0,raw,2022-07-06_15h40.43.588,oddball,2022.1.2,59.92670964809513,
5,,,,,0,0,0,1,0,0,0,0,18,0,18,0,,,,,,,,,,,,,,,,,101.89584190025926,None,102.4958271002397,103.09637700021267,103.07991890050471,105.07999469991773,None,1,0.612244931049645,2.612219230271876,increament,0.6,15,standard,None,100,,,,,,,,f,35,229,fr,r,0,raw,2022-07-06_15h40.43.588,oddball,2022.1.2,59.92670964809513,
5,,,,,0,0,0,1,0,0,0,0,19,0,19,0,,,,,,,,,,,,,,,,,105.09678060002625,None,105.6804379997775,106.2808250002563,106.26418660022318,108.26470249984413,None,1,0.6089029302820563,2.6094368305057287,increament,0.6,15,standard,None,100,,,,,,,,f,35,229,fr,r,0,raw,2022-07-06_15h40.43.588,oddball,2022.1.2,59.92670964809513,
5,,,,,0,0,0,1,0,0,0,0,20,0,20,0,,,,,,,,,,,,,,,,,108.2815049001947,None,108.898815699853,109.74908030033112,109.7158094001934,111.7162607004866,j,1,0.8442825311794877,2.8446726305410266,increament,0.84,17,oddball,j,140,0.5274163000285625,,,,,,,f,35,229,fr,r,0,raw,2022-07-06_15h40.43.588,oddball,2022.1.2,59.92670964809513,
5,,,,,0,0,0,1,0,0,0,0,21,0,21,0,,,,,,,,,,,,,,,,,111.73268759995699,None,112.3997036004439,112.9998107003048,112.98307640012354,114.98402260057628,None,1,0.6118107307702303,2.6128346314653754,increament,0.6,15,standard,None,100,,,,,,,,f,35,229,fr,r,0,raw,2022-07-06_15h40.43.588,oddball,2022.1.2,59.92670964809513,
5,,,,,0,0,0,1,0,0,0,0,22,0,22,0,,,,,,,,,,,,,,,,,115.00070750061423,None,115.60091050062329,116.20109979994595,116.18436070065945,118.18507860042155,None,1,0.6104105310514569,2.6112747313454747,increament,0.6,15,standard,None,100,,,,,,,,f,35,229,fr,r,0,raw,2022-07-06_15h40.43.588,oddball,2022.1.2,59.92670964809513,
5,,,,,0,0,0,1,0,0,0,0,23,0,23,0,,,,,,,,,,,,,,,,,118.20203080028296,None,118.85210609994829,119.45215110015124,119.43574160058051,121.43667580001056,None,1,0.6123976297676563,2.613412030041218,increament,0.6,15,standard,None,100,,,,,,,,f,35,229,fr,r,0,raw,2022-07-06_15h40.43.588,oddball,2022.1.2,59.92670964809513,
5,,,,,0,0,0,1,0,0,0,0,24,0,24,0,,,,,,,,,,,,,,,,,121.45303119998425,None,122.10336299985647,122.70397009979934,122.68722529988736,124.68816410005093,None,1,0.6131892306730151,2.6141096306964755,increament,0.6,15,standard,None,100,,,,,,,,f,35,229,fr,r,0,raw,2022-07-06_15h40.43.588,oddball,2022.1.2,59.92670964809513,
5,,,,,0,0,0,1,0,0,0,0,25,0,25,0,,,,,,,,,,,,,,,,,124.70547690056264,None,125.57158430013806,126.17147000040859,126.15482110064477,128.15560889989138,None,1,0.6092410301789641,2.6100062308833003,increament,0.6,15,standard,None,100,,,,,,,,f,35,229,fr,r,0,raw,2022-07-06_15h40.43.588,oddball,2022.1.2,59.92670964809513,
5,,,,,0,0,0,1,0,0,0,0,26,0,26,0,,,,,,,,,,,,,,,,,128.17209290061146,None,128.78924580011517,129.38963190000504,129.37314680032432,131.37345140054822,None,1,0.6098200306296349,2.6100577311590314,increament,0.6,15,standard,None,100,,,,,,,,f,35,229,fr,r,0,raw,2022-07-06_15h40.43.588,oddball,2022.1.2,59.92670964809513,
5,,,,,0,0,0,1,0,0,0,0,27,0,27,0,,,,,,,,,,,,,,,,,131.39021370001137,None,132.12388690002263,132.72412940021604,132.70731190033257,134.70803230069578,None,1,0.6124512301757932,2.6131458301097155,increament,0.6,15,standard,None,100,,,,,,,,f,35,229,fr,r,0,raw,2022-07-06_15h40.43.588,oddball,2022.1.2,59.92670964809513,
5,,,,,0,0,0,1,0,0,0,0,28,0,28,0,,,,,,,,,,,,,,,,,134.724665700458,None,135.47497220057994,136.44204870052636,136.40885770041496,138.40945280063897,j,1,0.9637889312580228,2.964355930685997,increament,0.96,18,oddball,j,160,0.4014201993122697,,,,,,,f,35,229,fr,r,0,raw,2022-07-06_15h40.43.588,oddball,2022.1.2,59.92670964809513,
5,,,,,0,0,0,1,0,0,0,0,29,0,29,0,,,,,,,,,,,,,,,,,138.42621900048107,None,139.0765888998285,139.6769232004881,139.6605373006314,141.6606426006183,None,1,0.6131137302145362,2.6131880301982164,increament,0.6,15,standard,None,100,,,,,,,,f,35,229,fr,r,0,raw,2022-07-06_15h40.43.588,oddball,2022.1.2,59.92670964809513,
5,,,,,0,0,0,1,1,0,1,0,0,0,0,0,,,,,,,,,,,,,,,143.04989130049944,None,145.3786521004513,None,145.9622194999829,146.56253740005195,146.5460517005995,148.54649160057306,None,1,0.6131055299192667,2.6135327303782105,decreament,0.6,11,standard,None,100,,141.677642500028,None,,,,,f,35,229,fr,r,0,raw,2022-07-06_15h40.43.588,oddball,2022.1.2,59.92670964809513,
5,,,,,0,0,0,1,1,0,1,0,1,0,1,0,,,,,,,,,,,,,,,,,148.5634681005031,None,149.28041190002114,149.88066519983113,149.8639314007014,151.86431729979813,None,1,0.6101952316239476,2.6105272313579917,decreament,0.6,11,standard,None,100,,,,,,,,f,35,229,fr,r,0,raw,2022-07-06_15h40.43.588,oddball,2022.1.2,59.92670964809513,
5,,,,,0,0,0,1,1,0,1,0,2,0,2,0,,,,,,,,,,,,,,,,,151.88102180045098,None,152.56494180019945,153.16527110058814,153.14870959986,155.14974430017173,None,1,0.6133032310754061,2.6143363313749433,decreament,0.6,11,standard,None,100,,,,,,,,f,35,229,fr,r,0,raw,2022-07-06_15h40.43.588,oddball,2022.1.2,59.92670964809513,
5,,,,,0,0,0,1,1,0,1,0,3,0,3,0,,,,,,,,,,,,,,,,,155.1668071001768,None,155.8326897006482,156.43331030011177,156.41626820061356,158.4175730003044,None,1,0.6092628305777907,2.610623930580914,decreament,0.6,11,standard,None,100,,,,,,,,f,35,229,fr,r,0,raw,2022-07-06_15h40.43.588,oddball,2022.1.2,59.92670964809513,
5,,,,,0,0,0,1,1,0,1,0,4,0,4,0,,,,,,,,,,,,,,,,,158.43442520033568,None,159.06732090003788,159.66759719979018,159.6509354999289,161.6518043000251,None,1,0.6092552300542593,2.6101807300001383,decreament,0.6,11,standard,None,100,,,,,,,,f,35,229,fr,r,0,raw,2022-07-06_15h40.43.588,oddball,2022.1.2,59.92670964809513,
5,,,,,0,0,0,1,1,0,1,0,5,0,5,0,,,,,,,,,,,,,,,,,161.6681893998757,None,162.25202300027013,162.50177040044218,162.4689576998353,164.46921990066767,j,1,0.24380503129214048,2.2439766312018037,decreament,0.24,12,oddball,j,40,0.662339199334383,,,,,,,f,35,229,fr,r,0,raw,2022-07-06_15h40.43.588,oddball,2022.1.2,59.92670964809513,
5,,,,,0,0,0,1,1,0,1,0,6,0,6,0,,,,,,,,,,,,,,,,,164.4860281003639,None,165.01984020043164,165.61995640024543,165.60348410066217,167.6041596001014,None,1,0.6094303298741579,2.6100856298580766,decreament,0.6,11,standard,None,100,,,,,,,,f,35,229,fr,r,0,raw,2022-07-06_15h40.43.588,oddball,2022.1.2,59.92670964809513,
5,,,,,0,0,0,1,1,0,1,0,7,0,7,0,,,,,,,,,,,,,,,,,167.62167969997972,None,168.3375789001584,168.93802350014448,168.92133439984173,170.92173979990184,None,1,0.6131106298416853,2.613445329479873,decreament,0.6,11,standard,None,100,,,,,,,,f,35,229,fr,r,0,raw,2022-07-06_15h40.43.588,oddball,2022.1.2,59.92670964809513,
5,,,,,0,0,0,1,1,0,1,0,8,0,8,0,,,,,,,,,,,,,,,,,170.93860840052366,None,171.50515830051154,172.10610020067543,172.08952810056508,174.08987519983202,j,0,0.6133204298093915,2.6136124301701784,decreament,0.6,11,standard,None,100,0.8817849000915885,,,,,,,f,35,229,fr,r,0,raw,2022-07-06_15h40.43.588,oddball,2022.1.2,59.92670964809513,
5,,,,,0,0,0,1,1,0,1,0,9,0,9,0,,,,,,,,,,,,,,,,,174.10633360035717,None,174.7402201006189,175.34012630023062,175.32376379985362,177.32421089988202,None,1,0.6127032311633229,2.6130782309919596,decreament,0.6,11,standard,None,100,,,,,,,,f,35,229,fr,r,0,raw,2022-07-06_15h40.43.588,oddball,2022.1.2,59.92670964809513,
5,,,,,0,0,0,1,1,0,1,0,10,0,10,0,,,,,,,,,,,,,,,,,177.34088059980422,None,178.14126109983772,178.74134980048984,178.72486170008779,180.72566890064627,None,1,0.6116077303886414,2.6124178301542997,decreament,0.6,11,standard,None,100,,,,,,,,f,35,229,fr,r,0,raw,2022-07-06_15h40.43.588,oddball,2022.1.2,59.92670964809513,
5,,,,,0,0,0,1,1,0,1,0,11,0,11,0,,,,,,,,,,,,,,,,,180.74246690049767,None,181.35947030037642,181.84296500030905,181.82661860063672,183.82696649990976,j,1,0.49425063095986843,2.4945168308913708,decreament,0.48,14,oddball,j,80,0.5847795000299811,,,,,,,f,35,229,fr,r,0,raw,2022-07-06_15h40.43.588,oddball,2022.1.2,59.92670964809513,
5,,,,,0,0,0,1,1,0,1,0,12,0,12,0,,,,,,,,,,,,,,,,,183.84353009983897,None,184.51062360033393,185.11057920008898,185.09412200003862,187.0944432001561,None,1,0.6096029309555888,2.609866731800139,decreament,0.6,11,standard,None,100,,,,,,,,f,35,229,fr,r,0,raw,2022-07-06_15h40.43.588,oddball,2022.1.2,59.92670964809513,
5,,,,,0,0,0,1,1,0,1,0,13,0,13,0,,,,,,,,,,,,,,,,,187.11145790014416,None,187.81190320011228,188.41200880054384,188.39575990010053,190.39617000054568,None,1,0.6108174314722419,2.611223731189966,decreament,0.6,11,standard,None,100,,,,,,,,f,35,229,fr,r,0,raw,2022-07-06_15h40.43.588,oddball,2022.1.2,59.92670964809513,
5,,,,,0,0,0,1,1,0,1,0,14,0,14,0,,,,,,,,,,,,,,,,,190.41250659991056,None,191.1130456002429,191.7131655998528,191.69657339993864,193.69763860013336,None,1,0.6111436299979687,2.6122242296114564,decreament,0.6,11,standard,None,100,,,,,,,,f,35,229,fr,r,0,raw,2022-07-06_15h40.43.588,oddball,2022.1.2,59.92670964809513,
5,,,,,0,0,0,1,1,0,1,0,15,0,15,0,,,,,,,,,,,,,,,,,193.71365089993924,None,194.3807858005166,194.9814336001873,194.96457909978926,196.96505330037326,None,1,0.6128009296953678,2.6134160300716758,decreament,0.6,11,standard,None,100,,,,,,,,f,35,229,fr,r,0,raw,2022-07-06_15h40.43.588,oddball,2022.1.2,59.92670964809513,
5,,,,,0,0,0,1,1,0,1,0,16,0,16,0,,,,,,,,,,,,,,,,,196.98160019982606,None,197.63222840055823,198.23237949982285,198.21603310015053,200.216217700392,None,1,0.6109711304306984,2.611076829954982,decreament,0.6,11,standard,None,100,,,,,,,,f,35,229,fr,r,0,raw,2022-07-06_15h40.43.588,oddball,2022.1.2,59.92670964809513,
5,,,,,0,0,0,1,1,0,1,0,17,0,17,0,,,,,,,,,,,,,,,,,200.2327206004411,None,201.00023430027068,201.5999774998054,201.58349649980664,203.5840524006635,None,1,0.6095755295827985,2.610130329616368,decreament,0.6,11,standard,None,100,,,,,,,,f,35,229,fr,r,0,raw,2022-07-06_15h40.43.588,oddball,2022.1.2,59.92670964809513,
5,,,,,0,0,0,1,1,0,1,0,18,0,18,0,,,,,,,,,,,,,,,,,203.60103780031204,None,204.38444249983877,204.9848893005401,204.96822459995747,206.9690637998283,None,1,0.6109351310878992,2.6118099307641387,decreament,0.6,11,standard,None,100,,,,,,,,f,35,229,fr,r,0,raw,2022-07-06_15h40.43.588,oddball,2022.1.2,59.92670964809513,
5,,,,,0,0,0,1,1,0,1,0,19,0,19,0,,,,,,,,,,,,,,,,,206.9864739999175,None,207.61859050020576,208.2191804004833,208.18622709996998,210.18697740044445,None,1,0.5994796305894852,2.600253530777991,decreament,0.6,11,standard,None,100,,,,,,,,f,35,229,fr,r,0,raw,2022-07-06_15h40.43.588,oddball,2022.1.2,59.92670964809513,
5,,,,,0,0,0,1,1,0,1,0,20,0,20,0,,,,,,,,,,,,,,,,,210.20345540065318,None,210.87021420057863,211.4710713000968,211.45415400061756,213.45478700008243,None,1,0.6123756300657988,2.612944229505956,decreament,0.6,11,standard,None,100,,,,,,,,f,35,229,fr,r,0,raw,2022-07-06_15h40.43.588,oddball,2022.1.2,59.92670964809513,
5,,,,,0,0,0,1,1,0,1,0,21,0,21,0,,,,,,,,,,,,,,,,,213.4712848002091,None,214.28825089987367,214.8886927999556,214.87188419979066,216.87243659980595,None,1,0.6122857313603163,2.6128155309706926,decreament,0.6,11,standard,None,100,,,,,,,,f,35,229,fr,r,0,raw,2022-07-06_15h40.43.588,oddball,2022.1.2,59.92670964809513,
5,,,,,0,0,0,1,1,0,1,0,22,0,22,0,,,,,,,,,,,,,,,,,216.88945270050317,None,217.45670920051634,218.05617190059274,218.0395213002339,220.040499499999,None,1,0.6090929303318262,2.610131130553782,decreament,0.6,11,standard,None,100,,,,,,,,f,35,229,fr,r,0,raw,2022-07-06_15h40.43.588,oddball,2022.1.2,59.92670964809513,
5,,,,,0,0,0,1,1,0,1,0,23,0,23,0,,,,,,,,,,,,,,,,,220.05726580042392,None,220.6244860002771,221.22424640040845,221.207631200552,223.20845810044557,None,1,0.6093698302283883,2.6102011306211352,decreament,0.6,11,standard,None,100,,,,,,,,f,35,229,fr,r,0,raw,2022-07-06_15h40.43.588,oddball,2022.1.2,59.92670964809513,
5,,,,,0,0,0,1,1,0,1,0,24,0,24,0,,,,,,,,,,,,,,,,,223.22495640069246,None,223.77520269993693,224.37559320032597,224.35894350055605,226.35950850043446,None,1,0.6134591307491064,2.613981230184436,decreament,0.6,11,standard,None,100,,,,,,,,f,35,229,fr,r,0,raw,2022-07-06_15h40.43.588,oddball,2022.1.2,59.92670964809513,
5,,,,,0,0,0,1,1,0,1,0,25,0,25,0,,,,,,,,,,,,,,,,,226.37593440059572,None,226.95988210011274,227.5597215006128,227.5431371005252,229.54428900033236,None,1,0.6099807294085622,2.611212929710746,decreament,0.6,11,standard,None,100,,,,,,,,f,35,229,fr,r,0,raw,2022-07-06_15h40.43.588,oddball,2022.1.2,59.92670964809513,
5,,,,,0,0,0,1,1,0,1,0,26,0,26,0,,,,,,,,,,,,,,,,,229.56066399998963,None,230.29479090031236,230.66144340019673,230.62792700063437,232.62846630066633,j,1,0.35917463060468435,2.3596603302285075,decreament,0.36,13,oddball,j,60,0.65488709975034,,,,,,,f,35,229,fr,r,0,raw,2022-07-06_15h40.43.588,oddball,2022.1.2,59.92670964809513,
5,,,,,0,0,0,1,1,0,1,0,27,0,27,0,,,,,,,,,,,,,,,,,232.64521910063922,None,233.17855230066925,233.77909230068326,233.7622891999781,235.76344690006226,None,1,0.6139662312343717,2.615150230936706,decreament,0.6,11,standard,None,100,,,,,,,,f,35,229,fr,r,0,raw,2022-07-06_15h40.43.588,oddball,2022.1.2,59.92670964809513,
5,,,,,0,0,0,1,1,0,1,0,28,0,28,0,,,,,,,,,,,,,,,,,235.77986040059477,None,236.3466103002429,236.94720489997417,236.93058149982244,238.93146430049092,None,1,0.6125667309388518,2.6134561309590936,decreament,0.6,11,standard,None,100,,,,,,,,f,35,229,fr,r,0,raw,2022-07-06_15h40.43.588,oddball,2022.1.2,59.92670964809513,
5,,,,,0,0,0,1,1,0,1,0,29,0,29,0,,,,,,,,,,,,,,,,,238.94877280015498,None,239.63113960064948,240.2312209000811,240.21489160042256,242.21538380067796,None,1,0.6105078291147947,2.610985029488802,decreament,0.6,11,standard,None,100,,,,,,,,f,35,229,fr,r,0,raw,2022-07-06_15h40.43.588,oddball,2022.1.2,59.92670964809513,
5,,,,,0,0,0,1,2,0,2,0,0,0,0,0,,,,,,,,,,,,,,,244.71703280042857,None,246.66715320013463,None,247.33438690006733,247.93466190062463,247.91826570034027,249.91883630026132,None,1,0.6087364312261343,2.609282731078565,increament,0.6,15,standard,None,100,,242.23260700050741,None,,,,,f,35,229,fr,r,0,raw,2022-07-06_15h40.43.588,oddball,2022.1.2,59.92670964809513,
5,,,,,0,0,0,1,2,0,2,0,1,0,1,0,,,,,,,,,,,,,,,,,249.93560840003192,None,250.48553489986807,251.08563470002264,251.06889209989458,253.0696389004588,None,1,0.6102534299716353,2.611009629443288,increament,0.6,15,standard,None,100,,,,,,,,f,35,229,fr,r,0,raw,2022-07-06_15h40.43.588,oddball,2022.1.2,59.92670964809513,
5,,,,,0,0,0,1,2,0,2,0,2,0,2,0,,,,,,,,,,,,,,,,,253.08644710015506,None,253.70362360030413,254.30374119989574,254.28695000056177,256.288024100475,None,1,0.6107786297798157,2.6118695298209786,increament,0.6,15,standard,None,100,,,,,,,,f,35,229,fr,r,0,raw,2022-07-06_15h40.43.588,oddball,2022.1.2,59.92670964809513,
5,,,,,0,0,0,1,2,0,2,0,3,0,3,0,,,,,,,,,,,,,,,,,256.305323000066,None,256.82125459983945,257.42166080046445,257.40476460009813,259.4054067004472,None,1,0.6119819302111864,2.612568129785359,increament,0.6,15,standard,None,100,,,,,,,,f,35,229,fr,r,0,raw,2022-07-06_15h40.43.588,oddball,2022.1.2,59.92670964809513,
5,,,,,0,0,0,1,2,0,2,0,4,0,4,0,,,,,,,,,,,,,,,,,259.42219190020114,None,260.1225196002051,260.7226579999551,260.7060918007046,262.7070906003937,None,1,0.609558030962944,2.6109706312417984,increament,0.6,15,standard,None,100,,,,,,,,f,35,229,fr,r,0,raw,2022-07-06_15h40.43.588,oddball,2022.1.2,59.92670964809513,
5,,,,,0,0,0,1,2,0,2,0,5,0,5,0,,,,,,,,,,,,,,,,,262.7243987005204,None,263.35674760024995,263.957382700406,263.9405746003613,265.9410677002743,None,1,0.6089526312425733,2.609443730674684,increament,0.6,15,standard,None,100,,,,,,,,f,35,229,fr,r,0,raw,2022-07-06_15h40.43.588,oddball,2022.1.2,59.92670964809513,
5,,,,,0,0,0,1,2,0,2,0,6,0,6,0,,,,,,,,,,,,,,,,,265.9580196002498,None,266.6579466005787,267.2582641998306,267.24193579982966,269.2425902998075,None,1,0.6139082303270698,2.6145783299580216,increament,0.6,15,standard,None,100,,,,,,,,f,35,229,fr,r,0,raw,2022-07-06_15h40.43.588,oddball,2022.1.2,59.92670964809513,
5,,,,,0,0,0,1,2,0,2,0,7,0,7,0,,,,,,,,,,,,,,,,,269.2597874002531,None,269.89292210061103,270.8595262998715,270.82642399985343,272.82721639983356,j,1,0.9626901298761368,2.9635470304638147,increament,0.96,18,oddball,j,160,0.3772678002715111,,,,,,,f,35,229,fr,r,0,raw,2022-07-06_15h40.43.588,oddball,2022.1.2,59.92670964809513,
5,,,,,0,0,0,1,2,0,2,0,8,0,8,0,,,,,,,,,,,,,,,,,272.8435213007033,None,273.62720829993486,274.22771450039,274.21123640052974,276.2116779005155,None,1,0.6139157302677631,2.614280130714178,increament,0.6,15,standard,None,100,,,,,,,,f,35,229,fr,r,0,raw,2022-07-06_15h40.43.588,oddball,2022.1.2,59.92670964809513,
5,,,,,0,0,0,1,2,0,2,0,9,0,9,0,,,,,,,,,,,,,,,,,276.2283538002521,None,276.99531210027635,277.5954905003309,277.57890610024333,279.57964950054884,None,1,0.612380531616509,2.6131384316831827,increament,0.6,15,standard,None,100,,,,,,,,f,35,229,fr,r,0,raw,2022-07-06_15h40.43.588,oddball,2022.1.2,59.92670964809513,
5,,,,,0,0,0,1,2,0,2,0,10,0,10,0,,,,,,,,,,,,,,,,,279.59629830066115,None,280.19666360039264,280.7970224004239,280.7802349003032,282.78124149981886,None,1,0.6108096307143569,2.6118549313396215,increament,0.6,15,standard,None,100,,,,,,,,f,35,229,fr,r,0,raw,2022-07-06_15h40.43.588,oddball,2022.1.2,59.92670964809513,
5,,,,,0,0,0,1,2,0,2,0,11,0,11,0,,,,,,,,,,,,,,,,,282.79747940041125,None,283.3145647002384,283.91502420045435,283.89840590022504,285.8988874005154,None,1,0.6110199308022857,2.611480330117047,increament,0.6,15,standard,None,100,,,,,,,,f,35,229,fr,r,0,raw,2022-07-06_15h40.43.588,oddball,2022.1.2,59.92670964809513,
5,,,,,0,0,0,1,2,0,2,0,12,0,12,0,,,,,,,,,,,,,,,,,285.91521180048585,None,286.59934550058097,287.332352200523,287.2994888005778,289.299895000644,j,1,0.7279461296275258,2.728276429697871,increament,0.72,16,oddball,j,120,0.4711726000532508,,,,,,,f,35,229,fr,r,0,raw,2022-07-06_15h40.43.588,oddball,2022.1.2,59.92670964809513,
5,,,,,0,0,0,1,2,0,2,0,13,0,13,0,,,,,,,,,,,,,,,,,289.3164935000241,None,289.96715020015836,290.56765120010823,290.5506549999118,292.5511189000681,None,1,0.6090793311595917,2.6095091309398413,increament,0.6,15,standard,None,100,,,,,,,,f,35,229,fr,r,0,raw,2022-07-06_15h40.43.588,oddball,2022.1.2,59.92670964809513,
5,,,,,0,0,0,1,2,0,2,0,14,0,14,0,,,,,,,,,,,,,,,,,292.5678788004443,None,293.25178620032966,293.85194380022585,293.8352004000917,295.8359455000609,None,1,0.6102727307006717,2.6110167307779193,increament,0.6,15,standard,None,100,,,,,,,,f,35,229,fr,r,0,raw,2022-07-06_15h40.43.588,oddball,2022.1.2,59.92670964809513,
5,,,,,0,0,0,1,2,0,2,0,15,0,15,0,,,,,,,,,,,,,,,,,295.85263620037585,None,296.7361972006038,297.33637190051377,297.32014680001885,299.32070000004023,None,1,0.6094881305471063,2.6100586308166385,increament,0.6,15,standard,None,100,,,,,,,,f,35,229,fr,r,0,raw,2022-07-06_15h40.43.588,oddball,2022.1.2,59.92670964809513,
5,,,,,0,0,0,1,2,0,2,0,16,0,16,0,,,,,,,,,,,,,,,,,299.3378934003413,None,299.98729149997234,300.5874878000468,300.5711489999667,302.57157960068434,None,1,0.6142043313011527,2.614631230942905,increament,0.6,15,standard,None,100,,,,,,,,f,35,229,fr,r,0,raw,2022-07-06_15h40.43.588,oddball,2022.1.2,59.92670964809513,
5,,,,,0,0,0,1,2,0,2,0,17,0,17,0,,,,,,,,,,,,,,,,,302.5885709002614,None,303.3219485003501,303.92250580061227,303.9060110999271,305.9062061002478,j,0,0.6122098295018077,2.6123574301600456,increament,0.6,15,standard,None,100,0.6249831998720765,,,,,,,f,35,229,fr,r,0,raw,2022-07-06_15h40.43.588,oddball,2022.1.2,59.92670964809513,
5,,,,,0,0,0,1,2,0,2,0,18,0,18,0,,,,,,,,,,,,,,,,,305.9229715000838,None,306.57303010020405,307.17339040059596,307.15704790037125,309.1576482998207,None,1,0.6127852303907275,2.61341003049165,increament,0.6,15,standard,None,100,,,,,,,,f,35,229,fr,r,0,raw,2022-07-06_15h40.43.588,oddball,2022.1.2,59.92670964809513,
5,,,,,0,0,0,1,2,0,2,0,19,0,19,0,,,,,,,,,,,,,,,,,309.17429430037737,None,309.75779310055077,310.3580809002742,310.3412870001048,312.3423171006143,None,1,0.6092019313946366,2.61043213121593,increament,0.6,15,standard,None,100,,,,,,,,f,35,229,fr,r,0,raw,2022-07-06_15h40.43.588,oddball,2022.1.2,59.92670964809513,
5,,,,,0,0,0,1,2,0,2,0,20,0,20,0,,,,,,,,,,,,,,,,,312.3587476005778,None,312.892380900681,313.49272210057825,313.47592840064317,315.476813999936,None,1,0.6122585302218795,2.613041330128908,increament,0.6,15,standard,None,100,,,,,,,,f,35,229,fr,r,0,raw,2022-07-06_15h40.43.588,oddball,2022.1.2,59.92670964809513,
5,,,,,0,0,0,1,2,0,2,0,21,0,21,0,,,,,,,,,,,,,,,,,315.4930541003123,None,316.0768835004419,316.67717210017145,316.66025750059634,318.66136030014604,None,1,0.6121561294421554,2.613338129594922,increament,0.6,15,standard,None,100,,,,,,,,f,35,229,fr,r,0,raw,2022-07-06_15h40.43.588,oddball,2022.1.2,59.92670964809513,
5,,,,,0,0,0,1,2,0,2,0,22,0,22,0,,,,,,,,,,,,,,,,,318.67830830067396,None,319.4279549000785,320.02833390049636,320.0116576002911,322.01225670054555,None,1,0.6123447306454182,2.612932431511581,increament,0.6,15,standard,None,100,,,,,,,,f,35,229,fr,r,0,raw,2022-07-06_15h40.43.588,oddball,2022.1.2,59.92670964809513,
5,,,,,0,0,0,1,2,0,2,0,23,0,23,0,,,,,,,,,,,,,,,,,322.02933809999377,None,322.76281160023063,323.3628524001688,323.34650349989533,325.3472571000457,None,1,0.6098192296922207,2.6105395294725895,increament,0.6,15,standard,None,100,,,,,,,,f,35,229,fr,r,0,raw,2022-07-06_15h40.43.588,oddball,2022.1.2,59.92670964809513,
5,,,,,0,0,0,1,2,0,2,0,24,0,24,0,,,,,,,,,,,,,,,,,325.36390359979123,None,326.1975982999429,326.7979895006865,326.78108850028366,328.7815016005188,None,1,0.6118863299489021,2.6122527299448848,increament,0.6,15,standard,None,100,,,,,,,,f,35,229,fr,r,0,raw,2022-07-06_15h40.43.588,oddball,2022.1.2,59.92670964809513,
5,,,,,0,0,0,1,2,0,2,0,25,0,25,0,,,,,,,,,,,,,,,,,328.79852070007473,None,329.481839700602,330.0821093004197,330.06540360022336,332.06601160019636,None,1,0.6096228305250406,2.610181330703199,increament,0.6,15,standard,None,100,,,,,,,,f,35,229,fr,r,0,raw,2022-07-06_15h40.43.588,oddball,2022.1.2,59.92670964809513,
5,,,,,0,0,0,1,2,0,2,0,26,0,26,0,,,,,,,,,,,,,,,,,332.0828311005607,None,332.6499306000769,333.24958140030503,333.23294789996,335.2337271999568,None,1,0.609643429517746,2.6104306299239397,increament,0.6,15,standard,None,100,,,,,,,,f,35,229,fr,r,0,raw,2022-07-06_15h40.43.588,oddball,2022.1.2,59.92670964809513,
5,,,,,0,0,0,1,2,0,2,0,27,0,27,0,,,,,,,,,,,,,,,,,335.250386800617,None,335.93427920062095,336.7845557006076,336.7516238000244,338.75250530056655,j,1,0.8464237311854959,2.8473058314993978,increament,0.84,17,oddball,j,140,0.4497750997543335,,,,,,,f,35,229,fr,r,0,raw,2022-07-06_15h40.43.588,oddball,2022.1.2,59.92670964809513,
5,,,,,0,0,0,1,2,0,2,0,28,0,28,0,,,,,,,,,,,,,,,,,338.76940640062094,None,339.53603779990226,340.13600530009717,340.1197827998549,342.1204769005999,None,1,0.6110815312713385,2.611748430877924,increament,0.6,15,standard,None,100,,,,,,,,f,35,229,fr,r,0,raw,2022-07-06_15h40.43.588,oddball,2022.1.2,59.92670964809513,
5,,,,,0,0,0,1,2,0,2,0,29,0,29,0,,,,,,,,,,,,,,,,,342.1365836998448,None,342.7703570006415,343.37053600046784,343.3538047000766,345.35443340055645,None,1,0.6107851304113865,2.6114147305488586,increament,0.6,15,standard,None,100,,,,,,,,f,35,229,fr,r,0,raw,2022-07-06_15h40.43.588,oddball,2022.1.2,59.92670964809513,
5,,,,,0,0,0,1,3,0,3,0,0,0,0,0,,,,,,,,,,,,,,,368.38673560041934,None,369.3973644999787,None,370.197012799792,370.7974859001115,370.7808484006673,372.7818555999547,None,1,0.6133304303511977,2.614395630545914,decreament,0.6,11,standard,None,100,,345.37144159991294,None,,,,,f,35,229,fr,r,0,raw,2022-07-06_15h40.43.588,oddball,2022.1.2,59.92670964809513,
5,,,,,0,0,0,1,3,0,3,0,1,0,1,0,,,,,,,,,,,,,,,,,372.7982999999076,None,373.5317515004426,374.1320890998468,374.11601050011814,376.1164541002363,None,1,0.6126687303185463,2.613043329678476,decreament,0.6,11,standard,None,100,,,,,,,,f,35,229,fr,r,0,raw,2022-07-06_15h40.43.588,oddball,2022.1.2,59.92670964809513,
5,,,,,0,0,0,1,3,0,3,0,2,0,2,0,,,,,,,,,,,,,,,,,376.1328337006271,None,376.75032030045986,377.350035100244,377.3333458006382,379.3344979006797,None,1,0.6096454299986362,2.6108590299263597,decreament,0.6,11,standard,None,100,,,,,,,,f,35,229,fr,r,0,raw,2022-07-06_15h40.43.588,oddball,2022.1.2,59.92670964809513,
5,,,,,0,0,0,1,3,0,3,0,3,0,3,0,,,,,,,,,,,,,,,,,379.35068510007113,None,380.0013402001932,380.60131959989667,380.5846576001495,382.58548380061984,None,1,0.6092471294105053,2.6101132296025753,decreament,0.6,11,standard,None,100,,,,,,,,f,35,229,fr,r,0,raw,2022-07-06_15h40.43.588,oddball,2022.1.2,59.92670964809513,
5,,,,,0,0,0,1,3,0,3,0,4,0,4,0,,,,,,,,,,,,,,,,,382.6022076001391,None,383.13574580010027,383.735775699839,383.7190759005025,385.7197369001806,None,1,0.6118570305407047,2.6125349309295416,decreament,0.6,11,standard,None,100,,,,,,,,f,35,229,fr,r,0,raw,2022-07-06_15h40.43.588,oddball,2022.1.2,59.92670964809513,
5,,,,,0,0,0,1,3,0,3,0,5,0,5,0,,,,,,,,,,,,,,,,,385.73655400052667,None,386.43728249985725,387.0371842002496,387.0205806000158,389.02146690059453,None,1,0.6095171300694346,2.610456930473447,decreament,0.6,11,standard,None,100,,,,,,,,f,35,229,fr,r,0,raw,2022-07-06_15h40.43.588,oddball,2022.1.2,59.92670964809513,
5,,,,,0,0,0,1,3,0,3,0,6,0,6,0,,,,,,,,,,,,,,,,,389.03786510042846,None,389.68817260023206,390.2882024003193,390.2714859005064,392.272399100475,j,0,0.610687930136919,2.6116724302992225,decreament,0.6,11,standard,None,100,1.9222482992336154,,,,,,,f,35,229,fr,r,0,raw,2022-07-06_15h40.43.588,oddball,2022.1.2,59.92670964809513,
5,,,,,0,0,0,1,3,0,3,0,7,0,7,0,,,,,,,,,,,,,,,,,392.28920309990644,None,392.9726680004969,393.57243630010635,393.55585059989244,395.5568161997944,None,1,0.6129929311573505,2.6139926305040717,decreament,0.6,11,standard,None,100,,,,,,,,f,35,229,fr,r,0,raw,2022-07-06_15h40.43.588,oddball,2022.1.2,59.92670964809513,
5,,,,,0,0,0,1,3,0,3,0,8,0,8,0,,,,,,,,,,,,,,,,,395.57376130018383,None,396.20729790069163,396.80754250008613,396.7909114006907,398.7914974000305,None,1,0.612467129714787,2.6130086295306683,decreament,0.6,11,standard,None,100,,,,,,,,f,35,229,fr,r,0,raw,2022-07-06_15h40.43.588,oddball,2022.1.2,59.92670964809513,
5,,,,,0,0,0,1,3,0,3,0,9,0,9,0,,,,,,,,,,,,,,,,,398.808131900616,None,399.4583597006276,400.05838530045,400.041856800206,402.0428002998233,None,1,0.6094146315008402,2.610417631454766,decreament,0.6,11,standard,None,100,,,,,,,,f,35,229,fr,r,0,raw,2022-07-06_15h40.43.588,oddball,2022.1.2,59.92670964809513,
5,,,,,0,0,0,1,3,0,3,0,10,0,10,0,,,,,,,,,,,,,,,,,402.0594260003418,None,402.6596603002399,403.2597497999668,403.24335980042815,405.24367150012404,None,1,0.6127772303298116,2.613051329739392,decreament,0.6,11,standard,None,100,,,,,,,,f,35,229,fr,r,0,raw,2022-07-06_15h40.43.588,oddball,2022.1.2,59.92670964809513,
5,,,,,0,0,0,1,3,0,3,0,11,0,11,0,,,,,,,,,,,,,,,,,405.26076290011406,None,406.0444208001718,406.64503030013293,406.6280738003552,408.62858420051634,None,1,0.6127195311710238,2.613171030767262,decreament,0.6,11,standard,None,100,,,,,,,,f,35,229,fr,r,0,raw,2022-07-06_15h40.43.588,oddball,2022.1.2,59.92670964809513,
5,,,,,0,0,0,1,3,0,3,0,12,0,12,0,,,,,,,,,,,,,,,,,408.6451801005751,None,409.34570620022714,409.94585799984634,409.92902540042996,411.9298793999478,None,1,0.6120633305981755,2.612931930460036,decreament,0.6,11,standard,None,100,,,,,,,,f,35,229,fr,r,0,raw,2022-07-06_15h40.43.588,oddball,2022.1.2,59.92670964809513,
5,,,,,0,0,0,1,3,0,3,0,13,0,13,0,,,,,,,,,,,,,,,,,411.94664369989187,None,412.6634686002508,413.26384219992906,413.24733259994537,415.24787240009755,None,1,0.6139189312234521,2.614475531503558,decreament,0.6,11,standard,None,100,,,,,,,,f,35,229,fr,r,0,raw,2022-07-06_15h40.43.588,oddball,2022.1.2,59.92670964809513,
5,,,,,0,0,0,1,3,0,3,0,14,0,14,0,,,,,,,,,,,,,,,,,415.2645510006696,None,415.8314139004797,416.4317978005856,416.4148284001276,418.41562760062516,None,1,0.6118536302819848,2.612610130570829,decreament,0.6,11,standard,None,100,,,,,,,,f,35,229,fr,r,0,raw,2022-07-06_15h40.43.588,oddball,2022.1.2,59.92670964809513,
5,,,,,0,0,0,1,3,0,3,0,15,0,15,0,,,,,,,,,,,,,,,,,418.43222049996257,None,419.0326842004433,419.6328993001953,419.61649940069765,421.61674440000206,None,1,0.6124243307858706,2.612622130662203,decreament,0.6,11,standard,None,100,,,,,,,,f,35,229,fr,r,0,raw,2022-07-06_15h40.43.588,oddball,2022.1.2,59.92670964809513,
5,,,,,0,0,0,1,3,0,3,0,16,0,16,0,,,,,,,,,,,,,,,,,421.63359660003334,None,422.300559299998,422.9007989000529,422.8840886000544,424.8850753000006,None,1,0.6125058298930526,2.6136324303224683,decreament,0.6,11,standard,None,100,,,,,,,,f,35,229,fr,r,0,raw,2022-07-06_15h40.43.588,oddball,2022.1.2,59.92670964809513,
5,,,,,0,0,0,1,3,0,3,0,17,0,17,0,,,,,,,,,,,,,,,,,424.9013833999634,None,425.50156340003014,425.86880850046873,425.83556280005723,427.835622000508,j,1,0.3623562306165695,2.362327830865979,decreament,0.36,13,oddball,j,60,0.6790870996192098,,,,,,,f,35,229,fr,r,0,raw,2022-07-06_15h40.43.588,oddball,2022.1.2,59.92670964809513,
5,,,,,0,0,0,1,3,0,3,0,18,0,18,0,,,,,,,,,,,,,,,,,427.8525017006323,None,428.6365294000134,429.2363105006516,429.21966410055757,431.2206190004945,None,1,0.6107789315283298,2.6117591308429837,decreament,0.6,11,standard,None,100,,,,,,,,f,35,229,fr,r,0,raw,2022-07-06_15h40.43.588,oddball,2022.1.2,59.92670964809513,
5,,,,,0,0,0,1,3,0,3,0,19,0,19,0,,,,,,,,,,,,,,,,,431.23711470048875,None,431.82098800037056,432.4210761003196,432.4045251002535,434.40488070063293,None,1,0.6095062298700213,2.609800330363214,decreament,0.6,11,standard,None,100,,,,,,,,f,35,229,fr,r,0,raw,2022-07-06_15h40.43.588,oddball,2022.1.2,59.92670964809513,
5,,,,,0,0,0,1,3,0,3,0,20,0,20,0,,,,,,,,,,,,,,,,,434.4215457001701,None,435.08901830017567,435.68900270015,435.6724546998739,437.673012400046,None,1,0.60960952937603,2.610111629590392,decreament,0.6,11,standard,None,100,,,,,,,,f,35,229,fr,r,0,raw,2022-07-06_15h40.43.588,oddball,2022.1.2,59.92670964809513,
5,,,,,0,0,0,1,3,0,3,0,21,0,21,0,,,,,,,,,,,,,,,,,437.6897210003808,None,438.40662960056216,439.0067707002163,438.9900642000139,440.9905820004642,None,1,0.6098176306113601,2.6103000305593014,decreament,0.6,11,standard,None,100,,,,,,,,f,35,229,fr,r,0,raw,2022-07-06_15h40.43.588,oddball,2022.1.2,59.92670964809513,
5,,,,,0,0,0,1,3,0,3,0,22,0,22,0,,,,,,,,,,,,,,,,,441.00730710010976,None,441.75795389991254,442.3579810000956,442.3414743002504,444.34197290055454,None,1,0.6097369305789471,2.610197830013931,decreament,0.6,11,standard,None,100,,,,,,,,f,35,229,fr,r,0,raw,2022-07-06_15h40.43.588,oddball,2022.1.2,59.92670964809513,
5,,,,,0,0,0,1,3,0,3,0,23,0,23,0,,,,,,,,,,,,,,,,,444.35893809981644,None,445.10898240003735,445.3588730003685,445.32569820061326,447.3265956006944,j,1,0.24409473035484552,2.245061630383134,decreament,0.24,12,oddball,j,40,0.6358584994450212,,,,,,,f,35,229,fr,r,0,raw,2022-07-06_15h40.43.588,oddball,2022.1.2,59.92670964809513,
5,,,,,0,0,0,1,3,0,3,0,24,0,24,0,,,,,,,,,,,,,,,,,447.34326800052077,None,447.960371600464,448.5602521998808,448.54382930044085,450.5445862002671,None,1,0.6106818299740553,2.611457030288875,decreament,0.6,11,standard,None,100,,,,,,,,f,35,229,fr,r,0,raw,2022-07-06_15h40.43.588,oddball,2022.1.2,59.92670964809513,
5,,,,,0,0,0,1,3,0,3,0,25,0,25,0,,,,,,,,,,,,,,,,,450.56155160069466,None,451.11139480024576,451.71151090040803,451.69490410014987,453.6956844003871,None,1,0.6096436297520995,2.6102238297462463,decreament,0.6,11,standard,None,100,,,,,,,,f,35,229,fr,r,0,raw,2022-07-06_15h40.43.588,oddball,2022.1.2,59.92670964809513,
5,,,,,0,0,0,1,3,0,3,0,26,0,26,0,,,,,,,,,,,,,,,,,453.712736800313,None,454.34581900015473,454.946096399799,454.92933710012585,456.93032000027597,None,1,0.6121301306411624,2.6131754303351045,decreament,0.6,11,standard,None,100,,,,,,,,f,35,229,fr,r,0,raw,2022-07-06_15h40.43.588,oddball,2022.1.2,59.92670964809513,
5,,,,,0,0,0,1,3,0,3,0,27,0,27,0,,,,,,,,,,,,,,,,,456.9469234999269,None,457.6474358998239,458.24725320003927,458.2305781003088,460.2313898000866,None,1,0.6100696306675673,2.6109384298324585,decreament,0.6,11,standard,None,100,,,,,,,,f,35,229,fr,r,0,raw,2022-07-06_15h40.43.588,oddball,2022.1.2,59.92670964809513,
5,,,,,0,0,0,1,3,0,3,0,28,0,28,0,,,,,,,,,,,,,,,,,460.2483497001231,None,460.9150306005031,461.39851410035044,461.3654709998518,463.365965500474,j,1,0.4797828309237957,2.4802182307466865,decreament,0.48,14,oddball,j,80,0.8516086991876364,,,,,,,f,35,229,fr,r,0,raw,2022-07-06_15h40.43.588,oddball,2022.1.2,59.92670964809513,
5,,,,,0,0,0,1,3,0,3,0,29,0,29,0,,,,,,,,,,,,,,,,,463.38263970054686,None,463.9995499998331,464.59985650051385,464.5830190004781,466.5837924005464,None,1,0.6123478300869465,2.613140629604459,decreament,0.6,11,standard,None,100,,,,,,,,f,35,229,fr,r,0,raw,2022-07-06_15h40.43.588,oddball,2022.1.2,59.92670964809513,
5,,,,,0,0,0,1,4,0,4,0,0,0,0,0,,,,,,,,,,,,,,,467.93880360014737,None,470.9019993999973,None,471.6192417005077,472.21958009991795,472.20284949988127,474.203235800378,None,1,0.6087448289617896,2.6090521290898323,increament,0.6,15,standard,None,100,,466.6008491003886,None,,,,,f,35,229,fr,r,0,raw,2022-07-06_15h40.43.588,oddball,2022.1.2,59.92670964809513,
5,,,,,0,0,0,1,4,0,4,0,1,0,1,0,,,,,,,,,,,,,,,,,474.22007060050964,None,474.7534801000729,475.3540412001312,475.3373662000522,477.33789750002325,None,1,0.6112414309754968,2.6117002302780747,increament,0.6,15,standard,None,100,,,,,,,,f,35,229,fr,r,0,raw,2022-07-06_15h40.43.588,oddball,2022.1.2,59.92670964809513,
5,,,,,0,0,0,1,4,0,4,0,2,0,2,0,,,,,,,,,,,,,,,,,477.35458920057863,None,477.971390100196,478.5721215000376,478.5550289005041,480.5563218006864,None,1,0.6121947299689054,2.6135050300508738,increament,0.6,15,standard,None,100,,,,,,,,f,35,229,fr,r,0,raw,2022-07-06_15h40.43.588,oddball,2022.1.2,59.92670964809513,
5,,,,,0,0,0,1,4,0,4,0,3,0,3,0,,,,,,,,,,,,,,,,,480.5723852002993,None,481.1895254002884,481.7896487005055,481.77306629996747,483.7735531004146,None,1,0.6124398298561573,2.6129102306440473,increament,0.6,15,standard,None,100,,,,,,,,f,35,229,fr,r,0,raw,2022-07-06_15h40.43.588,oddball,2022.1.2,59.92670964809513,
5,,,,,0,0,0,1,4,0,4,0,4,0,4,0,,,,,,,,,,,,,,,,,483.79043589998037,None,484.44044619984925,485.04066430032253,485.02429059986025,487.0249572005123,None,1,0.6136446315795183,2.614345131441951,increament,0.6,15,standard,None,100,,,,,,,,f,35,229,fr,r,0,raw,2022-07-06_15h40.43.588,oddball,2022.1.2,59.92670964809513,
5,,,,,0,0,0,1,4,0,4,0,5,0,5,0,,,,,,,,,,,,,,,,,487.04166230000556,None,487.7418411001563,488.47541819978505,488.4421079000458,490.44331610016525,None,0,0.7320034308359027,2.7332942308858037,increament,0.72,16,oddball,j,120,,,,,,,,f,35,229,fr,r,0,raw,2022-07-06_15h40.43.588,oddball,2022.1.2,59.92670964809513,
5,,,,,0,0,0,1,4,0,4,0,6,0,6,0,,,,,,,,,,,,,,,,,490.46179059986025,None,491.2433449001983,491.84358560014516,491.82726449985057,493.82744160015136,None,1,0.6134096309542656,2.613499930128455,increament,0.6,15,standard,None,100,,,,,,,,f,35,229,fr,r,0,raw,2022-07-06_15h40.43.588,oddball,2022.1.2,59.92670964809513,
5,,,,,0,0,0,1,4,0,4,0,7,0,7,0,,,,,,,,,,,,,,,,,493.8442609999329,None,494.4111135005951,495.0114096002653,494.99499200005084,496.99608380068094,None,1,0.6127954302355647,2.6140344301238656,increament,0.6,15,standard,None,100,,,,,,,,f,35,229,fr,r,0,raw,2022-07-06_15h40.43.588,oddball,2022.1.2,59.92670964809513,
5,,,,,0,0,0,1,4,0,4,0,8,0,8,0,,,,,,,,,,,,,,,,,497.01201060041785,None,497.7788569005206,498.37909239996225,498.3627497004345,500.3634985005483,None,1,0.6122066304087639,2.6129910312592983,increament,0.6,15,standard,None,100,,,,,,,,f,35,229,fr,r,0,raw,2022-07-06_15h40.43.588,oddball,2022.1.2,59.92670964809513,
5,,,,,0,0,0,1,4,0,4,0,9,0,9,0,,,,,,,,,,,,,,,,,500.37989930063486,None,501.04699750058353,501.647294100374,501.6310144001618,503.631436300464,None,1,0.6111832307651639,2.6116087306290865,increament,0.6,15,standard,None,100,,,,,,,,f,35,229,fr,r,0,raw,2022-07-06_15h40.43.588,oddball,2022.1.2,59.92670964809513,
5,,,,,0,0,0,1,4,0,4,0,10,0,10,0,,,,,,,,,,,,,,,,,503.6477011004463,None,504.4314405005425,505.0318096000701,505.0150616001338,507.01581500004977,None,1,0.6124968305230141,2.613242030143738,increament,0.6,15,standard,None,100,,,,,,,,f,35,229,fr,r,0,raw,2022-07-06_15h40.43.588,oddball,2022.1.2,59.92670964809513,
5,,,,,0,0,0,1,4,0,4,0,11,0,11,0,,,,,,,,,,,,,,,,,507.03245730046183,None,507.5827072998509,508.1825812999159,508.1658279001713,510.1672775000334,None,1,0.6117258304730058,2.613294530659914,increament,0.6,15,standard,None,100,,,,,,,,f,35,229,fr,r,0,raw,2022-07-06_15h40.43.588,oddball,2022.1.2,59.92670964809513,
5,,,,,0,0,0,1,4,0,4,0,12,0,12,0,,,,,,,,,,,,,,,,,510.18380200024694,None,510.950672400184,511.55074049998075,511.53441479988396,513.534849899821,None,1,0.6127787297591567,2.6132240295410156,increament,0.6,15,standard,None,100,,,,,,,,f,35,229,fr,r,0,raw,2022-07-06_15h40.43.588,oddball,2022.1.2,59.92670964809513,
5,,,,,0,0,0,1,4,0,4,0,13,0,13,0,,,,,,,,,,,,,,,,,513.5515867006034,None,514.135298400186,514.734992899932,514.7184087000787,516.7196783004329,None,1,0.610610930249095,2.612113930284977,increament,0.6,15,standard,None,100,,,,,,,,f,35,229,fr,r,0,raw,2022-07-06_15h40.43.588,oddball,2022.1.2,59.92670964809513,
5,,,,,0,0,0,1,4,0,4,0,14,0,14,0,,,,,,,,,,,,,,,,,516.7363403998315,None,517.453061000444,518.053685400635,518.0372125003487,520.0377350002527,None,1,0.6122257299721241,2.6127250296995044,increament,0.6,15,standard,None,100,,,,,,,,f,35,229,fr,r,0,raw,2022-07-06_15h40.43.588,oddball,2022.1.2,59.92670964809513,
5,,,,,0,0,0,1,4,0,4,0,15,0,15,0,,,,,,,,,,,,,,,,,520.0540486006066,None,520.6879406999797,521.5378630999476,521.5049164006487,523.5053816,None,0,0.8417947310954332,2.842278830707073,increament,0.84,17,oddball,j,140,,,,,,,,f,35,229,fr,r,0,raw,2022-07-06_15h40.43.588,oddball,2022.1.2,59.92670964809513,
5,,,,,0,0,0,1,4,0,4,0,16,0,16,0,,,,,,,,,,,,,,,,,523.522005200386,None,524.1389105003327,524.7391619998962,524.7226165002212,526.7230404000729,None,1,0.6119642304256558,2.612347329966724,increament,0.6,15,standard,None,100,,,,,,,,f,35,229,fr,r,0,raw,2022-07-06_15h40.43.588,oddball,2022.1.2,59.92670964809513,
5,,,,,0,0,0,1,4,0,4,0,17,0,17,0,,,,,,,,,,,,,,,,,526.7399896997958,None,527.3569394005463,527.9569683000445,527.9404214005917,529.9414555002004,None,1,0.6127131301909685,2.613812230527401,increament,0.6,15,standard,None,100,,,,,,,,f,35,229,fr,r,0,raw,2022-07-06_15h40.43.588,oddball,2022.1.2,59.92670964809513,
5,,,,,0,0,0,1,4,0,4,0,18,0,18,0,,,,,,,,,,,,,,,,,529.9587582005188,None,530.7248127004132,531.3249481003731,531.3081699004397,533.3089578002691,None,1,0.6134231314063072,2.6142061315476894,increament,0.6,15,standard,None,100,,,,,,,,f,35,229,fr,r,0,raw,2022-07-06_15h40.43.588,oddball,2022.1.2,59.92670964809513,
5,,,,,0,0,0,1,4,0,4,0,19,0,19,0,,,,,,,,,,,,,,,,,533.3260305998847,None,533.9095529001206,534.8761055003852,534.8430903004482,536.8439199998975,j,1,0.9614253314211965,2.962298830971122,increament,0.96,18,oddball,j,160,0.34356379974633455,,,,,,,f,35,229,fr,r,0,raw,2022-07-06_15h40.43.588,oddball,2022.1.2,59.92670964809513,
5,,,,,0,0,0,1,4,0,4,0,20,0,20,0,,,,,,,,,,,,,,,,,536.8603726001456,None,537.6277979006991,538.2275932002813,538.2110481001437,540.2118020001799,None,1,0.6100365305319428,2.6107882307842374,increament,0.6,15,standard,None,100,,,,,,,,f,35,229,fr,r,0,raw,2022-07-06_15h40.43.588,oddball,2022.1.2,59.92670964809513,
5,,,,,0,0,0,1,4,0,4,0,21,0,21,0,,,,,,,,,,,,,,,,,540.2282651998103,None,540.8452033000067,541.4457071004435,541.429572400637,543.4300560001284,None,1,0.6134910304099321,2.6136747300624847,increament,0.6,15,standard,None,100,,,,,,,,f,35,229,fr,r,0,raw,2022-07-06_15h40.43.588,oddball,2022.1.2,59.92670964809513,
5,,,,,0,0,0,1,4,0,4,0,22,0,22,0,,,,,,,,,,,,,,,,,543.4471297999844,None,544.0800245003775,544.6801398005337,544.6634785002097,546.6641572006047,None,1,0.6138224303722382,2.614469130523503,increament,0.6,15,standard,None,100,,,,,,,,f,35,229,fr,r,0,raw,2022-07-06_15h40.43.588,oddball,2022.1.2,59.92670964809513,
5,,,,,0,0,0,1,4,0,4,0,23,0,23,0,,,,,,,,,,,,,,,,,546.6809034002945,None,547.3814109005034,547.9813689999282,547.9645413998514,549.9655160000548,None,1,0.6107703298330307,2.6118152299895883,increament,0.6,15,standard,None,100,,,,,,,,f,35,229,fr,r,0,raw,2022-07-06_15h40.43.588,oddball,2022.1.2,59.92670964809513,
5,,,,,0,0,0,1,4,0,4,0,24,0,24,0,,,,,,,,,,,,,,,,,549.982227800414,None,550.5158144999295,551.1158777000383,551.09921960067,553.1001161998138,None,1,0.6111212307587266,2.6120438305661082,increament,0.6,15,standard,None,100,,,,,,,,f,35,229,fr,r,0,raw,2022-07-06_15h40.43.588,oddball,2022.1.2,59.92670964809513,
5,,,,,0,0,0,1,4,0,4,0,25,0,25,0,,,,,,,,,,,,,,,,,553.1167478999123,None,553.8002102002501,554.4004589999095,554.3837203998119,556.384482100606,None,1,0.6089278301224113,2.6096816305071115,increament,0.6,15,standard,None,100,,,,,,,,f,35,229,fr,r,0,raw,2022-07-06_15h40.43.588,oddball,2022.1.2,59.92670964809513,
5,,,,,0,0,0,1,4,0,4,0,26,0,26,0,,,,,,,,,,,,,,,,,556.401167999953,None,557.0014801006764,557.6015579998493,557.5852258000523,559.5859732003883,None,1,0.6133813308551908,2.614146730862558,increament,0.6,15,standard,None,100,,,,,,,,f,35,229,fr,r,0,raw,2022-07-06_15h40.43.588,oddball,2022.1.2,59.92670964809513,
5,,,,,0,0,0,1,4,0,4,0,27,0,27,0,,,,,,,,,,,,,,,,,559.6022466002032,None,560.152737500146,560.7527377000079,560.7361903004348,562.7367334999144,None,1,0.609205829910934,2.6097195306792855,increament,0.6,15,standard,None,100,,,,,,,,f,35,229,fr,r,0,raw,2022-07-06_15h40.43.588,oddball,2022.1.2,59.92670964809513,
5,,,,,0,0,0,1,4,0,4,0,28,0,28,0,,,,,,,,,,,,,,,,,562.7535554999486,None,563.4371314998716,564.0375659000129,564.0211199000478,566.0215969001874,None,1,0.6128747314214706,2.613374031148851,increament,0.6,15,standard,None,100,,,,,,,,f,35,229,fr,r,0,raw,2022-07-06_15h40.43.588,oddball,2022.1.2,59.92670964809513,
5,,,,,0,0,0,1,4,0,4,0,29,0,29,0,,,,,,,,,,,,,,,,,566.03886000067,None,566.6217761002481,567.2220684001222,567.2055588001385,569.2062018997967,None,1,0.6114794313907623,2.612067931331694,increament,0.6,15,standard,None,100,,,,,,,,f,35,229,fr,r,0,raw,2022-07-06_15h40.43.588,oddball,2022.1.2,59.92670964809513,
5,,,,,0,0,0,1,5,0,5,0,0,0,0,0,,,,,,,,,,,,,,,575.4434742005542,None,576.6423353003338,None,577.3759392006323,577.975781400688,577.9595547001809,579.9601384000853,None,1,0.6106895310804248,2.6112918313592672,decreament,0.6,11,standard,None,100,,569.2231475003064,None,,,,,f,35,229,fr,r,0,raw,2022-07-06_15h40.43.588,oddball,2022.1.2,59.92670964809513,
5,,,,,0,0,0,1,5,0,5,0,1,0,1,0,,,,,,,,,,,,,,,,,579.9768834002316,None,580.6270821001381,581.2271998003125,581.2106893006712,583.2111351005733,None,1,0.6125853303819895,2.612993630580604,decreament,0.6,11,standard,None,100,,,,,,,,f,35,229,fr,r,0,raw,2022-07-06_15h40.43.588,oddball,2022.1.2,59.92670964809513,
5,,,,,0,0,0,1,5,0,5,0,2,0,2,0,,,,,,,,,,,,,,,,,583.2281758999452,None,583.8617845000699,584.4617065005004,584.445201500319,586.4459215002134,None,1,0.612475230358541,2.6131867300719023,decreament,0.6,11,standard,None,100,,,,,,,,f,35,229,fr,r,0,raw,2022-07-06_15h40.43.588,oddball,2022.1.2,59.92670964809513,
5,,,,,0,0,0,1,5,0,5,0,3,0,3,0,,,,,,,,,,,,,,,,,586.4624116001651,None,587.0127606000751,587.6131142005324,587.5966234002262,589.5977060003206,None,1,0.613774930126965,2.6148810302838683,decreament,0.6,11,standard,None,100,,,,,,,,f,35,229,fr,r,0,raw,2022-07-06_15h40.43.588,oddball,2022.1.2,59.92670964809513,
5,,,,,0,0,0,1,5,0,5,0,4,0,4,0,,,,,,,,,,,,,,,,,589.6145365005359,None,590.4307476002723,591.0311284000054,591.014741900377,593.014894399792,None,1,0.6131807304918766,2.613239630125463,decreament,0.6,11,standard,None,100,,,,,,,,f,35,229,fr,r,0,raw,2022-07-06_15h40.43.588,oddball,2022.1.2,59.92670964809513,
5,,,,,0,0,0,1,5,0,5,0,5,0,5,0,,,,,,,,,,,,,,,,,593.0318521000445,None,593.7486664000899,594.1156031005085,594.0823704004288,596.0830698003992,j,1,0.36379353050142527,2.3645407306030393,decreament,0.36,13,oddball,j,60,0.5828021997585893,,,,,,,f,35,229,fr,r,0,raw,2022-07-06_15h40.43.588,oddball,2022.1.2,59.92670964809513,
5,,,,,0,0,0,1,5,0,5,0,6,0,6,0,,,,,,,,,,,,,,,,,596.0995575003326,None,596.8666657004505,597.4670184003189,597.4504227004945,599.4506563004106,None,1,0.6130161304026842,2.6131615303456783,decreament,0.6,11,standard,None,100,,,,,,,,f,35,229,fr,r,0,raw,2022-07-06_15h40.43.588,oddball,2022.1.2,59.92670964809513,
5,,,,,0,0,0,1,5,0,5,0,7,0,7,0,,,,,,,,,,,,,,,,,599.4675307003781,None,600.1509052999318,600.7510446999222,600.7345618000254,602.7357860002667,None,1,0.6119720302522182,2.6132836304605007,decreament,0.6,11,standard,None,100,,,,,,,,f,35,229,fr,r,0,raw,2022-07-06_15h40.43.588,oddball,2022.1.2,59.92670964809513,
5,,,,,0,0,0,1,5,0,5,0,8,0,8,0,,,,,,,,,,,,,,,,,602.7520623998716,None,603.4857002003118,604.085868800059,604.0691733006388,606.0700770998374,None,1,0.6119879307225347,2.612941530533135,decreament,0.6,11,standard,None,100,,,,,,,,f,35,229,fr,r,0,raw,2022-07-06_15h40.43.588,oddball,2022.1.2,59.92670964809513,
5,,,,,0,0,0,1,5,0,5,0,9,0,9,0,,,,,,,,,,,,,,,,,606.0868019005284,None,606.8205221006647,607.4206166006625,607.4037906005979,609.4045128002763,None,1,0.612101330421865,2.6128212306648493,decreament,0.6,11,standard,None,100,,,,,,,,f,35,229,fr,r,0,raw,2022-07-06_15h40.43.588,oddball,2022.1.2,59.92670964809513,
5,,,,,0,0,0,1,5,0,5,0,10,0,10,0,,,,,,,,,,,,,,,,,609.4212070005015,None,610.0549009004608,610.5383315002546,610.5048559000716,612.5056413998827,None,0,0.47972063068300486,2.480544130317867,decreament,0.48,14,oddball,j,80,,,,,,,,f,35,229,fr,r,0,raw,2022-07-06_15h40.43.588,oddball,2022.1.2,59.92670964809513,
5,,,,,0,0,0,1,5,0,5,0,11,0,11,0,,,,,,,,,,,,,,,,,612.5227506998926,None,613.273228299804,613.8728843005374,613.8560667000711,615.8575431006029,None,1,0.6095709297806025,2.6111253304407,decreament,0.6,11,standard,None,100,,,,,,,,f,35,229,fr,r,0,raw,2022-07-06_15h40.43.588,oddball,2022.1.2,59.92670964809513,
5,,,,,0,0,0,1,5,0,5,0,12,0,12,0,,,,,,,,,,,,,,,,,615.8736335998401,None,616.5739935999736,617.1742884004489,617.1578394006938,619.1587164001539,None,1,0.6136286295950413,2.614532030187547,decreament,0.6,11,standard,None,100,,,,,,,,f,35,229,fr,r,0,raw,2022-07-06_15h40.43.588,oddball,2022.1.2,59.92670964809513,
5,,,,,0,0,0,1,5,0,5,0,13,0,13,0,,,,,,,,,,,,,,,,,619.1760856006294,None,619.7583288000897,620.3587418003008,620.3422822002321,622.3427940998226,j,0,0.6097075305879116,2.6101526310667396,decreament,0.6,11,standard,None,100,0.7953059999272227,,,,,,,f,35,229,fr,r,0,raw,2022-07-06_15h40.43.588,oddball,2022.1.2,59.92670964809513,
5,,,,,0,0,0,1,5,0,5,0,14,0,14,0,,,,,,,,,,,,,,,,,622.3594352006912,None,623.1433471003547,623.7434683004394,623.7266845004633,625.7272212998942,None,1,0.6128356298431754,2.6133636301383376,decreament,0.6,11,standard,None,100,,,,,,,,f,35,229,fr,r,0,raw,2022-07-06_15h40.43.588,oddball,2022.1.2,59.92670964809513,
5,,,,,0,0,0,1,5,0,5,0,15,0,15,0,,,,,,,,,,,,,,,,,625.7440851004794,None,626.3281700005755,626.9279957003891,626.9113568002358,628.9121460998431,None,1,0.6088551301509142,2.609640429727733,decreament,0.6,11,standard,None,100,,,,,,,,f,35,229,fr,r,0,raw,2022-07-06_15h40.43.588,oddball,2022.1.2,59.92670964809513,
5,,,,,0,0,0,1,5,0,5,0,16,0,16,0,,,,,,,,,,,,,,,,,628.9285682998598,None,629.579140400514,630.1787502998486,630.1621273001656,632.1632530000061,None,1,0.6097040297463536,2.6108803302049637,decreament,0.6,11,standard,None,100,,,,,,,,f,35,229,fr,r,0,raw,2022-07-06_15h40.43.588,oddball,2022.1.2,59.92670964809513,
5,,,,,0,0,0,1,5,0,5,0,17,0,17,0,,,,,,,,,,,,,,,,,632.1798645006493,None,632.7634757002816,633.3637912003323,633.346838099882,635.347328000702,None,1,0.6120931310579181,2.612537231296301,decreament,0.6,11,standard,None,100,,,,,,,,f,35,229,fr,r,0,raw,2022-07-06_15h40.43.588,oddball,2022.1.2,59.92670964809513,
5,,,,,0,0,0,1,5,0,5,0,18,0,18,0,,,,,,,,,,,,,,,,,635.3644257001579,None,636.01477540005,636.6146805007011,636.5980414003134,638.5992010999471,None,1,0.6114599304273725,2.6127685299143195,decreament,0.6,11,standard,None,100,,,,,,,,f,35,229,fr,r,0,raw,2022-07-06_15h40.43.588,oddball,2022.1.2,59.92670964809513,
5,,,,,0,0,0,1,5,0,5,0,19,0,19,0,,,,,,,,,,,,,,,,,638.6158004002646,None,639.1662682006136,639.7664017006755,639.7495434004813,641.7500742999837,None,1,0.61044533085078,2.6109245317056775,decreament,0.6,11,standard,None,100,,,,,,,,f,35,229,fr,r,0,raw,2022-07-06_15h40.43.588,oddball,2022.1.2,59.92670964809513,
5,,,,,0,0,0,1,5,0,5,0,20,0,20,0,,,,,,,,,,,,,,,,,641.7668192004785,None,642.3673817999661,642.9671467002481,642.9508314002305,644.9514879006892,None,1,0.6107900300994515,2.6114839296787977,decreament,0.6,11,standard,None,100,,,,,,,,f,35,229,fr,r,0,raw,2022-07-06_15h40.43.588,oddball,2022.1.2,59.92670964809513,
5,,,,,0,0,0,1,5,0,5,0,21,0,21,0,,,,,,,,,,,,,,,,,644.9681620001793,None,645.5514916004613,646.1518639000133,646.1353788999841,648.13589949999,None,1,0.6130478298291564,2.6136004300788045,decreament,0.6,11,standard,None,100,,,,,,,,f,35,229,fr,r,0,raw,2022-07-06_15h40.43.588,oddball,2022.1.2,59.92670964809513,
5,,,,,0,0,0,1,5,0,5,0,22,0,22,0,,,,,,,,,,,,,,,,,648.1525455005467,None,648.7364391004667,648.9863578006625,648.9529674006626,650.9535878999159,j,1,0.24453512951731682,2.2451800294220448,decreament,0.24,12,oddball,j,40,0.687453499995172,,,,,,,f,35,229,fr,r,0,raw,2022-07-06_15h40.43.588,oddball,2022.1.2,59.92670964809513,
5,,,,,0,0,0,1,5,0,5,0,23,0,23,0,,,,,,,,,,,,,,,,,650.9705376001075,None,651.6708185002208,652.2709589004517,652.2544074002653,654.2549139000475,None,1,0.6091709304600954,2.6096355309709907,decreament,0.6,11,standard,None,100,,,,,,,,f,35,229,fr,r,0,raw,2022-07-06_15h40.43.588,oddball,2022.1.2,59.92670964809513,
5,,,,,0,0,0,1,5,0,5,0,24,0,24,0,,,,,,,,,,,,,,,,,654.2720002001151,None,654.8883937001228,655.488693700172,655.4721288001165,657.4730886006728,None,1,0.6125727305188775,2.6135563300922513,decreament,0.6,11,standard,None,100,,,,,,,,f,35,229,fr,r,0,raw,2022-07-06_15h40.43.588,oddball,2022.1.2,59.92670964809513,
5,,,,,0,0,0,1,5,0,5,0,25,0,25,0,,,,,,,,,,,,,,,,,657.4895852003247,None,658.2068894002587,658.8066818006337,658.7899302002043,660.7908468004316,None,1,0.6103414306417108,2.611277130432427,decreament,0.6,11,standard,None,100,,,,,,,,f,35,229,fr,r,0,raw,2022-07-06_15h40.43.588,oddball,2022.1.2,59.92670964809513,
5,,,,,0,0,0,1,5,0,5,0,26,0,26,0,,,,,,,,,,,,,,,,,660.807407900691,None,661.4412941001356,662.0410700002685,662.0244434000924,664.0253830002621,None,1,0.6115700304508209,2.6125671304762363,decreament,0.6,11,standard,None,100,,,,,,,,f,35,229,fr,r,0,raw,2022-07-06_15h40.43.588,oddball,2022.1.2,59.92670964809513,
5,,,,,0,0,0,1,5,0,5,0,27,0,27,0,,,,,,,,,,,,,,,,,664.0421099998057,None,664.6588757000864,665.2592942006886,665.2428536005318,667.2432388998568,None,1,0.6098702307790518,2.6102193305268884,decreament,0.6,11,standard,None,100,,,,,,,,f,35,229,fr,r,0,raw,2022-07-06_15h40.43.588,oddball,2022.1.2,59.92670964809513,
5,,,,,0,0,0,1,5,0,5,0,28,0,28,0,,,,,,,,,,,,,,,,,667.2598108006641,None,667.8934435006231,668.4939079005271,668.4773061005399,670.4771755998954,None,1,0.6147537305951118,2.614501530304551,decreament,0.6,11,standard,None,100,,,,,,,,f,35,229,fr,r,0,raw,2022-07-06_15h40.43.588,oddball,2022.1.2,59.92670964809513,
5,,,,,0,0,0,1,5,0,5,0,29,0,29,0,,,,,,,,,,,,,,,,,670.4938810002059,None,671.0278066005558,671.6281709000468,671.6115832002833,673.612297100015,None,1,0.6124504311010242,2.613178730942309,decreament,0.6,11,standard,None,100,,,,,,,,f,35,229,fr,r,0,raw,2022-07-06_15h40.43.588,oddball,2022.1.2,59.92670964809513,
5,,,,,0,0,0,1,6,0,6,0,0,0,0,0,,,,,,,,,,,,,,,678.654016200453,None,680.5813180003315,None,681.348588200286,681.9487878000364,681.9323602002114,683.932858100161,None,1,0.6122735301032662,2.612710230052471,increament,0.6,15,standard,None,100,,673.6291171004996,None,,,,,f,35,229,fr,r,0,raw,2022-07-06_15h40.43.588,oddball,2022.1.2,59.92670964809513,
5,,,,,0,0,0,1,6,0,6,0,1,0,1,0,,,,,,,,,,,,,,,,,683.9496988002211,None,684.5663270000368,685.1671074004844,685.1502446001396,687.1509916000068,None,1,0.6136350315064192,2.614360530860722,increament,0.6,15,standard,None,100,,,,,,,,f,35,229,fr,r,0,raw,2022-07-06_15h40.43.588,oddball,2022.1.2,59.92670964809513,
5,,,,,0,0,0,1,6,0,6,0,2,0,2,0,,,,,,,,,,,,,,,,,687.1676837000996,None,687.8010383006185,688.4016313999891,688.3847917001694,690.384959500283,None,1,0.6134462300688028,2.613505329936743,increament,0.6,15,standard,None,100,,,,,,,,f,35,229,fr,r,0,raw,2022-07-06_15h40.43.588,oddball,2022.1.2,59.92670964809513,
5,,,,,0,0,0,1,6,0,6,0,3,0,3,0,,,,,,,,,,,,,,,,,690.4015544001013,None,691.1188505003229,691.7193338004872,691.7026596004143,693.7030938006938,None,1,0.613735930994153,2.6141265304759145,increament,0.6,15,standard,None,100,,,,,,,,f,35,229,fr,r,0,raw,2022-07-06_15h40.43.588,oddball,2022.1.2,59.92670964809513,
5,,,,,0,0,0,1,6,0,6,0,4,0,4,0,,,,,,,,,,,,,,,,,693.719878599979,None,694.3533856999129,694.9535977002233,694.9371603000909,696.9376704003662,None,1,0.6134222308173776,2.613866531290114,increament,0.6,15,standard,None,100,,,,,,,,f,35,229,fr,r,0,raw,2022-07-06_15h40.43.588,oddball,2022.1.2,59.92670964809513,
5,,,,,0,0,0,1,6,0,6,0,5,0,5,0,,,,,,,,,,,,,,,,,696.9542180001736,None,697.5046962006018,698.1047613006085,698.0881628002971,700.0889188004658,None,1,0.6122880317270756,2.612941031344235,increament,0.6,15,standard,None,100,,,,,,,,f,35,229,fr,r,0,raw,2022-07-06_15h40.43.588,oddball,2022.1.2,59.92670964809513,
5,,,,,0,0,0,1,6,0,6,0,6,0,6,0,,,,,,,,,,,,,,,,,700.105533500202,None,700.755982500501,701.3560153003782,701.3399932999164,703.340263900347,None,1,0.6130713317543268,2.613288731314242,increament,0.6,15,standard,None,100,,,,,,,,f,35,229,fr,r,0,raw,2022-07-06_15h40.43.588,oddball,2022.1.2,59.92670964809513,
5,,,,,0,0,0,1,6,0,6,0,7,0,7,0,,,,,,,,,,,,,,,,,703.3571049999446,None,704.1405667001382,704.7405663002282,704.7241873005405,706.7247170004994,None,1,0.6099476311355829,2.6104817306622863,increament,0.6,15,standard,None,100,,,,,,,,f,35,229,fr,r,0,raw,2022-07-06_15h40.43.588,oddball,2022.1.2,59.92670964809513,
5,,,,,0,0,0,1,6,0,6,0,8,0,8,0,,,,,,,,,,,,,,,,,706.741370100528,None,707.6088853003457,708.2083911998197,708.1918436000124,710.1930122999474,None,1,0.6100864307954907,2.6113118305802345,increament,0.6,15,standard,None,100,,,,,,,,f,35,229,fr,r,0,raw,2022-07-06_15h40.43.588,oddball,2022.1.2,59.92670964809513,
5,,,,,0,0,0,1,6,0,6,0,9,0,9,0,,,,,,,,,,,,,,,,,710.2095208000392,None,710.8929823003709,711.493183599785,711.4765699999407,713.4771563000977,j,0,0.6089504295960069,2.609519929625094,increament,0.6,15,standard,None,100,0.5967724993824959,,,,,,,f,35,229,fr,r,0,raw,2022-07-06_15h40.43.588,oddball,2022.1.2,59.92670964809513,
5,,,,,0,0,0,1,6,0,6,0,10,0,10,0,,,,,,,,,,,,,,,,,713.4937890004367,None,714.2280502999201,714.8281337004155,714.8114323001355,716.8117992002517,None,1,0.6107665300369263,2.6110302302986383,increament,0.6,15,standard,None,100,,,,,,,,f,35,229,fr,r,0,raw,2022-07-06_15h40.43.588,oddball,2022.1.2,59.92670964809513,
5,,,,,0,0,0,1,6,0,6,0,11,0,11,0,,,,,,,,,,,,,,,,,716.8284785998985,None,717.4454914005473,718.0455636000261,718.0289332000539,720.0299043999985,None,1,0.6121252309530973,2.6131698302924633,increament,0.6,15,standard,None,100,,,,,,,,f,35,229,fr,r,0,raw,2022-07-06_15h40.43.588,oddball,2022.1.2,59.92670964809513,
5,,,,,0,0,0,1,6,0,6,0,12,0,12,0,,,,,,,,,,,,,,,,,720.0466001005843,None,720.6803251998499,721.2803822997957,721.2640901003033,723.2643732000142,None,1,0.6097009303048253,2.609979431144893,increament,0.6,15,standard,None,100,,,,,,,,f,35,229,fr,r,0,raw,2022-07-06_15h40.43.588,oddball,2022.1.2,59.92670964809513,
5,,,,,0,0,0,1,6,0,6,0,13,0,13,0,,,,,,,,,,,,,,,,,723.2816109005362,None,724.0314511004835,724.6314585004002,724.615172999911,726.6155508998781,None,1,0.6121875299140811,2.612584830261767,increament,0.6,15,standard,None,100,,,,,,,,f,35,229,fr,r,0,raw,2022-07-06_15h40.43.588,oddball,2022.1.2,59.92670964809513,
5,,,,,0,0,0,1,6,0,6,0,14,0,14,0,,,,,,,,,,,,,,,,,726.632255599834,None,727.2160318000242,727.8159618005157,727.7994503006339,729.8003030000255,None,1,0.6103944312781096,2.6112857311964035,increament,0.6,15,standard,None,100,,,,,,,,f,35,229,fr,r,0,raw,2022-07-06_15h40.43.588,oddball,2022.1.2,59.92670964809513,
5,,,,,0,0,0,1,6,0,6,0,15,0,15,0,,,,,,,,,,,,,,,,,729.8168302001432,None,730.4175529005006,731.0173856997862,731.0009943004698,733.001655000262,None,1,0.612865530885756,2.6135663306340575,increament,0.6,15,standard,None,100,,,,,,,,f,35,229,fr,r,0,raw,2022-07-06_15h40.43.588,oddball,2022.1.2,59.92670964809513,
5,,,,,0,0,0,1,6,0,6,0,16,0,16,0,,,,,,,,,,,,,,,,,733.0179217001423,None,733.6518387999386,734.2517686998472,734.235348300077,736.236132000573,None,1,0.6098100300878286,2.6105762301012874,increament,0.6,15,standard,None,100,,,,,,,,f,35,229,fr,r,0,raw,2022-07-06_15h40.43.588,oddball,2022.1.2,59.92670964809513,
5,,,,,0,0,0,1,6,0,6,0,17,0,17,0,,,,,,,,,,,,,,,,,736.2525594001636,None,736.9200038006529,737.5196928000078,737.5030322000384,739.5040487004444,None,1,0.6094015305861831,2.6104661310091615,increament,0.6,15,standard,None,100,,,,,,,,f,35,229,fr,r,0,raw,2022-07-06_15h40.43.588,oddball,2022.1.2,59.92670964809513,
5,,,,,0,0,0,1,6,0,6,0,18,0,18,0,,,,,,,,,,,,,,,,,739.5202922001481,None,740.0876838006079,740.938000000082,740.9044889006764,742.9050185000524,None,0,0.8457232303917408,2.84618713054806,increament,0.84,17,oddball,j,140,,,,,,,,f,35,229,fr,r,0,raw,2022-07-06_15h40.43.588,oddball,2022.1.2,59.92670964809513,
5,,,,,0,0,0,1,6,0,6,0,19,0,19,0,,,,,,,,,,,,,,,,,742.9218487003818,None,743.4554550005123,744.0555362002924,744.0387727003545,746.039517399855,None,1,0.6104788295924664,2.6112538296729326,increament,0.6,15,standard,None,100,,,,,,,,f,35,229,fr,r,0,raw,2022-07-06_15h40.43.588,oddball,2022.1.2,59.92670964809513,
5,,,,,0,0,0,1,6,0,6,0,20,0,20,0,,,,,,,,,,,,,,,,,746.0563670005649,None,746.7397215003148,747.3403091998771,747.3237254004925,749.3243642998859,None,1,0.6139565305784345,2.614577829837799,increament,0.6,15,standard,None,100,,,,,,,,f,35,229,fr,r,0,raw,2022-07-06_15h40.43.588,oddball,2022.1.2,59.92670964809513,
5,,,,,0,0,0,1,6,0,6,0,21,0,21,0,,,,,,,,,,,,,,,,,749.3411384997889,None,749.874751499854,750.4746538000181,750.458595899865,752.4592001000419,None,1,0.6112136300653219,2.6118898298591375,increament,0.6,15,standard,None,100,,,,,,,,f,35,229,fr,r,0,raw,2022-07-06_15h40.43.588,oddball,2022.1.2,59.92670964809513,
5,,,,,0,0,0,1,6,0,6,0,22,0,22,0,,,,,,,,,,,,,,,,,752.4772473005578,None,753.0756435003132,753.6759541006759,753.6593644004315,755.660189400427,None,1,0.6141889300197363,2.6150461295619607,increament,0.6,15,standard,None,100,,,,,,,,f,35,229,fr,r,0,raw,2022-07-06_15h40.43.588,oddball,2022.1.2,59.92670964809513,
5,,,,,0,0,0,1,6,0,6,0,23,0,23,0,,,,,,,,,,,,,,,,,755.6767374007031,None,756.3267402006313,756.9269841006026,756.910438099876,758.9113010000437,j,0,0.6133121298626065,2.6142139304429293,increament,0.6,15,standard,None,100,0.41855769976973534,,,,,,,f,35,229,fr,r,0,raw,2022-07-06_15h40.43.588,oddball,2022.1.2,59.92670964809513,
5,,,,,0,0,0,1,6,0,6,0,24,0,24,0,,,,,,,,,,,,,,,,,758.928032300435,None,759.5449162004516,760.2785908002406,760.24535309989,762.246007100679,None,0,0.7277400307357311,2.728403930552304,increament,0.72,16,oddball,j,120,,,,,,,,f,35,229,fr,r,0,raw,2022-07-06_15h40.43.588,oddball,2022.1.2,59.92670964809513,
5,,,,,0,0,0,1,6,0,6,0,25,0,25,0,,,,,,,,,,,,,,,,,762.2624328006059,None,762.9128196006641,763.5127621004358,763.4964314000681,765.4973196005449,None,1,0.6127521293237805,2.613619929179549,increament,0.6,15,standard,None,100,,,,,,,,f,35,229,fr,r,0,raw,2022-07-06_15h40.43.588,oddball,2022.1.2,59.92670964809513,
5,,,,,0,0,0,1,6,0,6,0,26,0,26,0,,,,,,,,,,,,,,,,,765.5137494001538,None,766.2308418005705,766.8308986006305,766.8143277000636,768.8154394002631,None,1,0.6106284307315946,2.611760030500591,increament,0.6,15,standard,None,100,,,,,,,,f,35,229,fr,r,0,raw,2022-07-06_15h40.43.588,oddball,2022.1.2,59.92670964809513,
5,,,,,0,0,0,1,6,0,6,0,27,0,27,0,,,,,,,,,,,,,,,,,768.8314409004524,None,769.4487557001412,770.0488704005256,770.0320449005812,772.0332561004907,None,1,0.6093456298112869,2.610591829754412,increament,0.6,15,standard,None,100,,,,,,,,f,35,229,fr,r,0,raw,2022-07-06_15h40.43.588,oddball,2022.1.2,59.92670964809513,
5,,,,,0,0,0,1,6,0,6,0,28,0,28,0,,,,,,,,,,,,,,,,,772.049597799778,None,772.7331101000309,773.3338034003973,773.3168387003243,775.3173695001751,None,1,0.612580630928278,2.613076130859554,increament,0.6,15,standard,None,100,,,,,,,,f,35,229,fr,r,0,raw,2022-07-06_15h40.43.588,oddball,2022.1.2,59.92670964809513,
5,,,,,0,0,0,1,6,0,6,0,29,0,29,0,,,,,,,,,,,,,,,,,775.3342251004651,None,775.9510481003672,776.9181197006255,776.8849904006347,778.8859213003889,None,0,0.9612039308995008,2.9621372306719422,increament,0.96,18,oddball,j,160,,,,,,,,f,35,229,fr,r,0,raw,2022-07-06_15h40.43.588,oddball,2022.1.2,59.92670964809513,
5,,,,,0,0,0,1,7,0,7,0,0,0,0,0,,,,,,,,,,,,,,,781.9424574002624,None,783.2703809002414,None,783.7879576003179,784.3875478003174,784.3708064006642,786.3713849000633,None,1,0.6118484307080507,2.612398331053555,decreament,0.6,11,standard,None,100,,778.9060851000249,None,,,,,f,35,229,fr,r,0,raw,2022-07-06_15h40.43.588,oddball,2022.1.2,59.92670964809513,
5,,,,,0,0,0,1,7,0,7,0,1,0,1,0,,,,,,,,,,,,,,,,,786.3882710998878,None,786.9217440998182,787.5219274004921,787.5055480999872,789.5064173005521,None,1,0.6128026312217116,2.6137091303244233,decreament,0.6,11,standard,None,100,,,,,,,,f,35,229,fr,r,0,raw,2022-07-06_15h40.43.588,oddball,2022.1.2,59.92670964809513,
5,,,,,0,0,0,1,7,0,7,0,2,0,2,0,,,,,,,,,,,,,,,,,789.5227872999385,None,790.0730432998389,790.6731730001047,790.6568045997992,792.6573071004823,None,1,0.6123012313619256,2.6127612311393023,decreament,0.6,11,standard,None,100,,,,,,,,f,35,229,fr,r,0,raw,2022-07-06_15h40.43.588,oddball,2022.1.2,59.92670964809513,
5,,,,,0,0,0,1,7,0,7,0,3,0,3,0,,,,,,,,,,,,,,,,,792.6741687003523,None,793.341102800332,793.9413475003093,793.9249064000323,795.9250961998478,None,1,0.6098319310694933,2.6099558314308524,decreament,0.6,11,standard,None,100,,,,,,,,f,35,229,fr,r,0,raw,2022-07-06_15h40.43.588,oddball,2022.1.2,59.92670964809513,
5,,,,,0,0,0,1,7,0,7,0,4,0,4,0,,,,,,,,,,,,,,,,,795.9420373002067,None,796.5919522000477,797.1922233998775,797.1759341005236,799.1763599002734,None,1,0.613744730129838,2.6141613302752376,decreament,0.6,11,standard,None,100,,,,,,,,f,35,229,fr,r,0,raw,2022-07-06_15h40.43.588,oddball,2022.1.2,59.92670964809513,
5,,,,,0,0,0,1,7,0,7,0,5,0,5,0,,,,,,,,,,,,,,,,,799.1932247998193,None,799.876627500169,800.4769470002502,800.4604727998376,802.4615663997829,None,1,0.6125644305720925,2.6137427305802703,decreament,0.6,11,standard,None,100,,,,,,,,f,35,229,fr,r,0,raw,2022-07-06_15h40.43.588,oddball,2022.1.2,59.92670964809513,
5,,,,,0,0,0,1,7,0,7,0,6,0,6,0,,,,,,,,,,,,,,,,,802.479498100467,None,803.2448292998597,803.8451287001371,803.8289425000548,805.8292219005525,None,1,0.612895930185914,2.6131740296259522,decreament,0.6,11,standard,None,100,,,,,,,,f,35,229,fr,r,0,raw,2022-07-06_15h40.43.588,oddball,2022.1.2,59.92670964809513,
5,,,,,0,0,0,1,7,0,7,0,7,0,7,0,,,,,,,,,,,,,,,,,805.8467175997794,None,806.6627822006121,807.2629521004856,807.2465928997844,809.24715520069,None,1,0.6127003310248256,2.613137130625546,decreament,0.6,11,standard,None,100,,,,,,,,f,35,229,fr,r,0,raw,2022-07-06_15h40.43.588,oddball,2022.1.2,59.92670964809513,
5,,,,,0,0,0,1,7,0,7,0,8,0,8,0,,,,,,,,,,,,,,,,,809.264141799882,None,809.8639406003058,810.4640490999445,810.4477246999741,812.448777699843,None,1,0.6129056308418512,2.6140365302562714,decreament,0.6,11,standard,None,100,,,,,,,,f,35,229,fr,r,0,raw,2022-07-06_15h40.43.588,oddball,2022.1.2,59.92670964809513,
5,,,,,0,0,0,1,7,0,7,0,9,0,9,0,,,,,,,,,,,,,,,,,812.4668321004137,None,813.0656599001959,813.6652553007007,813.6489390004426,815.6493751006201,None,1,0.6099656308069825,2.6104036308825016,decreament,0.6,11,standard,None,100,,,,,,,,f,35,229,fr,r,0,raw,2022-07-06_15h40.43.588,oddball,2022.1.2,59.92670964809513,
5,,,,,0,0,0,1,7,0,7,0,10,0,10,0,,,,,,,,,,,,,,,,,815.6660275999457,None,816.3993554003537,816.9996894001961,816.9831760004163,818.9840034004301,None,1,0.6142390314489603,2.6150971315801144,decreament,0.6,11,standard,None,100,,,,,,,,f,35,229,fr,r,0,raw,2022-07-06_15h40.43.588,oddball,2022.1.2,59.92670964809513,
5,,,,,0,0,0,1,7,0,7,0,11,0,11,0,,,,,,,,,,,,,,,,,819.0008423002437,None,819.684385499917,820.284966699779,820.2680385001004,822.2687812000513,None,1,0.6097105303779244,2.610424930229783,decreament,0.6,11,standard,None,100,,,,,,,,f,35,229,fr,r,0,raw,2022-07-06_15h40.43.588,oddball,2022.1.2,59.92670964809513,
5,,,,,0,0,0,1,7,0,7,0,12,0,12,0,,,,,,,,,,,,,,,,,822.2852784004062,None,822.8522470006719,823.4522866001353,823.4357165005058,825.4367786003277,None,1,0.6099075311794877,2.611051730811596,decreament,0.6,11,standard,None,100,,,,,,,,f,35,229,fr,r,0,raw,2022-07-06_15h40.43.588,oddball,2022.1.2,59.92670964809513,
5,,,,,0,0,0,1,7,0,7,0,13,0,13,0,,,,,,,,,,,,,,,,,825.4542725998908,None,826.0533763999119,826.6533503998071,826.6368435006589,828.6376114999875,None,1,0.6123830303549767,2.6131485300138593,decreament,0.6,11,standard,None,100,,,,,,,,f,35,229,fr,r,0,raw,2022-07-06_15h40.43.588,oddball,2022.1.2,59.92670964809513,
5,,,,,0,0,0,1,7,0,7,0,14,0,14,0,,,,,,,,,,,,,,,,,828.6541445003822,None,829.304724900052,829.9046737002209,829.8882559007034,831.8886897005141,None,1,0.6128226304426789,2.6132229305803776,decreament,0.6,11,standard,None,100,,,,,,,,f,35,229,fr,r,0,raw,2022-07-06_15h40.43.588,oddball,2022.1.2,59.92670964809513,
5,,,,,0,0,0,1,7,0,7,0,15,0,15,0,,,,,,,,,,,,,,,,,831.9053875999525,None,832.555556400679,833.1563260005787,833.1401120005175,835.1401688000187,None,1,0.6148930303752422,2.614854230545461,decreament,0.6,11,standard,None,100,,,,,,,,f,35,229,fr,r,0,raw,2022-07-06_15h40.43.588,oddball,2022.1.2,59.92670964809513,
5,,,,,0,0,0,1,7,0,7,0,16,0,16,0,,,,,,,,,,,,,,,,,835.156779400073,None,835.7569796005264,836.0072323000059,835.9736978998408,837.974297400564,j,1,0.24483133107423782,2.2454099310562015,decreament,0.24,12,oddball,j,40,0.41822110023349524,,,,,,,f,35,229,fr,r,0,raw,2022-07-06_15h40.43.588,oddball,2022.1.2,59.92670964809513,
5,,,,,0,0,0,1,7,0,7,0,17,0,17,0,,,,,,,,,,,,,,,,,837.9913945002481,None,838.6417043004185,839.241376100108,839.2248074999079,841.2255500005558,None,1,0.6098873307928443,2.610646231099963,decreament,0.6,11,standard,None,100,,,,,,,,f,35,229,fr,r,0,raw,2022-07-06_15h40.43.588,oddball,2022.1.2,59.92670964809513,
5,,,,,0,0,0,1,7,0,7,0,18,0,18,0,,,,,,,,,,,,,,,,,841.2425554003567,None,841.7595348004252,842.3594217002392,842.3431128999218,844.3437130004168,None,1,0.6120864311233163,2.6126292310655117,decreament,0.6,11,standard,None,100,,,,,,,,f,35,229,fr,r,0,raw,2022-07-06_15h40.43.588,oddball,2022.1.2,59.92670964809513,
5,,,,,0,0,0,1,7,0,7,0,19,0,19,0,,,,,,,,,,,,,,,,,844.3606428001076,None,845.093778599985,845.6939830007032,845.6773840999231,847.6781261004508,None,1,0.6118082301691175,2.612526330165565,decreament,0.6,11,standard,None,100,,,,,,,,f,35,229,fr,r,0,raw,2022-07-06_15h40.43.588,oddball,2022.1.2,59.92670964809513,
5,,,,,0,0,0,1,7,0,7,0,20,0,20,0,,,,,,,,,,,,,,,,,847.694713300094,None,848.4287000000477,849.0288819000125,849.0124783003703,851.0129762003198,None,1,0.611832631751895,2.612283531576395,decreament,0.6,11,standard,None,100,,,,,,,,f,35,229,fr,r,0,raw,2022-07-06_15h40.43.588,oddball,2022.1.2,59.92670964809513,
5,,,,,0,0,0,1,7,0,7,0,21,0,21,0,,,,,,,,,,,,,,,,,851.0296155000106,None,851.6632929006591,852.029900399968,851.996309700422,853.9972697999328,j,1,0.3608015300706029,2.3618252305313945,decreament,0.36,13,oddball,j,60,0.604000199586153,,,,,,,f,35,229,fr,r,0,raw,2022-07-06_15h40.43.588,oddball,2022.1.2,59.92670964809513,
5,,,,,0,0,0,1,7,0,7,0,22,0,22,0,,,,,,,,,,,,,,,,,854.013918700628,None,854.6311317998916,855.2308093998581,855.2140917005017,857.2151271998882,None,1,0.6100025307387114,2.6110756304115057,decreament,0.6,11,standard,None,100,,,,,,,,f,35,229,fr,r,0,raw,2022-07-06_15h40.43.588,oddball,2022.1.2,59.92670964809513,
5,,,,,0,0,0,1,7,0,7,0,23,0,23,0,,,,,,,,,,,,,,,,,857.2317604003474,None,857.9988908004016,858.5990562997758,858.5823891004547,860.5828844001517,None,1,0.6117499303072691,2.6119130309671164,decreament,0.6,11,standard,None,100,,,,,,,,f,35,229,fr,r,0,raw,2022-07-06_15h40.43.588,oddball,2022.1.2,59.92670964809513,
5,,,,,0,0,0,1,7,0,7,0,24,0,24,0,,,,,,,,,,,,,,,,,860.5999368000776,None,861.2834483003244,861.8835343997926,861.8667680006474,863.8677163003013,None,1,0.6113933296874166,2.6123999301344156,decreament,0.6,11,standard,None,100,,,,,,,,f,35,229,fr,r,0,raw,2022-07-06_15h40.43.588,oddball,2022.1.2,59.92670964809513,
5,,,,,0,0,0,1,7,0,7,0,25,0,25,0,,,,,,,,,,,,,,,,,863.8843327006325,None,864.5845918999985,865.184892100282,865.1683021998033,867.1684338999912,None,1,0.6118958303704858,2.6119078304618597,decreament,0.6,11,standard,None,100,,,,,,,,f,35,229,fr,r,0,raw,2022-07-06_15h40.43.588,oddball,2022.1.2,59.92670964809513,
5,,,,,0,0,0,1,7,0,7,0,26,0,26,0,,,,,,,,,,,,,,,,,867.1851082006469,None,867.8023749003187,868.2856939006597,868.2525979001075,870.253711800091,j,1,0.4808673309162259,2.482125430367887,decreament,0.48,14,oddball,j,80,0.8597979992628098,,,,,,,f,35,229,fr,r,0,raw,2022-07-06_15h40.43.588,oddball,2022.1.2,59.92670964809513,
5,,,,,0,0,0,1,7,0,7,0,27,0,27,0,,,,,,,,,,,,,,,,,870.2708673998713,None,871.1203070003539,871.7203972004354,871.7036768998951,873.7051587002352,None,1,0.6122273299843073,2.613794930279255,decreament,0.6,11,standard,None,100,,,,,,,,f,35,229,fr,r,0,raw,2022-07-06_15h40.43.588,oddball,2022.1.2,59.92670964809513,
5,,,,,0,0,0,1,7,0,7,0,28,0,28,0,,,,,,,,,,,,,,,,,873.7213099002838,None,874.3383522005752,874.938679500483,874.9220735998824,876.9221655000001,None,1,0.6132571306079626,2.6132422303780913,decreament,0.6,11,standard,None,100,,,,,,,,f,35,229,fr,r,0,raw,2022-07-06_15h40.43.588,oddball,2022.1.2,59.92670964809513,
5,,,,,0,0,0,1,7,0,7,0,29,0,29,0,,,,,,,,,,,,,,,,,876.9389169998467,None,877.5061034997925,878.1066800998524,878.0900015998632,880.0908067002892,None,1,0.6094268299639225,2.61026312969625,decreament,0.6,11,standard,None,100,,,,,,,,f,35,229,fr,r,0,raw,2022-07-06_15h40.43.588,oddball,2022.1.2,59.92670964809513,
5,,,,,0,0,0,1,8,0,8,0,0,0,0,0,,,,,,,,,,,,,,,883.3457254003733,None,884.8422584999353,None,885.6594721004367,886.2596819000319,886.2429306004196,888.2439040997997,None,1,0.6089621298015118,2.6099483305588365,increament,0.6,15,standard,None,100,,880.1071787001565,None,,,,,f,35,229,fr,r,0,raw,2022-07-06_15h40.43.588,oddball,2022.1.2,59.92670964809513,
5,,,,,0,0,0,1,8,0,8,0,1,0,1,0,,,,,,,,,,,,,,,,,888.2603350998834,None,889.0104686003178,889.6106497002766,889.5942559000105,891.5949392998591,None,1,0.6127051301300526,2.613433730788529,increament,0.6,15,standard,None,100,,,,,,,,f,35,229,fr,r,0,raw,2022-07-06_15h40.43.588,oddball,2022.1.2,59.92670964809513,
5,,,,,0,0,0,1,8,0,8,0,2,0,2,0,,,,,,,,,,,,,,,,,891.6114261001348,None,892.3786682998762,892.9790663998574,892.962452000007,894.9629680998623,None,1,0.6130436304956675,2.6135427309200168,increament,0.6,15,standard,None,100,,,,,,,,f,35,229,fr,r,0,raw,2022-07-06_15h40.43.588,oddball,2022.1.2,59.92670964809513,
5,,,,,0,0,0,1,8,0,8,0,3,0,3,0,,,,,,,,,,,,,,,,,894.979260600172,None,895.6298671001568,896.2297122003511,896.2133245998994,898.2142959004268,None,1,0.6122100306674838,2.6132330307736993,increament,0.6,15,standard,None,100,,,,,,,,f,35,229,fr,r,0,raw,2022-07-06_15h40.43.588,oddball,2022.1.2,59.92670964809513,
5,,,,,0,0,0,1,8,0,8,0,4,0,4,0,,,,,,,,,,,,,,,,,898.2307036006823,None,898.9478825004771,899.5477355001494,899.5316452998668,901.5324777001515,None,1,0.6101422309875488,2.610997931100428,increament,0.6,15,standard,None,100,,,,,,,,f,35,229,fr,r,0,raw,2022-07-06_15h40.43.588,oddball,2022.1.2,59.92670964809513,
5,,,,,0,0,0,1,8,0,8,0,5,0,5,0,,,,,,,,,,,,,,,,,901.5484977001324,None,902.0820733001456,902.6828096006066,902.6658907001838,904.6663496000692,None,1,0.6125453300774097,2.6129696303978562,increament,0.6,15,standard,None,100,,,,,,,,f,35,229,fr,r,0,raw,2022-07-06_15h40.43.588,oddball,2022.1.2,59.92670964809513,
5,,,,,0,0,0,1,8,0,8,0,6,0,6,0,,,,,,,,,,,,,,,,,904.6829703999683,None,905.4168373001739,906.0171427000314,906.0006087999791,908.0010583000258,None,1,0.6116631301119924,2.611976530402899,increament,0.6,15,standard,None,100,,,,,,,,f,35,229,fr,r,0,raw,2022-07-06_15h40.43.588,oddball,2022.1.2,59.92670964809513,
5,,,,,0,0,0,1,8,0,8,0,7,0,7,0,,,,,,,,,,,,,,,,,908.0173412002623,None,908.651375300251,909.2513667000458,909.2350273001939,911.235701800324,None,1,0.6134879309684038,2.614182830788195,increament,0.6,15,standard,None,100,,,,,,,,f,35,229,fr,r,0,raw,2022-07-06_15h40.43.588,oddball,2022.1.2,59.92670964809513,
5,,,,,0,0,0,1,8,0,8,0,8,0,8,0,,,,,,,,,,,,,,,,,911.2523758001626,None,911.7857114002109,912.7527120998129,912.7194860000163,914.720487200655,j,1,0.9627004312351346,2.9637733306735754,increament,0.96,18,oddball,j,160,0.3446956994011998,,,,,,,f,35,229,fr,r,0,raw,2022-07-06_15h40.43.588,oddball,2022.1.2,59.92670964809513,
5,,,,,0,0,0,1,8,0,8,0,9,0,9,0,,,,,,,,,,,,,,,,,914.7369106998667,None,915.3369017997757,915.9374556997791,915.920796200633,917.9216729998589,None,1,0.6145242294296622,2.615427929908037,increament,0.6,15,standard,None,100,,,,,,,,f,35,229,fr,r,0,raw,2022-07-06_15h40.43.588,oddball,2022.1.2,59.92670964809513,
5,,,,,0,0,0,1,8,0,8,0,10,0,10,0,,,,,,,,,,,,,,,,,917.9381137005985,None,918.6384431999177,919.2390728006139,919.2219226006418,921.2230658000335,None,1,0.6127231307327747,2.6138949310407043,increament,0.6,15,standard,None,100,,,,,,,,f,35,229,fr,r,0,raw,2022-07-06_15h40.43.588,oddball,2022.1.2,59.92670964809513,
5,,,,,0,0,0,1,8,0,8,0,11,0,11,0,,,,,,,,,,,,,,,,,921.2393828006461,None,921.9231179999188,922.5234174998477,922.5067602004856,924.5074069006369,None,1,0.612288230098784,2.6129121305420995,increament,0.6,15,standard,None,100,,,,,,,,f,35,229,fr,r,0,raw,2022-07-06_15h40.43.588,oddball,2022.1.2,59.92670964809513,
5,,,,,0,0,0,1,8,0,8,0,12,0,12,0,,,,,,,,,,,,,,,,,924.5241676000878,None,925.258065099828,925.8576568001881,925.8410504003987,927.8419139003381,None,1,0.6123499302193522,2.6132112303748727,increament,0.6,15,standard,None,100,,,,,,,,f,35,229,fr,r,0,raw,2022-07-06_15h40.43.588,oddball,2022.1.2,59.92670964809513,
5,,,,,0,0,0,1,8,0,8,0,13,0,13,0,,,,,,,,,,,,,,,,,927.8586766999215,None,928.5919468998909,929.1925814999267,929.1758668003604,931.1765385000035,None,1,0.6138487299904227,2.614600630477071,increament,0.6,15,standard,None,100,,,,,,,,f,35,229,fr,r,0,raw,2022-07-06_15h40.43.588,oddball,2022.1.2,59.92670964809513,
5,,,,,0,0,0,1,8,0,8,0,14,0,14,0,,,,,,,,,,,,,,,,,931.193207600154,None,931.7263382002711,932.3270901003852,932.3105032006279,934.311223000288,None,1,0.6148124309256673,2.615477630868554,increament,0.6,15,standard,None,100,,,,,,,,f,35,229,fr,r,0,raw,2022-07-06_15h40.43.588,oddball,2022.1.2,59.92670964809513,
5,,,,,0,0,0,1,8,0,8,0,15,0,15,0,,,,,,,,,,,,,,,,,934.3275782000273,None,934.9779815003276,935.5780485998839,935.5616088006645,937.5620822999626,None,1,0.6115238294005394,2.611933029256761,increament,0.6,15,standard,None,100,,,,,,,,f,35,229,fr,r,0,raw,2022-07-06_15h40.43.588,oddball,2022.1.2,59.92670964809513,
5,,,,,0,0,0,1,8,0,8,0,16,0,16,0,,,,,,,,,,,,,,,,,937.5790496999398,None,938.3126664003357,938.9130408000201,938.8967193001881,940.8970790002495,None,1,0.6091170301660895,2.609443229623139,increament,0.6,15,standard,None,100,,,,,,,,f,35,229,fr,r,0,raw,2022-07-06_15h40.43.588,oddball,2022.1.2,59.92670964809513,
5,,,,,0,0,0,1,8,0,8,0,17,0,17,0,,,,,,,,,,,,,,,,,940.9136422006413,None,941.6974884001538,942.2976215006784,942.2810332002118,944.2817010004073,None,1,0.6126912292093039,2.613356029614806,increament,0.6,15,standard,None,100,,,,,,,,f,35,229,fr,r,0,raw,2022-07-06_15h40.43.588,oddball,2022.1.2,59.92670964809513,
5,,,,,0,0,0,1,8,0,8,0,18,0,18,0,,,,,,,,,,,,,,,,,944.2982630003244,None,944.9484082004055,945.5485859001055,945.5317866001278,947.5325776003301,None,1,0.6127604292705655,2.6135259298607707,increament,0.6,15,standard,None,100,,,,,,,,f,35,229,fr,r,0,raw,2022-07-06_15h40.43.588,oddball,2022.1.2,59.92670964809513,
5,,,,,0,0,0,1,8,0,8,0,19,0,19,0,,,,,,,,,,,,,,,,,947.5491859000176,None,948.166485500522,948.8998766001314,948.8664456000552,950.8670856999233,None,0,0.726193530485034,2.726825729943812,increament,0.72,16,oddball,j,120,,,,,,,,f,35,229,fr,r,0,raw,2022-07-06_15h40.43.588,oddball,2022.1.2,59.92670964809513,
5,,,,,0,0,0,1,8,0,8,0,20,0,20,0,,,,,,,,,,,,,,,,,950.8838721998036,None,951.6340855006129,952.2343610003591,952.2178972000256,954.2187474006787,None,1,0.6136945309117436,2.614576330408454,increament,0.6,15,standard,None,100,,,,,,,,f,35,229,fr,r,0,raw,2022-07-06_15h40.43.588,oddball,2022.1.2,59.92670964809513,
5,,,,,0,0,0,1,8,0,8,0,21,0,21,0,,,,,,,,,,,,,,,,,954.2353476006538,None,955.1193543998525,955.7190044000745,955.7026904998347,957.7034316007048,None,1,0.609464330598712,2.610200430266559,increament,0.6,15,standard,None,100,,,,,,,,f,35,229,fr,r,0,raw,2022-07-06_15h40.43.588,oddball,2022.1.2,59.92670964809513,
5,,,,,0,0,0,1,8,0,8,0,22,0,22,0,,,,,,,,,,,,,,,,,957.719824500382,None,958.253279699944,958.8537404006347,958.8370773000643,960.8376684999093,None,1,0.613731530494988,2.614279430359602,increament,0.6,15,standard,None,100,,,,,,,,f,35,229,fr,r,0,raw,2022-07-06_15h40.43.588,oddball,2022.1.2,59.92670964809513,
5,,,,,0,0,0,1,8,0,8,0,23,0,23,0,,,,,,,,,,,,,,,,,960.8547784006223,None,961.5711941001937,962.1719150003046,962.1550336005166,964.155908100307,None,1,0.6132119297981262,2.6140993302688003,increament,0.6,15,standard,None,100,,,,,,,,f,35,229,fr,r,0,raw,2022-07-06_15h40.43.588,oddball,2022.1.2,59.92670964809513,
5,,,,,0,0,0,1,8,0,8,0,24,0,24,0,,,,,,,,,,,,,,,,,964.1725930003449,None,964.7227266002446,965.3225664002821,965.3059563999996,967.3071639006957,None,1,0.6091407304629683,2.6103964308276772,increament,0.6,15,standard,None,100,,,,,,,,f,35,229,fr,r,0,raw,2022-07-06_15h40.43.588,oddball,2022.1.2,59.92670964809513,
5,,,,,0,0,0,1,8,0,8,0,25,0,25,0,,,,,,,,,,,,,,,,,967.3236031997949,None,967.8904945999384,968.490433100611,968.4740762002766,970.4747056998312,None,1,0.6125433314591646,2.613203431479633,increament,0.6,15,standard,None,100,,,,,,,,f,35,229,fr,r,0,raw,2022-07-06_15h40.43.588,oddball,2022.1.2,59.92670964809513,
5,,,,,0,0,0,1,8,0,8,0,26,0,26,0,,,,,,,,,,,,,,,,,970.4913662998006,None,971.2249599006027,971.8252373998985,971.8088429998606,973.8091265000403,j,0,0.6127104302868247,2.6129404306411743,increament,0.6,15,standard,None,100,0.9748782003298402,,,,,,,f,35,229,fr,r,0,raw,2022-07-06_15h40.43.588,oddball,2022.1.2,59.92670964809513,
5,,,,,0,0,0,1,8,0,8,0,27,0,27,0,,,,,,,,,,,,,,,,,973.8258503004909,None,974.4261527005583,975.0264387000352,975.0099936006591,977.010327000171,None,1,0.6125401305034757,2.6128150299191475,increament,0.6,15,standard,None,100,,,,,,,,f,35,229,fr,r,0,raw,2022-07-06_15h40.43.588,oddball,2022.1.2,59.92670964809513,
5,,,,,0,0,0,1,8,0,8,0,28,0,28,0,,,,,,,,,,,,,,,,,977.0272352006286,None,977.7609652997926,978.6110845999792,978.5777414999902,980.578520600684,None,0,0.845138430595398,2.845932730473578,increament,0.84,17,oddball,j,140,,,,,,,,f,35,229,fr,r,0,raw,2022-07-06_15h40.43.588,oddball,2022.1.2,59.92670964809513,
5,,,,,0,0,0,1,8,0,8,0,29,0,29,0,,,,,,,,,,,,,,,,,980.5951562002301,None,981.2959131998941,981.8955691000447,981.879458299838,983.8797745006159,None,1,0.6129052303731441,2.613146130926907,increament,0.6,15,standard,None,100,,,,,,,,f,35,229,fr,r,0,raw,2022-07-06_15h40.43.588,oddball,2022.1.2,59.92670964809513,
5,,,,,0,0,0,1,9,0,9,0,0,0,0,0,,,,,,,,,,,,,,,991.1352832000703,None,992.2658556997776,None,992.9499655002728,993.5503274006769,993.5337113002315,995.5343732004985,None,1,0.6107662301510572,2.611410930752754,decreament,0.6,11,standard,None,100,,983.89669900015,None,,,,,f,35,229,fr,r,0,raw,2022-07-06_15h40.43.588,oddball,2022.1.2,59.92670964809513,
5,,,,,0,0,0,1,9,0,9,0,1,0,1,0,,,,,,,,,,,,,,,,,995.5508503001183,None,996.2516947006807,996.8515218999237,996.8348559997976,998.8352679004893,None,1,0.6092746304348111,2.609610430896282,decreament,0.6,11,standard,None,100,,,,,,,,f,35,229,fr,r,0,raw,2022-07-06_15h40.43.588,oddball,2022.1.2,59.92670964809513,
5,,,,,0,0,0,1,9,0,9,0,2,0,2,0,,,,,,,,,,,,,,,,,998.8522471003234,None,999.4526374004781,1000.0524633005261,1000.0363209005445,1002.0368993002921,j,0,0.6098796296864748,2.610451430082321,decreament,0.6,11,standard,None,100,1.1473538000136614,,,,,,,f,35,229,fr,r,0,raw,2022-07-06_15h40.43.588,oddball,2022.1.2,59.92670964809513,
5,,,,,0,0,0,1,9,0,9,0,3,0,3,0,,,,,,,,,,,,,,,,,1002.0544263003394,None,1002.7868817998096,1003.3870149003342,1003.3709022002295,1005.3711194004864,None,1,0.6129195308312774,2.612998530268669,decreament,0.6,11,standard,None,100,,,,,,,,f,35,229,fr,r,0,raw,2022-07-06_15h40.43.588,oddball,2022.1.2,59.92670964809513,
5,,,,,0,0,0,1,9,0,9,0,4,0,4,0,,,,,,,,,,,,,,,,,1005.3878369005397,None,1005.9213960003108,1006.5217150999233,1006.5048836003989,1008.505776300095,None,1,0.6125362301245332,2.613452230580151,decreament,0.6,11,standard,None,100,,,,,,,,f,35,229,fr,r,0,raw,2022-07-06_15h40.43.588,oddball,2022.1.2,59.92670964809513,
5,,,,,0,0,0,1,9,0,9,0,5,0,5,0,,,,,,,,,,,,,,,,,1008.5226249005646,None,1009.1561649003997,1009.7562990002334,1009.7402523998171,1011.7401200002059,None,1,0.611515331082046,2.611255330964923,decreament,0.6,11,standard,None,100,,,,,,,,f,35,229,fr,r,0,raw,2022-07-06_15h40.43.588,oddball,2022.1.2,59.92670964809513,
5,,,,,0,0,0,1,9,0,9,0,6,0,6,0,,,,,,,,,,,,,,,,,1011.7571522006765,None,1012.4739180002362,1013.0741138998419,1013.0577416000888,1015.0583942001686,None,1,0.6140652298927307,2.614689029753208,decreament,0.6,11,standard,None,100,,,,,,,,f,35,229,fr,r,0,raw,2022-07-06_15h40.43.588,oddball,2022.1.2,59.92670964809513,
5,,,,,0,0,0,1,9,0,9,0,7,0,7,0,,,,,,,,,,,,,,,,,1015.0752773005515,None,1015.7921502999961,1016.3921271003783,1016.3758184006438,1018.3761034999043,None,1,0.6127370307222009,2.6129556307569146,decreament,0.6,11,standard,None,100,,,,,,,,f,35,229,fr,r,0,raw,2022-07-06_15h40.43.588,oddball,2022.1.2,59.92670964809513,
5,,,,,0,0,0,1,9,0,9,0,8,0,8,0,,,,,,,,,,,,,,,,,1018.3929743999615,None,1019.0097310999408,1019.6098062004894,1019.5930786002427,1021.5944360001013,None,1,0.612135429866612,2.613585129380226,decreament,0.6,11,standard,None,100,,,,,,,,f,35,229,fr,r,0,raw,2022-07-06_15h40.43.588,oddball,2022.1.2,59.92670964809513,
5,,,,,0,0,0,1,9,0,9,0,9,0,9,0,,,,,,,,,,,,,,,,,1021.6106937006116,None,1022.1438471004367,1022.7443471001461,1022.7280371999368,1024.7288072006777,None,1,0.6147943297401071,2.6155639300122857,decreament,0.6,11,standard,None,100,,,,,,,,f,35,229,fr,r,0,raw,2022-07-06_15h40.43.588,oddball,2022.1.2,59.92670964809513,
5,,,,,0,0,0,1,9,0,9,0,10,0,10,0,,,,,,,,,,,,,,,,,1024.7456382000819,None,1025.5289308000356,1026.1286361003295,1026.112277300097,1028.11292460002,None,1,0.6125932298600674,2.6132092298939824,decreament,0.6,11,standard,None,100,,,,,,,,f,35,229,fr,r,0,raw,2022-07-06_15h40.43.588,oddball,2022.1.2,59.92670964809513,
5,,,,,0,0,0,1,9,0,9,0,11,0,11,0,,,,,,,,,,,,,,,,,1028.1296629998833,None,1028.7135005006567,1029.3135460000485,1029.296706000343,1031.2981161000207,None,1,0.609031431376934,2.6105335308238864,decreament,0.6,11,standard,None,100,,,,,,,,f,35,229,fr,r,0,raw,2022-07-06_15h40.43.588,oddball,2022.1.2,59.92670964809513,
5,,,,,0,0,0,1,9,0,9,0,12,0,12,0,,,,,,,,,,,,,,,,,1031.315425099805,None,1031.9482554001734,1032.3148472001776,1032.281406099908,1034.2820195006207,j,1,0.3614581311121583,2.3620692305266857,decreament,0.36,13,oddball,j,60,0.7508120005950332,,,,,,,f,35,229,fr,r,0,raw,2022-07-06_15h40.43.588,oddball,2022.1.2,59.92670964809513,
5,,,,,0,0,0,1,9,0,9,0,13,0,13,0,,,,,,,,,,,,,,,,,1034.2990276003256,None,1035.0327700003982,1035.6328435000032,1035.6160284997895,1037.6169488001615,None,1,0.6092215310782194,2.6101738307625055,decreament,0.6,11,standard,None,100,,,,,,,,f,35,229,fr,r,0,raw,2022-07-06_15h40.43.588,oddball,2022.1.2,59.92670964809513,
5,,,,,0,0,0,1,9,0,9,0,14,0,14,0,,,,,,,,,,,,,,,,,1037.6335449004546,None,1038.3671043002978,1038.9672576999292,1038.950918099843,1040.9513196004555,None,1,0.6127375299111009,2.6130912294611335,decreament,0.6,11,standard,None,100,,,,,,,,f,35,229,fr,r,0,raw,2022-07-06_15h40.43.588,oddball,2022.1.2,59.92670964809513,
5,,,,,0,0,0,1,9,0,9,0,15,0,15,0,,,,,,,,,,,,,,,,,1040.968026000075,None,1041.6686040004715,1042.2686426006258,1042.2521250005811,1044.253045000136,None,1,0.6097867293283343,2.610727629624307,decreament,0.6,11,standard,None,100,,,,,,,,f,35,229,fr,r,0,raw,2022-07-06_15h40.43.588,oddball,2022.1.2,59.92670964809513,
5,,,,,0,0,0,1,9,0,9,0,16,0,16,0,,,,,,,,,,,,,,,,,1044.2691083000973,None,1044.8364222003147,1045.4363219998777,1045.419845700264,1047.4207741999999,None,1,0.6090400302782655,2.6100391298532486,decreament,0.6,11,standard,None,100,,,,,,,,f,35,229,fr,r,0,raw,2022-07-06_15h40.43.588,oddball,2022.1.2,59.92670964809513,
5,,,,,0,0,0,1,9,0,9,0,17,0,17,0,,,,,,,,,,,,,,,,,1047.438290600665,None,1048.0544532006606,1048.654369099997,1048.6375831998885,1050.6382817002013,j,0,0.610895230434835,2.6115658301860094,decreament,0.6,11,standard,None,100,0.9944046996533871,,,,,,,f,35,229,fr,r,0,raw,2022-07-06_15h40.43.588,oddball,2022.1.2,59.92670964809513,
5,,,,,0,0,0,1,9,0,9,0,18,0,18,0,,,,,,,,,,,,,,,,,1050.6553033003584,None,1051.2887193998322,1051.888867800124,1051.8721561999992,1053.873031400144,None,1,0.611018430441618,2.6119419308379292,decreament,0.6,11,standard,None,100,,,,,,,,f,35,229,fr,r,0,raw,2022-07-06_15h40.43.588,oddball,2022.1.2,59.92670964809513,
5,,,,,0,0,0,1,9,0,9,0,19,0,19,0,,,,,,,,,,,,,,,,,1053.8897710004821,None,1054.623235099949,1055.2233862997964,1055.206725500524,1057.2076890999451,None,1,0.6117820302024484,2.612822930328548,decreament,0.6,11,standard,None,100,,,,,,,,f,35,229,fr,r,0,raw,2022-07-06_15h40.43.588,oddball,2022.1.2,59.92670964809513,
5,,,,,0,0,0,1,9,0,9,0,20,0,20,0,,,,,,,,,,,,,,,,,1057.2250354997814,None,1057.7406954001635,1058.3413475006819,1058.3247041003779,1060.3256377000362,None,1,0.6121975295245647,2.613191429525614,decreament,0.6,11,standard,None,100,,,,,,,,f,35,229,fr,r,0,raw,2022-07-06_15h40.43.588,oddball,2022.1.2,59.92670964809513,
5,,,,,0,0,0,1,9,0,9,0,21,0,21,0,,,,,,,,,,,,,,,,,1060.3427306003869,None,1060.9424713002518,1061.542480500415,1061.52574750036,1063.526732600294,None,1,0.6096287304535508,2.6107133300974965,decreament,0.6,11,standard,None,100,,,,,,,,f,35,229,fr,r,0,raw,2022-07-06_15h40.43.588,oddball,2022.1.2,59.92670964809513,
5,,,,,0,0,0,1,9,0,9,0,22,0,22,0,,,,,,,,,,,,,,,,,1063.5433037998155,None,1064.1436283001676,1064.3934749998152,1064.360178399831,1066.3611165005714,j,1,0.24616663064807653,2.2471133302897215,decreament,0.24,12,oddball,j,40,0.48662109952419996,,,,,,,f,35,229,fr,r,0,raw,2022-07-06_15h40.43.588,oddball,2022.1.2,59.92670964809513,
5,,,,,0,0,0,1,9,0,9,0,23,0,23,0,,,,,,,,,,,,,,,,,1066.377761900425,None,1066.9609655002132,1067.561751300469,1067.5451739998534,1069.5456965006888,None,1,0.6148334303870797,2.6153083303943276,decreament,0.6,11,standard,None,100,,,,,,,,f,35,229,fr,r,0,raw,2022-07-06_15h40.43.588,oddball,2022.1.2,59.92670964809513,
5,,,,,0,0,0,1,9,0,9,0,24,0,24,0,,,,,,,,,,,,,,,,,1069.5624659005553,None,1070.3125636000186,1070.9131898004562,1070.8963906997815,1072.8969263006002,None,1,0.6120479311794043,2.61245843116194,decreament,0.6,11,standard,None,100,,,,,,,,f,35,229,fr,r,0,raw,2022-07-06_15h40.43.588,oddball,2022.1.2,59.92670964809513,
5,,,,,0,0,0,1,9,0,9,0,25,0,25,0,,,,,,,,,,,,,,,,,1072.9136683000252,None,1073.5303162001073,1074.130662300624,1074.1142760002986,1076.1147223003209,None,1,0.6137744300067425,2.614185130223632,decreament,0.6,11,standard,None,100,,,,,,,,f,35,229,fr,r,0,raw,2022-07-06_15h40.43.588,oddball,2022.1.2,59.92670964809513,
5,,,,,0,0,0,1,9,0,9,0,26,0,26,0,,,,,,,,,,,,,,,,,1076.131409600377,None,1076.6981552001089,1077.298448400572,1077.2820084998384,1079.2824440998957,None,1,0.613086829893291,2.613502730615437,decreament,0.6,11,standard,None,100,,,,,,,,f,35,229,fr,r,0,raw,2022-07-06_15h40.43.588,oddball,2022.1.2,59.92670964809513,
5,,,,,0,0,0,1,9,0,9,0,27,0,27,0,,,,,,,,,,,,,,,,,1079.2990295002237,None,1079.9495787005872,1080.4327982999384,1080.4164343997836,1082.4171019000933,None,0,0.49427913036197424,2.494984029792249,decreament,0.48,14,oddball,j,80,,,,,,,,f,35,229,fr,r,0,raw,2022-07-06_15h40.43.588,oddball,2022.1.2,59.92670964809513,
5,,,,,0,0,0,1,9,0,9,0,28,0,28,0,,,,,,,,,,,,,,,,,1082.4340193998069,None,1083.2506643002853,1083.8509961999953,1083.8344451999292,1085.8351905001327,None,1,0.6123293312266469,2.613085431046784,decreament,0.6,11,standard,None,100,,,,,,,,f,35,229,fr,r,0,raw,2022-07-06_15h40.43.588,oddball,2022.1.2,59.92670964809513,
5,,,,,0,0,0,1,9,0,9,0,29,0,29,0,,,,,,,,,,,,,,,,,1085.8517029006034,None,1086.4685393003747,1087.0687522003427,1087.0523030003533,1089.053185400553,None,1,0.6126523297280073,2.613541129976511,decreament,0.6,11,standard,None,100,,,,,,,,f,35,229,fr,r,0,raw,2022-07-06_15h40.43.588,oddball,2022.1.2,59.92670964809513,
0,,,,,0,1,1,0,0,0,0,0,0,0,0,0,,,,,,,,,,,,,,,1297.5234623998404,None,1299.4655953003094,None,1300.0997398998588,1300.699842600152,1300.6831534998491,1302.6838964000344,None,1,0.6082721306011081,2.609041729941964,increament,0.6,5,standard,None,100,,1269.0879691001028,None,1089.088384900242,None,,,f,35,229,fr,r,0,raw,2022-07-06_15h40.43.588,oddball,2022.1.2,59.92670964809513,
0,,,,,0,1,1,0,0,0,0,0,1,0,1,0,,,,,,,,,,,,,,,,,1302.700568499975,None,1303.317641700618,1303.9176601003855,1303.90121010039,1305.9017636002973,None,1,0.6127730309963226,2.613229830749333,increament,0.6,5,standard,None,100,,,,,,,,f,35,229,fr,r,0,raw,2022-07-06_15h40.43.588,oddball,2022.1.2,59.92670964809513,
0,,,,,0,1,1,0,0,0,0,0,2,0,2,0,,,,,,,,,,,,,,,,,1305.918564800173,None,1306.5357486000285,1307.135514500551,1307.1189095005393,1309.119368900545,None,1,0.6092392299324274,2.6096157301217318,increament,0.6,5,standard,None,100,,,,,,,,f,35,229,fr,r,0,raw,2022-07-06_15h40.43.588,oddball,2022.1.2,59.92670964809513,
0,,,,,0,1,1,0,0,0,0,0,3,0,3,0,,,,,,,,,,,,,,,,,1309.1360935000703,None,1309.7530712001026,1310.353396099992,1310.3368247998878,1312.3377207005396,None,1,0.6120325298979878,2.612960630096495,increament,0.6,5,standard,None,100,,,,,,,,f,35,229,fr,r,0,raw,2022-07-06_15h40.43.588,oddball,2022.1.2,59.92670964809513,
0,,,,,0,1,1,0,0,0,0,0,4,0,4,0,,,,,,,,,,,,,,,,,1312.3541422002017,None,1313.037549899891,1313.638164700009,1313.6214404003695,1315.6222347998992,None,1,0.6134182307869196,2.6142418310046196,increament,0.6,5,standard,None,100,,,,,,,,f,35,229,fr,r,0,raw,2022-07-06_15h40.43.588,oddball,2022.1.2,59.92670964809513,
0,,,,,0,1,1,0,0,0,0,0,5,0,5,0,,,,,,,,,,,,,,,,,1315.6391382999718,None,1316.3557222001255,1316.9561310000718,1316.9396777004004,1318.940264600329,None,1,0.6131824301555753,2.6137797301635146,increament,0.6,5,standard,None,100,,,,,,,,f,35,229,fr,r,0,raw,2022-07-06_15h40.43.588,oddball,2022.1.2,59.92670964809513,
0,,,,,0,1,1,0,0,0,0,0,6,0,6,0,,,,,,,,,,,,,,,,,1318.9565930999815,None,1319.6736200004816,1320.5238239001483,1320.490830800496,1322.4912157999352,None,0,0.8461806289851665,2.8465044293552637,increament,0.84,7,oddball,j,140,,,,,,,,f,35,229,fr,r,0,raw,2022-07-06_15h40.43.588,oddball,2022.1.2,59.92670964809513,
0,,,,,0,1,1,0,0,0,0,0,7,0,7,0,,,,,,,,,,,,,,,,,1322.5082792006433,None,1323.27514610067,1323.8752937000245,1323.8588791005313,1325.8595270998776,None,1,0.6096976296976209,2.610365429893136,increament,0.6,5,standard,None,100,,,,,,,,f,35,229,fr,r,0,raw,2022-07-06_15h40.43.588,oddball,2022.1.2,59.92670964809513,
0,,,,,0,1,1,0,0,0,0,0,8,0,8,0,,,,,,,,,,,,,,,,,1325.8760257000104,None,1326.5597945004702,1327.159963500686,1327.143280800432,1329.1441146004945,None,1,0.6108226301148534,2.611638329923153,increament,0.6,5,standard,None,100,,,,,,,,f,35,229,fr,r,0,raw,2022-07-06_15h40.43.588,oddball,2022.1.2,59.92670964809513,
0,,,,,0,1,1,0,0,0,0,0,9,0,9,0,,,,,,,,,,,,,,,,,1329.160734999925,None,1329.8607483003289,1330.4610422002152,1330.4442640002817,1332.4449059003964,None,1,0.6138181313872337,2.614449631422758,increament,0.6,5,standard,None,100,,,,,,,,f,35,229,fr,r,0,raw,2022-07-06_15h40.43.588,oddball,2022.1.2,59.92670964809513,
0,,,,,0,1,1,0,0,0,0,0,10,0,10,0,,,,,,,,,,,,,,,,,1332.4618485998362,None,1333.028686100617,1333.762341200374,1333.7292590998113,1335.7298827003688,None,0,0.7306857304647565,2.73128823004663,increament,0.72,6,oddball,j,120,,,,,,,,f,35,229,fr,r,0,raw,2022-07-06_15h40.43.588,oddball,2022.1.2,59.92670964809513,
0,,,,,0,1,1,0,0,0,0,0,11,0,11,0,,,,,,,,,,,,,,,,,1335.7461927002296,None,1336.3799558002502,1336.9800751004368,1336.9637010004371,1338.9641273999587,None,1,0.6137567302212119,2.614083230495453,increament,0.6,5,standard,None,100,,,,,,,,f,35,229,fr,r,0,raw,2022-07-06_15h40.43.588,oddball,2022.1.2,59.92670964809513,
0,,,,,0,1,1,0,0,0,0,0,12,0,12,0,,,,,,,,,,,,,,,,,1338.9811326004565,None,1339.6644777003676,1340.2647224999964,1340.248076500371,1342.2490289006382,None,1,0.6121216304600239,2.613102630712092,increament,0.6,5,standard,None,100,,,,,,,,f,35,229,fr,r,0,raw,2022-07-06_15h40.43.588,oddball,2022.1.2,59.92670964809513,
0,,,,,0,1,1,0,0,0,0,0,13,0,13,0,,,,,,,,,,,,,,,,,1342.266273399815,None,1343.0324125001207,1343.6326665999368,1343.6161438003182,1345.6166409002617,None,1,0.611048930324614,2.611564730294049,increament,0.6,5,standard,None,100,,,,,,,,f,35,229,fr,r,0,raw,2022-07-06_15h40.43.588,oddball,2022.1.2,59.92670964809513,
0,,,,,0,1,1,0,0,0,0,0,14,0,14,0,,,,,,,,,,,,,,,,,1345.633749499917,None,1346.2170567000285,1346.8171739000827,1346.8005133001134,1348.8014692002907,None,1,0.6095735300332308,2.610542429611087,increament,0.6,5,standard,None,100,,,,,,,,f,35,229,fr,r,0,raw,2022-07-06_15h40.43.588,oddball,2022.1.2,59.92670964809513,
