grating_freq,blocks_prac.thisRepN,blocks_prac.thisTrialN,blocks_prac.thisN,blocks_prac.thisIndex,blocks.thisRepN,blocks.thisTrialN,blocks.thisN,blocks.thisIndex,repeat_freq.thisRepN,repeat_freq.thisTrialN,repeat_freq.thisN,repeat_freq.thisIndex,trials.thisRepN,trials.thisTrialN,trials.thisN,trials.thisIndex,break_loop.thisRepN,break_loop.thisTrialN,break_loop.thisN,break_loop.thisIndex,rest_loop.thisRepN,rest_loop.thisTrialN,rest_loop.thisN,rest_loop.thisIndex,instruct_prac_text.started,instruct_prac_resp.started,b_instruct_text_2_.started,b_instruct_resp_2_.started,prac_done_text.started,prac_done_resp.started,instruct_text.started,instruct_resp.started,fixation.started,fixation.stopped,grating.started,blank.started,resp.started,grating.stopped,blank.stopped,resp.stopped,resp.keys,resp.corr,direction,duration,trigger,stim_type,corr_ans,scaling,resp.rt,rest_text.started,rest_resp.started,text_2.started,text_2.stopped,thx_txt.started,thx_txt.stopped,gender,age,participant,language,main_hand,nBlock_prac,file_suffix,date,expName,psychopyVersion,frameRate,
5,,,,,0,0,0,1,0,0,0,0,0,0,0,0,,,,,,,,,21.15589480000017,21.15589480000017,27.546732699998756,27.546732699998756,40.53027699999984,40.53027699999984,57.43472660000043,57.43472660000043,60.01442700000007,60.69546210000044,60.69546210000044,61.26428549999946,0.5994984000008117,61.2974452999988,63.2643623999993,2.5995856000008644,None,1,decreament,0.6,11,standard,None,100,,,,,,,,m,20,233,fr,r,0,raw,2023-04-04_16h00.03.122,oddball,2022.2.5,60.204913443599324,
5,,,,,0,0,0,1,0,0,0,0,1,0,1,0,,,,,,,,,,,,,,,,,63.280984199998784,63.86435700000038,63.86435700000038,64.44814550000046,0.600001800001337,64.46474859999944,66.44769850000012,2.599442300001101,None,1,decreament,0.6,11,standard,None,100,,,,,,,,m,20,233,fr,r,0,raw,2023-04-04_16h00.03.122,oddball,2022.2.5,60.204913443599324,
5,,,,,0,0,0,1,0,0,0,0,2,0,2,0,,,,,,,,,,,,,,,,,66.46449419999954,67.16449959999954,67.16449959999954,67.74777209999957,0.5995061999983591,67.76448429999982,69.7482215,2.6000776999990194,None,1,decreament,0.6,11,standard,None,100,,,,,,,,m,20,233,fr,r,0,raw,2023-04-04_16h00.03.122,oddball,2022.2.5,60.204913443599324,
5,,,,,0,0,0,1,0,0,0,0,3,0,3,0,,,,,,,,,,,,,,,,,69.76477919999888,70.49821580000025,70.49821580000025,71.0816591999992,0.615489300000263,71.09824149999986,73.08160920000046,2.6153911000001244,None,1,decreament,0.6,11,standard,None,100,,,,,,,,m,20,233,fr,r,0,raw,2023-04-04_16h00.03.122,oddball,2022.2.5,60.204913443599324,
5,,,,,0,0,0,1,0,0,0,0,4,0,4,0,,,,,,,,,,,,,,,,,73.11477279999963,73.76531719999912,73.76531719999912,74.36472390000017,0.614593899999818,74.36472390000017,76.36495110000033,2.614831000000777,None,1,decreament,0.6,11,standard,None,100,,,,,,,,m,20,233,fr,r,0,raw,2023-04-04_16h00.03.122,oddball,2022.2.5,60.204913443599324,
5,,,,,0,0,0,1,0,0,0,0,5,0,5,0,,,,,,,,,,,,,,,,,76.38151509999989,77.04809289999866,77.04809289999866,77.63153359999887,0.5995568999987881,77.64811550000013,79.63193829999909,2.60015249999924,None,1,decreament,0.6,11,standard,None,100,,,,,,,,m,20,233,fr,r,0,raw,2023-04-04_16h00.03.122,oddball,2022.2.5,60.204913443599324,
5,,,,,0,0,0,1,0,0,0,0,6,0,6,0,,,,,,,,,,,,,,,,,79.64836509999986,80.29875879999963,80.29875879999963,80.89850669999942,0.6148379999995086,80.89850669999942,82.8984588000003,2.614705399999366,None,1,decreament,0.6,11,standard,None,100,,,,,,,,m,20,233,fr,r,0,raw,2023-04-04_16h00.03.122,oddball,2022.2.5,60.204913443599324,
5,,,,,0,0,0,1,0,0,0,0,7,0,7,0,,,,,,,,,,,,,,,,,82.91510670000025,83.58180569999968,83.58180569999968,83.93176109999877,0.3653742999995302,83.94825560000027,85.93237869999939,2.3660402999994403,j,1,decreament,0.36,13,oddball,j,60,0.3691161999995529,,,,,,,m,20,233,fr,r,0,raw,2023-04-04_16h00.03.122,oddball,2022.2.5,60.204913443599324,
5,,,,,0,0,0,1,0,0,0,0,8,0,8,0,,,,,,,,,,,,,,,,,85.94867229999909,86.63218070000039,86.63218070000039,87.21561649999967,0.600007099999857,87.23216800000046,89.21530069999972,2.599621899998965,None,1,decreament,0.6,11,standard,None,100,,,,,,,,m,20,233,fr,r,0,raw,2023-04-04_16h00.03.122,oddball,2022.2.5,60.204913443599324,
5,,,,,0,0,0,1,0,0,0,0,9,0,9,0,,,,,,,,,,,,,,,,,89.2318250999997,89.86575989999983,89.86575989999983,90.46575610000036,0.6153802999997424,90.46575610000036,92.46541149999939,2.614918299999772,None,1,decreament,0.6,11,standard,None,100,,,,,,,,m,20,233,fr,r,0,raw,2023-04-04_16h00.03.122,oddball,2022.2.5,60.204913443599324,
5,,,,,0,0,0,1,0,0,0,0,10,0,10,0,,,,,,,,,,,,,,,,,92.48204049999913,93.04890489999889,93.04890489999889,93.63245029999962,0.5996092000004865,93.64866359999905,95.63209579999966,2.5991773000005196,None,1,decreament,0.6,11,standard,None,100,,,,,,,,m,20,233,fr,r,0,raw,2023-04-04_16h00.03.122,oddball,2022.2.5,60.204913443599324,
5,,,,,0,0,0,1,0,0,0,0,11,0,11,0,,,,,,,,,,,,,,,,,95.64896789999875,96.19888139999966,96.19888139999966,96.432299099999,0.24954429999888816,96.44874069999969,98.43225919999895,2.2494989999995596,j,1,decreament,0.24,12,oddball,j,40,0.5762973999990209,,,,,,,m,20,233,fr,r,0,raw,2023-04-04_16h00.03.122,oddball,2022.2.5,60.204913443599324,
5,,,,,0,0,0,1,0,0,0,0,12,0,12,0,,,,,,,,,,,,,,,,,98.44885769999928,99.06568779999907,99.06568779999907,99.64899799999876,0.5993242000004102,99.66567880000002,101.64903029999914,2.599361599999611,None,1,decreament,0.6,11,standard,None,100,,,,,,,,m,20,233,fr,r,0,raw,2023-04-04_16h00.03.122,oddball,2022.2.5,60.204913443599324,
5,,,,,0,0,0,1,0,0,0,0,13,0,13,0,,,,,,,,,,,,,,,,,101.66574299999957,102.23251820000041,102.23251820000041,102.81591429999935,0.5993646000006265,102.8324991999998,104.81642329999886,2.599960600000486,None,1,decreament,0.6,11,standard,None,100,,,,,,,,m,20,233,fr,r,0,raw,2023-04-04_16h00.03.122,oddball,2022.2.5,60.204913443599324,
5,,,,,0,0,0,1,0,0,0,0,14,0,14,0,,,,,,,,,,,,,,,,,104.8328537999987,105.46601569999984,105.46601569999984,106.04928540000037,0.599454399998649,106.06591939999998,108.04948279999917,2.599714399999357,None,1,decreament,0.6,11,standard,None,100,,,,,,,,m,20,233,fr,r,0,raw,2023-04-04_16h00.03.122,oddball,2022.2.5,60.204913443599324,
5,,,,,0,0,0,1,0,0,0,0,15,0,15,0,,,,,,,,,,,,,,,,,108.0663444999991,108.78309189999891,108.78309189999891,109.38311199999953,0.6150168999993184,109.38311199999953,111.38309920000029,2.614999399998851,None,1,decreament,0.6,11,standard,None,100,,,,,,,,m,20,233,fr,r,0,raw,2023-04-04_16h00.03.122,oddball,2022.2.5,60.204913443599324,
5,,,,,0,0,0,1,0,0,0,0,16,0,16,0,,,,,,,,,,,,,,,,,111.39967169999909,112.09977040000012,112.09977040000012,112.68336269999963,0.5993329000011727,112.69996790000005,114.68306080000002,2.5989809000002424,None,1,decreament,0.6,11,standard,None,100,,,,,,,,m,20,233,fr,r,0,raw,2023-04-04_16h00.03.122,oddball,2022.2.5,60.204913443599324,
5,,,,,0,0,0,1,0,0,0,0,17,0,17,0,,,,,,,,,,,,,,,,,114.69964970000001,115.23312289999922,115.23312289999922,115.8165267000004,0.5993610000004992,115.83305819999987,117.81635350000033,2.599188600001071,j,0,decreament,0.6,11,standard,None,100,1.3555937000000995,,,,,,,m,20,233,fr,r,0,raw,2023-04-04_16h00.03.122,oddball,2022.2.5,60.204913443599324,
5,,,,,0,0,0,1,0,0,0,0,18,0,18,0,,,,,,,,,,,,,,,,,117.83303809999961,118.39981529999932,118.39981529999932,118.98340780000035,0.5993263000000297,119.00008489999891,120.98362090000046,2.5995922000001883,None,1,decreament,0.6,11,standard,None,100,,,,,,,,m,20,233,fr,r,0,raw,2023-04-04_16h00.03.122,oddball,2022.2.5,60.204913443599324,
5,,,,,0,0,0,1,0,0,0,0,19,0,19,0,,,,,,,,,,,,,,,,,120.99993539999923,121.61702340000011,121.61702340000011,122.21699350000017,0.6149689999983821,122.21699350000017,124.21704419999878,2.6150109999998676,None,1,decreament,0.6,11,standard,None,100,,,,,,,,m,20,233,fr,r,0,raw,2023-04-04_16h00.03.122,oddball,2022.2.5,60.204913443599324,
5,,,,,0,0,0,1,0,0,0,0,20,0,20,0,,,,,,,,,,,,,,,,,124.23317510000015,124.88383859999885,124.88383859999885,125.48344139999972,0.6143662000013137,125.48344139999972,127.48380499999985,2.614772000000812,None,1,decreament,0.6,11,standard,None,100,,,,,,,,m,20,233,fr,r,0,raw,2023-04-04_16h00.03.122,oddball,2022.2.5,60.204913443599324,
5,,,,,0,0,0,1,0,0,0,0,21,0,21,0,,,,,,,,,,,,,,,,,127.50014649999866,128.23367329999928,128.23367329999928,128.83387159999984,0.615415899999789,128.83387159999984,130.83515799999986,2.6167005999996036,None,1,decreament,0.6,11,standard,None,100,,,,,,,,m,20,233,fr,r,0,raw,2023-04-04_16h00.03.122,oddball,2022.2.5,60.204913443599324,
5,,,,,0,0,0,1,0,0,0,0,22,0,22,0,,,,,,,,,,,,,,,,,130.85009869999885,131.38355669999873,131.38355669999873,131.96688170000016,0.5993500999993557,131.98355319999973,133.96730489999936,2.5997799999986455,None,1,decreament,0.6,11,standard,None,100,,,,,,,,m,20,233,fr,r,0,raw,2023-04-04_16h00.03.122,oddball,2022.2.5,60.204913443599324,
5,,,,,0,0,0,1,0,0,0,0,23,0,23,0,,,,,,,,,,,,,,,,,133.98395340000025,134.70046809999985,134.70046809999985,135.16704649999883,0.48230530000000726,135.1836160999992,137.16744039999867,2.482738299999255,j,1,decreament,0.48,14,oddball,j,80,0.634887100000924,,,,,,,m,20,233,fr,r,0,raw,2023-04-04_16h00.03.122,oddball,2022.2.5,60.204913443599324,
5,,,,,0,0,0,1,0,0,0,0,24,0,24,0,,,,,,,,,,,,,,,,,137.18401529999937,137.7507119999991,137.7507119999991,138.35087099999873,0.6152196000002732,138.35087099999873,140.3508013999999,2.615088000000469,j,0,decreament,0.6,11,standard,None,100,0.8264366000003065,,,,,,,m,20,233,fr,r,0,raw,2023-04-04_16h00.03.122,oddball,2022.2.5,60.204913443599324,
5,,,,,0,0,0,1,0,0,0,0,25,0,25,0,,,,,,,,,,,,,,,,,140.36745320000045,140.98384029999943,140.98384029999943,141.5844675999997,0.5990103000003728,141.5844675999997,143.58403120000003,2.5987914000015735,None,1,decreament,0.6,11,standard,None,100,,,,,,,,m,20,233,fr,r,0,raw,2023-04-04_16h00.03.122,oddball,2022.2.5,60.204913443599324,
5,,,,,0,0,0,1,0,0,0,0,26,0,26,0,,,,,,,,,,,,,,,,,143.58403120000003,144.1673314999989,144.1673314999989,144.75079259999984,0.5997397999999521,144.76735240000016,146.75071249999928,2.5996503999995184,None,1,decreament,0.6,11,standard,None,100,,,,,,,,m,20,233,fr,r,0,raw,2023-04-04_16h00.03.122,oddball,2022.2.5,60.204913443599324,
5,,,,,0,0,0,1,0,0,0,0,27,0,27,0,,,,,,,,,,,,,,,,,146.7673907999997,147.5177382999991,147.5177382999991,148.11780829999952,0.614938799999436,148.11780829999952,150.11762929999895,2.614678099998855,None,1,decreament,0.6,11,standard,None,100,,,,,,,,m,20,233,fr,r,0,raw,2023-04-04_16h00.03.122,oddball,2022.2.5,60.204913443599324,
5,,,,,0,0,0,1,0,0,0,0,28,0,28,0,,,,,,,,,,,,,,,,,150.13424300000042,150.91764859999967,150.91764859999967,151.501085599999,0.5996452999988833,151.5177982999994,153.50138249999873,2.6000285999998596,j,0,decreament,0.6,11,standard,None,100,0.49961269999948854,,,,,,,m,20,233,fr,r,0,raw,2023-04-04_16h00.03.122,oddball,2022.2.5,60.204913443599324,
5,,,,,0,0,0,1,0,0,0,0,29,0,29,0,,,,,,,,,,,,,,,,,153.51795610000045,154.3010121999996,154.3010121999996,154.88451580000037,0.5994596000000456,154.90104749999955,156.88498679999975,2.600028500000917,None,1,decreament,0.6,11,standard,None,100,,,,,,,,m,20,233,fr,r,0,raw,2023-04-04_16h00.03.122,oddball,2022.2.5,60.204913443599324,
5,,,,,0,0,0,1,1,0,1,0,0,0,0,0,,,,,,,,,,,,,,,186.09250529999917,186.09250529999917,187.98565909999888,188.76911289999953,188.76911289999953,189.35248929999943,0.5998078000011446,189.36923059999936,191.3527987999987,2.6001522000005934,None,1,increament,0.6,15,standard,None,100,,156.9013689000003,0.0019903000011254335,,,,,m,20,233,fr,r,0,raw,2023-04-04_16h00.03.122,oddball,2022.2.5,60.204913443599324,
5,,,,,0,0,0,1,1,0,1,0,1,0,1,0,,,,,,,,,,,,,,,,,191.36925569999948,192.0030501000001,192.0030501000001,192.60273020000022,0.6148977000011655,192.60273020000022,194.6028852999989,2.6150773000008485,None,1,increament,0.6,15,standard,None,100,,,,,,,,m,20,233,fr,r,0,raw,2023-04-04_16h00.03.122,oddball,2022.2.5,60.204913443599324,
5,,,,,0,0,0,1,1,0,1,0,2,0,2,0,,,,,,,,,,,,,,,,,194.6195143999994,195.336427799999,195.336427799999,195.93631749999986,0.6154172000005929,195.93631749999986,197.93600399999923,2.615037499999744,None,1,increament,0.6,15,standard,None,100,,,,,,,,m,20,233,fr,r,0,raw,2023-04-04_16h00.03.122,oddball,2022.2.5,60.204913443599324,
5,,,,,0,0,0,1,1,0,1,0,3,0,3,0,,,,,,,,,,,,,,,,,197.95270549999987,198.51966019999963,198.51966019999963,199.11996069999987,0.6154717999997956,199.11996069999987,201.1199586999992,2.615395599999829,None,1,increament,0.6,15,standard,None,100,,,,,,,,m,20,233,fr,r,0,raw,2023-04-04_16h00.03.122,oddball,2022.2.5,60.204913443599324,
5,,,,,0,0,0,1,1,0,1,0,4,0,4,0,,,,,,,,,,,,,,,,,201.1364070999989,201.81959329999881,201.81959329999881,202.4199762999997,0.6156033999995998,202.4199762999997,204.419614299999,2.615145899999334,None,1,increament,0.6,15,standard,None,100,,,,,,,,m,20,233,fr,r,0,raw,2023-04-04_16h00.03.122,oddball,2022.2.5,60.204913443599324,
5,,,,,0,0,0,1,1,0,1,0,5,0,5,0,,,,,,,,,,,,,,,,,204.43616689999908,205.11968539999907,205.11968539999907,205.70311330000004,0.5996617000000697,205.71971229999872,207.70314999999937,2.5997114999991027,None,1,increament,0.6,15,standard,None,100,,,,,,,,m,20,233,fr,r,0,raw,2023-04-04_16h00.03.122,oddball,2022.2.5,60.204913443599324,
5,,,,,0,0,0,1,1,0,1,0,6,0,6,0,,,,,,,,,,,,,,,,,207.71982919999937,208.3366447999997,208.3366447999997,209.05341979999866,0.7308613999994122,209.07019079999918,211.05342810000002,2.7308733999998367,j,1,increament,0.72,16,oddball,j,120,0.7830684000000474,,,,,,,m,20,233,fr,r,0,raw,2023-04-04_16h00.03.122,oddball,2022.2.5,60.204913443599324,
5,,,,,0,0,0,1,1,0,1,0,7,0,7,0,,,,,,,,,,,,,,,,,211.07018029999927,211.68664739999986,211.68664739999986,212.28708939999888,0.615664500001003,212.28708939999888,214.2866823000004,2.6151227000009385,None,1,increament,0.6,15,standard,None,100,,,,,,,,m,20,233,fr,r,0,raw,2023-04-04_16h00.03.122,oddball,2022.2.5,60.204913443599324,
5,,,,,0,0,0,1,1,0,1,0,8,0,8,0,,,,,,,,,,,,,,,,,214.30329879999954,214.92010239999945,214.92010239999945,215.5034814999999,0.5996744000003673,215.5201524999993,217.5033800000001,2.5995637999985775,None,1,increament,0.6,15,standard,None,100,,,,,,,,m,20,233,fr,r,0,raw,2023-04-04_16h00.03.122,oddball,2022.2.5,60.204913443599324,
5,,,,,0,0,0,1,1,0,1,0,9,0,9,0,,,,,,,,,,,,,,,,,217.52016579999872,218.28729079999903,218.28729079999903,218.88709600000038,0.6153330000015558,218.88709600000038,220.8874995999995,2.6157724000004237,None,1,increament,0.6,15,standard,None,100,,,,,,,,m,20,233,fr,r,0,raw,2023-04-04_16h00.03.122,oddball,2022.2.5,60.204913443599324,
5,,,,,0,0,0,1,1,0,1,0,10,0,10,0,,,,,,,,,,,,,,,,,220.9037446000002,221.6206328999997,221.6206328999997,222.22076910000033,0.6148866999992606,222.22076910000033,224.22020709999924,2.6141979999993055,None,1,increament,0.6,15,standard,None,100,,,,,,,,m,20,233,fr,r,0,raw,2023-04-04_16h00.03.122,oddball,2022.2.5,60.204913443599324,
5,,,,,0,0,0,1,1,0,1,0,11,0,11,0,,,,,,,,,,,,,,,,,224.23716760000025,224.97057159999895,224.97057159999895,225.55421829999977,0.6003896000001987,225.57099310000012,227.55404869999984,2.600109999999404,j,0,increament,0.6,15,standard,None,100,1.0348594000006415,,,,,,,m,20,233,fr,r,0,raw,2023-04-04_16h00.03.122,oddball,2022.2.5,60.204913443599324,
5,,,,,0,0,0,1,1,0,1,0,12,0,12,0,,,,,,,,,,,,,,,,,227.57052929999918,228.3205655999991,228.3205655999991,228.90373589999945,0.5990122000002884,228.92049659999975,230.9040286999989,2.5993039999993925,None,1,increament,0.6,15,standard,None,100,,,,,,,,m,20,233,fr,r,0,raw,2023-04-04_16h00.03.122,oddball,2022.2.5,60.204913443599324,
5,,,,,0,0,0,1,1,0,1,0,13,0,13,0,,,,,,,,,,,,,,,,,230.92062710000027,231.58777519999967,231.58777519999967,232.53739289999976,0.9642266999999265,232.55546089999916,234.53798789999928,2.964942799999335,j,1,increament,0.96,18,oddball,j,160,0.5510931000007986,,,,,,,m,20,233,fr,r,0,raw,2023-04-04_16h00.03.122,oddball,2022.2.5,60.204913443599324,
5,,,,,0,0,0,1,1,0,1,0,14,0,14,0,,,,,,,,,,,,,,,,,234.55427690000033,235.12110589999975,235.12110589999975,235.7043634999991,0.6159580000003189,235.721340099999,237.70462729999963,2.6158219999997527,None,1,increament,0.6,15,standard,None,100,,,,,,,,m,20,233,fr,r,0,raw,2023-04-04_16h00.03.122,oddball,2022.2.5,60.204913443599324,
5,,,,,0,0,0,1,1,0,1,0,15,0,15,0,,,,,,,,,,,,,,,,,237.73779850000028,238.32103359999928,238.32103359999928,238.9211381999994,0.6153539000006276,238.9211381999994,240.92104469999867,2.6152168000007805,None,1,increament,0.6,15,standard,None,100,,,,,,,,m,20,233,fr,r,0,raw,2023-04-04_16h00.03.122,oddball,2022.2.5,60.204913443599324,
5,,,,,0,0,0,1,1,0,1,0,16,0,16,0,,,,,,,,,,,,,,,,,240.93763190000027,241.5544245000001,241.5544245000001,242.13817059999928,0.6002803999999742,242.15455939999993,244.13775879999957,2.5997523999994883,None,1,increament,0.6,15,standard,None,100,,,,,,,,m,20,233,fr,r,0,raw,2023-04-04_16h00.03.122,oddball,2022.2.5,60.204913443599324,
5,,,,,0,0,0,1,1,0,1,0,17,0,17,0,,,,,,,,,,,,,,,,,244.15442169999915,244.9211876999998,244.9211876999998,245.50492209999902,0.5997186000004149,245.52142079999976,247.50476589999926,2.5996215000013763,None,1,increament,0.6,15,standard,None,100,,,,,,,,m,20,233,fr,r,0,raw,2023-04-04_16h00.03.122,oddball,2022.2.5,60.204913443599324,
5,,,,,0,0,0,1,1,0,1,0,18,0,18,0,,,,,,,,,,,,,,,,,247.52133019999928,248.17165269999896,248.17165269999896,248.77174489999925,0.6157155000000785,248.77174489999925,250.77143230000001,2.6152717000004486,None,1,increament,0.6,15,standard,None,100,,,,,,,,m,20,233,fr,r,0,raw,2023-04-04_16h00.03.122,oddball,2022.2.5,60.204913443599324,
5,,,,,0,0,0,1,1,0,1,0,19,0,19,0,,,,,,,,,,,,,,,,,250.7879998999997,251.38818030000039,251.38818030000039,251.97148339999876,0.5992779999996856,251.98804609999934,253.97147219999897,2.5993781999986822,None,1,increament,0.6,15,standard,None,100,,,,,,,,m,20,233,fr,r,0,raw,2023-04-04_16h00.03.122,oddball,2022.2.5,60.204913443599324,
5,,,,,0,0,0,1,1,0,1,0,20,0,20,0,,,,,,,,,,,,,,,,,253.98802169999908,254.6382168,254.6382168,255.22191269999894,0.6000505999982124,255.23860239999885,257.2216539000001,2.5996964999994816,None,1,increament,0.6,15,standard,None,100,,,,,,,,m,20,233,fr,r,0,raw,2023-04-04_16h00.03.122,oddball,2022.2.5,60.204913443599324,
5,,,,,0,0,0,1,1,0,1,0,21,0,21,0,,,,,,,,,,,,,,,,,257.2383847000001,257.9718153999984,257.9718153999984,258.57178069999827,0.6155405999998038,258.57178069999827,260.5719919999992,2.615763699999661,None,1,increament,0.6,15,standard,None,100,,,,,,,,m,20,233,fr,r,0,raw,2023-04-04_16h00.03.122,oddball,2022.2.5,60.204913443599324,
5,,,,,0,0,0,1,1,0,1,0,22,0,22,0,,,,,,,,,,,,,,,,,260.588383100001,261.33828919999905,261.33828919999905,262.1722815000012,0.8491921999993792,262.1886921999994,264.17226570000093,2.8491570000005595,j,1,increament,0.84,17,oddball,j,140,0.46707990000140853,,,,,,,m,20,233,fr,r,0,raw,2023-04-04_16h00.03.122,oddball,2022.2.5,60.204913443599324,
5,,,,,0,0,0,1,1,0,1,0,23,0,23,0,,,,,,,,,,,,,,,,,264.18880829999944,264.7220666000012,264.7220666000012,265.3056682000006,0.5992347999999765,265.32224959999985,267.30575289999797,2.5992517999984557,None,1,increament,0.6,15,standard,None,100,,,,,,,,m,20,233,fr,r,0,raw,2023-04-04_16h00.03.122,oddball,2022.2.5,60.204913443599324,
5,,,,,0,0,0,1,1,0,1,0,24,0,24,0,,,,,,,,,,,,,,,,,267.3223291999984,268.03914089999853,268.03914089999853,268.639341600001,0.6155555000004824,268.639341600001,270.6393169999992,2.6155462999995507,None,1,increament,0.6,15,standard,None,100,,,,,,,,m,20,233,fr,r,0,raw,2023-04-04_16h00.03.122,oddball,2022.2.5,60.204913443599324,
5,,,,,0,0,0,1,1,0,1,0,25,0,25,0,,,,,,,,,,,,,,,,,270.65576580000015,271.2227961999979,271.2227961999979,271.8223304000003,0.6145238999997673,271.8223304000003,273.8223061000008,2.61443220000001,None,1,increament,0.6,15,standard,None,100,,,,,,,,m,20,233,fr,r,0,raw,2023-04-04_16h00.03.122,oddball,2022.2.5,60.204913443599324,
5,,,,,0,0,0,1,1,0,1,0,26,0,26,0,,,,,,,,,,,,,,,,,273.83919810000043,274.6389368,274.6389368,275.2389569999996,0.6156273000015062,275.2389569999996,277.23899039999924,2.615571700000146,None,1,increament,0.6,15,standard,None,100,,,,,,,,m,20,233,fr,r,0,raw,2023-04-04_16h00.03.122,oddball,2022.2.5,60.204913443599324,
5,,,,,0,0,0,1,1,0,1,0,27,0,27,0,,,,,,,,,,,,,,,,,277.2555397999986,277.84015329999784,277.84015329999784,278.4226981999982,0.5998641000005591,278.43906310000057,280.4224936999981,2.59960399999909,None,1,increament,0.6,15,standard,None,100,,,,,,,,m,20,233,fr,r,0,raw,2023-04-04_16h00.03.122,oddball,2022.2.5,60.204913443599324,
5,,,,,0,0,0,1,1,0,1,0,28,0,28,0,,,,,,,,,,,,,,,,,280.4392217000004,281.05624889999854,281.05624889999854,281.63941929999964,0.5994906999985687,281.6561894999995,283.63921129999835,2.5991802999997162,None,1,increament,0.6,15,standard,None,100,,,,,,,,m,20,233,fr,r,0,raw,2023-04-04_16h00.03.122,oddball,2022.2.5,60.204913443599324,
5,,,,,0,0,0,1,1,0,1,0,29,0,29,0,,,,,,,,,,,,,,,,,283.6558791000007,284.28934130000016,284.28934130000016,284.8731124999995,0.6000991000000795,284.8897878000007,286.87306290000015,2.6000042999985453,None,1,increament,0.6,15,standard,None,100,,,,,,,,m,20,233,fr,r,0,raw,2023-04-04_16h00.03.122,oddball,2022.2.5,60.204913443599324,
5,,,,,0,0,0,1,2,0,2,0,0,0,0,0,,,,,,,,,,,,,,,297.706344799999,297.706344799999,299.3065598000012,300.1566526000006,300.1566526000006,300.7402299000005,0.5994012999981351,300.7566244999998,302.7403489999979,2.5995220000004338,None,1,decreament,0.6,11,standard,None,100,,286.889546299999,0.0021231999999145046,,,,,m,20,233,fr,r,0,raw,2023-04-04_16h00.03.122,oddball,2022.2.5,60.204913443599324,
5,,,,,0,0,0,1,2,0,2,0,1,0,1,0,,,,,,,,,,,,,,,,,302.7567567999995,303.45672659999946,303.45672659999946,304.04009309999856,0.5995256000023801,304.0565775999985,306.04001590000007,2.599485500002629,None,1,decreament,0.6,11,standard,None,100,,,,,,,,m,20,233,fr,r,0,raw,2023-04-04_16h00.03.122,oddball,2022.2.5,60.204913443599324,
5,,,,,0,0,0,1,2,0,2,0,2,0,2,0,,,,,,,,,,,,,,,,,306.0568589000013,306.57383160000063,306.57383160000063,307.1734224000011,0.6149049000014202,307.1734224000011,309.1735411999998,2.615012400001433,None,1,decreament,0.6,11,standard,None,100,,,,,,,,m,20,233,fr,r,0,raw,2023-04-04_16h00.03.122,oddball,2022.2.5,60.204913443599324,
5,,,,,0,0,0,1,2,0,2,0,3,0,3,0,,,,,,,,,,,,,,,,,309.19005819999984,309.8068336999986,309.8068336999986,310.39061689999835,0.5997934999977588,310.4070765999986,312.39083709999795,2.600072299999738,None,1,decreament,0.6,11,standard,None,100,,,,,,,,m,20,233,fr,r,0,raw,2023-04-04_16h00.03.122,oddball,2022.2.5,60.204913443599324,
5,,,,,0,0,0,1,2,0,2,0,4,0,4,0,,,,,,,,,,,,,,,,,312.40720540000075,313.0572564999984,313.0572564999984,313.6570745000008,0.6145389000012074,313.6570745000008,315.6574257000011,2.614952500000072,None,1,decreament,0.6,11,standard,None,100,,,,,,,,m,20,233,fr,r,0,raw,2023-04-04_16h00.03.122,oddball,2022.2.5,60.204913443599324,
5,,,,,0,0,0,1,2,0,2,0,5,0,5,0,,,,,,,,,,,,,,,,,315.6740020999987,316.35753959999965,316.35753959999965,316.9576791999989,0.6154148999994504,316.9576791999989,318.9575504000004,2.615249499998754,None,1,decreament,0.6,11,standard,None,100,,,,,,,,m,20,233,fr,r,0,raw,2023-04-04_16h00.03.122,oddball,2022.2.5,60.204913443599324,
5,,,,,0,0,0,1,2,0,2,0,6,0,6,0,,,,,,,,,,,,,,,,,318.9743560000006,319.6743974000001,319.6743974000001,320.27448099999856,0.6156000000009954,320.27448099999856,322.27451629999814,2.615656800000579,None,1,decreament,0.6,11,standard,None,100,,,,,,,,m,20,233,fr,r,0,raw,2023-04-04_16h00.03.122,oddball,2022.2.5,60.204913443599324,
5,,,,,0,0,0,1,2,0,2,0,7,0,7,0,,,,,,,,,,,,,,,,,322.2911049000013,323.04123419999996,323.04123419999996,323.2743919000004,0.24861930000042776,323.2912199000002,325.27474970000003,2.2490648000020883,j,1,decreament,0.24,12,oddball,j,40,0.45851219999894965,,,,,,,m,20,233,fr,r,0,raw,2023-04-04_16h00.03.122,oddball,2022.2.5,60.204913443599324,
5,,,,,0,0,0,1,2,0,2,0,8,0,8,0,,,,,,,,,,,,,,,,,325.29124019999836,326.05743229999825,326.05743229999825,326.64128009999877,0.600015899999562,326.65787660000024,328.6409240999983,2.5996100999982446,None,1,decreament,0.6,11,standard,None,100,,,,,,,,m,20,233,fr,r,0,raw,2023-04-04_16h00.03.122,oddball,2022.2.5,60.204913443599324,
5,,,,,0,0,0,1,2,0,2,0,9,0,9,0,,,,,,,,,,,,,,,,,328.65765459999784,329.39100040000085,329.39100040000085,329.97454990000006,0.5994042000020272,329.9912585000002,331.97483009999814,2.5997848000006343,None,1,decreament,0.6,11,standard,None,100,,,,,,,,m,20,233,fr,r,0,raw,2023-04-04_16h00.03.122,oddball,2022.2.5,60.204913443599324,
5,,,,,0,0,0,1,2,0,2,0,10,0,10,0,,,,,,,,,,,,,,,,,331.9912128999986,332.54137960000116,332.54137960000116,333.124823199998,0.5993017000000691,333.14142869999887,335.12487149999833,2.5992191999976058,None,1,decreament,0.6,11,standard,None,100,,,,,,,,m,20,233,fr,r,0,raw,2023-04-04_16h00.03.122,oddball,2022.2.5,60.204913443599324,
5,,,,,0,0,0,1,2,0,2,0,11,0,11,0,,,,,,,,,,,,,,,,,335.14155930000015,335.8080699000002,335.8080699000002,336.3915346999984,0.5995763999999326,336.4082279999984,338.39133729999776,2.5993185000006633,None,1,decreament,0.6,11,standard,None,100,,,,,,,,m,20,233,fr,r,0,raw,2023-04-04_16h00.03.122,oddball,2022.2.5,60.204913443599324,
5,,,,,0,0,0,1,2,0,2,0,12,0,12,0,,,,,,,,,,,,,,,,,338.40792859999965,339.0412555999992,339.0412555999992,339.6247439999988,0.5993525000012596,339.6413682000002,341.6249211000013,2.5995542999989993,None,1,decreament,0.6,11,standard,None,100,,,,,,,,m,20,233,fr,r,0,raw,2023-04-04_16h00.03.122,oddball,2022.2.5,60.204913443599324,
5,,,,,0,0,0,1,2,0,2,0,13,0,13,0,,,,,,,,,,,,,,,,,341.64147369999955,342.2582272999989,342.2582272999989,342.84154619999936,0.5995175999996718,342.85805319999963,344.84151849999944,2.5994295999989845,None,1,decreament,0.6,11,standard,None,100,,,,,,,,m,20,233,fr,r,0,raw,2023-04-04_16h00.03.122,oddball,2022.2.5,60.204913443599324,
5,,,,,0,0,0,1,2,0,2,0,14,0,14,0,,,,,,,,,,,,,,,,,344.8581379999978,345.44183299999895,345.44183299999895,346.0420929000011,0.6155469000004814,346.0420929000011,348.04162950000136,2.614968800000497,j,0,decreament,0.6,11,standard,None,100,0.8501421000000846,,,,,,,m,20,233,fr,r,0,raw,2023-04-04_16h00.03.122,oddball,2022.2.5,60.204913443599324,
5,,,,,0,0,0,1,2,0,2,0,15,0,15,0,,,,,,,,,,,,,,,,,348.05836720000116,348.80835489999845,348.80835489999845,349.39219449999837,0.6000519000008353,349.4086662999998,351.39232489999813,2.6002279999993334,None,1,decreament,0.6,11,standard,None,100,,,,,,,,m,20,233,fr,r,0,raw,2023-04-04_16h00.03.122,oddball,2022.2.5,60.204913443599324,
5,,,,,0,0,0,1,2,0,2,0,16,0,16,0,,,,,,,,,,,,,,,,,351.40869089999796,352.10857360000045,352.10857360000045,352.6920091999982,0.5995534000030602,352.70848039999873,354.6919818000006,2.599674800003413,None,1,decreament,0.6,11,standard,None,100,,,,,,,,m,20,233,fr,r,0,raw,2023-04-04_16h00.03.122,oddball,2022.2.5,60.204913443599324,
5,,,,,0,0,0,1,2,0,2,0,17,0,17,0,,,,,,,,,,,,,,,,,354.7087387999982,355.35873869999887,355.35873869999887,355.94247350000114,0.5996741999988444,355.95893389999947,357.94247019999784,2.5996161000002758,None,1,decreament,0.6,11,standard,None,100,,,,,,,,m,20,233,fr,r,0,raw,2023-04-04_16h00.03.122,oddball,2022.2.5,60.204913443599324,
5,,,,,0,0,0,1,2,0,2,0,18,0,18,0,,,,,,,,,,,,,,,,,357.9590558,358.5090930999995,358.5090930999995,359.10913059999984,0.6149885000013455,359.10913059999984,361.1091111000005,2.6148677000019234,None,1,decreament,0.6,11,standard,None,100,,,,,,,,m,20,233,fr,r,0,raw,2023-04-04_16h00.03.122,oddball,2022.2.5,60.204913443599324,
5,,,,,0,0,0,1,2,0,2,0,19,0,19,0,,,,,,,,,,,,,,,,,361.1257162999991,361.8256601999983,361.8256601999983,362.17559620000065,0.3659334999974817,362.1922575999979,364.17573919999813,2.3660945999981777,j,1,decreament,0.36,13,oddball,j,60,0.5517136000016762,,,,,,,m,20,233,fr,r,0,raw,2023-04-04_16h00.03.122,oddball,2022.2.5,60.204913443599324,
5,,,,,0,0,0,1,2,0,2,0,20,0,20,0,,,,,,,,,,,,,,,,,364.19252959999903,364.95904379999956,364.95904379999956,365.5425245999995,0.59970869999961,365.5593385999982,367.5428250999994,2.599915399998281,None,1,decreament,0.6,11,standard,None,100,,,,,,,,m,20,233,fr,r,0,raw,2023-04-04_16h00.03.122,oddball,2022.2.5,60.204913443599324,
5,,,,,0,0,0,1,2,0,2,0,21,0,21,0,,,,,,,,,,,,,,,,,367.55910309999854,368.15940659999796,368.15940659999796,368.75930640000115,0.6147380999973393,368.75930640000115,370.7596515999994,2.615392499999871,None,1,decreament,0.6,11,standard,None,100,,,,,,,,m,20,233,fr,r,0,raw,2023-04-04_16h00.03.122,oddball,2022.2.5,60.204913443599324,
5,,,,,0,0,0,1,2,0,2,0,22,0,22,0,,,,,,,,,,,,,,,,,370.77605980000044,371.5428515000003,371.5428515000003,372.14312510000127,0.6157088999971165,372.14312510000127,374.14311239999915,2.615595499999472,None,1,decreament,0.6,11,standard,None,100,,,,,,,,m,20,233,fr,r,0,raw,2023-04-04_16h00.03.122,oddball,2022.2.5,60.204913443599324,
5,,,,,0,0,0,1,2,0,2,0,23,0,23,0,,,,,,,,,,,,,,,,,374.1594557999979,374.892941600001,374.892941600001,375.4761536999995,0.5991087000002153,375.49266429999807,377.47630050000043,2.599246099998709,None,1,decreament,0.6,11,standard,None,100,,,,,,,,m,20,233,fr,r,0,raw,2023-04-04_16h00.03.122,oddball,2022.2.5,60.204913443599324,
5,,,,,0,0,0,1,2,0,2,0,24,0,24,0,,,,,,,,,,,,,,,,,377.49297359999946,378.1935857999979,378.1935857999979,378.7934501,0.6147582000012335,378.7934501,380.79331289999936,2.6145881000011286,None,1,decreament,0.6,11,standard,None,100,,,,,,,,m,20,233,fr,r,0,raw,2023-04-04_16h00.03.122,oddball,2022.2.5,60.204913443599324,
5,,,,,0,0,0,1,2,0,2,0,25,0,25,0,,,,,,,,,,,,,,,,,380.8098492000008,381.37640099999953,381.37640099999953,381.9598161999984,0.5996559999985038,381.9764684999991,383.95968950000133,2.599488799998653,None,1,decreament,0.6,11,standard,None,100,,,,,,,,m,20,233,fr,r,0,raw,2023-04-04_16h00.03.122,oddball,2022.2.5,60.204913443599324,
5,,,,,0,0,0,1,2,0,2,0,26,0,26,0,,,,,,,,,,,,,,,,,383.97671810000065,384.59326899999905,384.59326899999905,385.17661639999824,0.5992323999998916,385.19314549999945,387.1766262000001,2.599261100000149,None,1,decreament,0.6,11,standard,None,100,,,,,,,,m,20,233,fr,r,0,raw,2023-04-04_16h00.03.122,oddball,2022.2.5,60.204913443599324,
5,,,,,0,0,0,1,2,0,2,0,27,0,27,0,,,,,,,,,,,,,,,,,387.19333160000133,387.74321600000076,387.74321600000076,388.3266476999979,0.5993553000007523,388.3432030999993,390.32723449999867,2.600066400002106,None,1,decreament,0.6,11,standard,None,100,,,,,,,,m,20,233,fr,r,0,raw,2023-04-04_16h00.03.122,oddball,2022.2.5,60.204913443599324,
5,,,,,0,0,0,1,2,0,2,0,28,0,28,0,,,,,,,,,,,,,,,,,390.34362520000104,390.9433319,390.9433319,391.5265328000005,0.5995942000008654,391.5433009999997,393.5270718999982,2.6002217999994173,None,1,decreament,0.6,11,standard,None,100,,,,,,,,m,20,233,fr,r,0,raw,2023-04-04_16h00.03.122,oddball,2022.2.5,60.204913443599324,
5,,,,,0,0,0,1,2,0,2,0,29,0,29,0,,,,,,,,,,,,,,,,,393.54346970000006,394.0771356999994,394.0771356999994,394.5434929999992,0.4817500999997719,394.5599940999982,396.5437961999978,2.4821410000004107,j,1,decreament,0.48,14,oddball,j,80,0.5683148999996774,,,,,,,m,20,233,fr,r,0,raw,2023-04-04_16h00.03.122,oddball,2022.2.5,60.204913443599324,
5,,,,,0,0,0,1,3,0,3,0,0,0,0,0,,,,,,,,,,,,,,,404.04372279999916,404.04372279999916,406.42718799999966,407.2272839999987,407.2272839999987,407.81088740000087,0.5998249000003852,407.8276528000006,409.8106461999978,2.5995075999999244,None,1,increament,0.6,15,standard,None,100,,396.5604030000013,0.0019062000028498005,,,,,m,20,233,fr,r,0,raw,2023-04-04_16h00.03.122,oddball,2022.2.5,60.204913443599324,
5,,,,,0,0,0,1,3,0,3,0,1,0,1,0,,,,,,,,,,,,,,,,,409.8274129000001,410.4941252999979,410.4941252999979,411.0774059999985,0.5994730999991589,411.0941143,413.07793069999934,2.6000974999988102,None,1,increament,0.6,15,standard,None,100,,,,,,,,m,20,233,fr,r,0,raw,2023-04-04_16h00.03.122,oddball,2022.2.5,60.204913443599324,
5,,,,,0,0,0,1,3,0,3,0,2,0,2,0,,,,,,,,,,,,,,,,,413.09433119999994,413.6945328999991,413.6945328999991,414.29464220000045,0.6152313999991748,414.29464220000045,416.2947211999981,2.6153228000002855,None,1,increament,0.6,15,standard,None,100,,,,,,,,m,20,233,fr,r,0,raw,2023-04-04_16h00.03.122,oddball,2022.2.5,60.204913443599324,
5,,,,,0,0,0,1,3,0,3,0,3,0,3,0,,,,,,,,,,,,,,,,,416.3112751999997,416.92789639999864,416.92789639999864,417.52812839999933,0.615435299998353,417.52812839999933,419.52813810000043,2.615427400000044,None,1,increament,0.6,15,standard,None,100,,,,,,,,m,20,233,fr,r,0,raw,2023-04-04_16h00.03.122,oddball,2022.2.5,60.204913443599324,
5,,,,,0,0,0,1,3,0,3,0,4,0,4,0,,,,,,,,,,,,,,,,,419.5444460999988,420.145004,420.145004,420.7447912999978,0.6150672999974631,420.7447912999978,422.74471989999984,2.6151241999978083,None,1,increament,0.6,15,standard,None,100,,,,,,,,m,20,233,fr,r,0,raw,2023-04-04_16h00.03.122,oddball,2022.2.5,60.204913443599324,
5,,,,,0,0,0,1,3,0,3,0,5,0,5,0,,,,,,,,,,,,,,,,,422.7612312000001,423.3614671999985,423.3614671999985,423.9615763999991,0.6148477999995521,423.9615763999991,425.9613120999984,2.614556000000448,None,1,increament,0.6,15,standard,None,100,,,,,,,,m,20,233,fr,r,0,raw,2023-04-04_16h00.03.122,oddball,2022.2.5,60.204913443599324,
5,,,,,0,0,0,1,3,0,3,0,6,0,6,0,,,,,,,,,,,,,,,,,425.97800240000106,426.61130199999934,426.61130199999934,427.19458399999894,0.5994962000004307,427.21127069999966,429.19463949999954,2.5995421999978134,None,1,increament,0.6,15,standard,None,100,,,,,,,,m,20,233,fr,r,0,raw,2023-04-04_16h00.03.122,oddball,2022.2.5,60.204913443599324,
5,,,,,0,0,0,1,3,0,3,0,7,0,7,0,,,,,,,,,,,,,,,,,429.2113616000006,429.79485490000116,429.79485490000116,430.3783152999986,0.600023400002101,430.39480110000113,432.3782639000001,2.5999622999988787,None,1,increament,0.6,15,standard,None,100,,,,,,,,m,20,233,fr,r,0,raw,2023-04-04_16h00.03.122,oddball,2022.2.5,60.204913443599324,
5,,,,,0,0,0,1,3,0,3,0,8,0,8,0,,,,,,,,,,,,,,,,,432.39493299999776,433.1448522999981,433.1448522999981,434.0954260999988,0.966675399999076,434.11185469999873,436.0951201000007,2.9662472999989404,j,1,increament,0.96,18,oddball,j,160,0.2900764000005438,,,,,,,m,20,233,fr,r,0,raw,2023-04-04_16h00.03.122,oddball,2022.2.5,60.204913443599324,
5,,,,,0,0,0,1,3,0,3,0,9,0,9,0,,,,,,,,,,,,,,,,,436.111944899998,436.72840220000035,436.72840220000035,437.31191969999963,0.5996593999989273,437.32863199999883,439.3122142000011,2.6000038999991375,None,1,increament,0.6,15,standard,None,100,,,,,,,,m,20,233,fr,r,0,raw,2023-04-04_16h00.03.122,oddball,2022.2.5,60.204913443599324,
5,,,,,0,0,0,1,3,0,3,0,10,0,10,0,,,,,,,,,,,,,,,,,439.3288733999998,440.02885459999925,440.02885459999925,440.6284996000013,0.6149861000012606,440.6284996000013,442.6291872999991,2.6157980999996653,None,1,increament,0.6,15,standard,None,100,,,,,,,,m,20,233,fr,r,0,raw,2023-04-04_16h00.03.122,oddball,2022.2.5,60.204913443599324,
5,,,,,0,0,0,1,3,0,3,0,11,0,11,0,,,,,,,,,,,,,,,,,442.6452513999993,443.16238580000027,443.16238580000027,443.7622806999989,0.6149807000001601,443.7622806999989,445.76241240000127,2.6150975999989896,None,1,increament,0.6,15,standard,None,100,,,,,,,,m,20,233,fr,r,0,raw,2023-04-04_16h00.03.122,oddball,2022.2.5,60.204913443599324,
5,,,,,0,0,0,1,3,0,3,0,12,0,12,0,,,,,,,,,,,,,,,,,445.77907999999843,446.5788325000012,446.5788325000012,447.1625918000009,0.6001851000000897,447.17926460000126,449.1620235999999,2.5994897999989917,None,1,increament,0.6,15,standard,None,100,,,,,,,,m,20,233,fr,r,0,raw,2023-04-04_16h00.03.122,oddball,2022.2.5,60.204913443599324,
5,,,,,0,0,0,1,3,0,3,0,13,0,13,0,,,,,,,,,,,,,,,,,449.1792254999982,449.87895860000026,449.87895860000026,450.46218279999994,0.599394900000334,450.4788619999981,452.46224659999825,2.5994585000007646,None,1,increament,0.6,15,standard,None,100,,,,,,,,m,20,233,fr,r,0,raw,2023-04-04_16h00.03.122,oddball,2022.2.5,60.204913443599324,
5,,,,,0,0,0,1,3,0,3,0,14,0,14,0,,,,,,,,,,,,,,,,,452.4789488000006,453.1957265000001,453.1957265000001,453.77907139999843,0.5996216999992612,453.7957374999987,455.7791825000004,2.599742399997922,None,1,increament,0.6,15,standard,None,100,,,,,,,,m,20,233,fr,r,0,raw,2023-04-04_16h00.03.122,oddball,2022.2.5,60.204913443599324,
5,,,,,0,0,0,1,3,0,3,0,15,0,15,0,,,,,,,,,,,,,,,,,455.7958047000011,456.4630120999991,456.4630120999991,457.06253639999886,0.615093500000512,457.06253639999886,459.0624717999981,2.6150210999985575,None,1,increament,0.6,15,standard,None,100,,,,,,,,m,20,233,fr,r,0,raw,2023-04-04_16h00.03.122,oddball,2022.2.5,60.204913443599324,
5,,,,,0,0,0,1,3,0,3,0,16,0,16,0,,,,,,,,,,,,,,,,,459.07945519999885,459.7130429000008,459.7130429000008,460.31286290000025,0.6149426000010862,460.31286290000025,462.31270029999905,2.614692600000126,None,1,increament,0.6,15,standard,None,100,,,,,,,,m,20,233,fr,r,0,raw,2023-04-04_16h00.03.122,oddball,2022.2.5,60.204913443599324,
5,,,,,0,0,0,1,3,0,3,0,17,0,17,0,,,,,,,,,,,,,,,,,462.3293756000003,462.86263489999874,462.86263489999874,463.6960729000002,0.8494623000005959,463.7126085,465.6966329000006,2.8501288000006753,j,1,increament,0.84,17,oddball,j,140,0.3842588000006799,,,,,,,m,20,233,fr,r,0,raw,2023-04-04_16h00.03.122,oddball,2022.2.5,60.204913443599324,
5,,,,,0,0,0,1,3,0,3,0,18,0,18,0,,,,,,,,,,,,,,,,,465.71318710000014,466.3799463999985,466.3799463999985,466.97995759999867,0.6156288999991375,466.97995759999867,468.97954469999786,2.615128800000093,None,1,increament,0.6,15,standard,None,100,,,,,,,,m,20,233,fr,r,0,raw,2023-04-04_16h00.03.122,oddball,2022.2.5,60.204913443599324,
5,,,,,0,0,0,1,3,0,3,0,19,0,19,0,,,,,,,,,,,,,,,,,468.99629249999816,469.6965689999979,469.6965689999979,470.2965400000012,0.6144463000018732,470.2965400000012,472.29619640000055,2.614064800000051,None,1,increament,0.6,15,standard,None,100,,,,,,,,m,20,233,fr,r,0,raw,2023-04-04_16h00.03.122,oddball,2022.2.5,60.204913443599324,
5,,,,,0,0,0,1,3,0,3,0,20,0,20,0,,,,,,,,,,,,,,,,,472.3128874000013,472.9797677000006,472.9797677000006,473.5636179000012,0.6002112000023772,473.58032079999793,475.56315509999877,2.599668599999859,None,1,increament,0.6,15,standard,None,100,,,,,,,,m,20,233,fr,r,0,raw,2023-04-04_16h00.03.122,oddball,2022.2.5,60.204913443599324,
5,,,,,0,0,0,1,3,0,3,0,21,0,21,0,,,,,,,,,,,,,,,,,475.57984739999847,476.263312699999,476.263312699999,476.8469563999988,0.5999159999992116,476.86357690000114,478.84704729999976,2.6000476999979583,None,1,increament,0.6,15,standard,None,100,,,,,,,,m,20,233,fr,r,0,raw,2023-04-04_16h00.03.122,oddball,2022.2.5,60.204913443599324,
5,,,,,0,0,0,1,3,0,3,0,22,0,22,0,,,,,,,,,,,,,,,,,478.863198699999,479.5303627000012,479.5303627000012,480.130250799999,0.6157070000008389,480.130250799999,482.13038069999857,2.6158319000023766,None,1,increament,0.6,15,standard,None,100,,,,,,,,m,20,233,fr,r,0,raw,2023-04-04_16h00.03.122,oddball,2022.2.5,60.204913443599324,
5,,,,,0,0,0,1,3,0,3,0,23,0,23,0,,,,,,,,,,,,,,,,,482.1469522999996,482.7136706000001,482.7136706000001,483.2967124000006,0.5992246999994677,483.313499599999,485.2969460000004,2.59946409999975,None,1,increament,0.6,15,standard,None,100,,,,,,,,m,20,233,fr,r,0,raw,2023-04-04_16h00.03.122,oddball,2022.2.5,60.204913443599324,
5,,,,,0,0,0,1,3,0,3,0,24,0,24,0,,,,,,,,,,,,,,,,,485.3134958999999,485.930512500001,485.930512500001,486.51363319999837,0.5990992000006372,486.5305392999999,488.5137869000009,2.5992555000011635,None,1,increament,0.6,15,standard,None,100,,,,,,,,m,20,233,fr,r,0,raw,2023-04-04_16h00.03.122,oddball,2022.2.5,60.204913443599324,
5,,,,,0,0,0,1,3,0,3,0,25,0,25,0,,,,,,,,,,,,,,,,,488.5303487000001,489.28029539999807,489.28029539999807,489.8636170000009,0.599449100001948,489.8803191999996,491.86384350000117,2.599687600002653,None,1,increament,0.6,15,standard,None,100,,,,,,,,m,20,233,fr,r,0,raw,2023-04-04_16h00.03.122,oddball,2022.2.5,60.204913443599324,
5,,,,,0,0,0,1,3,0,3,0,26,0,26,0,,,,,,,,,,,,,,,,,491.8804920999992,492.5636863999989,492.5636863999989,493.28044620000037,0.7330479999982344,493.29713439999796,495.28058839999903,2.733130799999344,None,0,increament,0.72,16,oddball,j,120,,,,,,,,m,20,233,fr,r,0,raw,2023-04-04_16h00.03.122,oddball,2022.2.5,60.204913443599324,
5,,,,,0,0,0,1,3,0,3,0,27,0,27,0,,,,,,,,,,,,,,,,,495.2972513000004,496.14757869999994,496.14757869999994,496.7306096000011,0.5995930000026419,496.7473338,498.73098850000133,2.6000184000004083,None,1,increament,0.6,15,standard,None,100,,,,,,,,m,20,233,fr,r,0,raw,2023-04-04_16h00.03.122,oddball,2022.2.5,60.204913443599324,
5,,,,,0,0,0,1,3,0,3,0,28,0,28,0,,,,,,,,,,,,,,,,,498.74758230000043,499.56408669999837,499.56408669999837,500.1479221999998,0.6001824999984819,500.1643000999993,502.14761460000045,2.5996986999998626,None,1,increament,0.6,15,standard,None,100,,,,,,,,m,20,233,fr,r,0,raw,2023-04-04_16h00.03.122,oddball,2022.2.5,60.204913443599324,
5,,,,,0,0,0,1,3,0,3,0,29,0,29,0,,,,,,,,,,,,,,,,,502.1643254999999,502.781348399998,502.781348399998,503.38097749999906,0.6149918000010075,503.38097749999906,505.3814197999982,2.6155085999998846,None,1,increament,0.6,15,standard,None,100,,,,,,,,m,20,233,fr,r,0,raw,2023-04-04_16h00.03.122,oddball,2022.2.5,60.204913443599324,
5,,,,,0,0,0,1,4,0,4,0,0,0,0,0,,,,,,,,,,,,,,,510.08114530000057,510.08114530000057,515.0147334000012,515.7146655999986,515.7146655999986,516.2984009999982,0.5999252999972668,516.3149543999989,518.2981830999979,2.5996463999981643,None,1,decreament,0.6,11,standard,None,100,,505.3976133999986,0.0018688000018300954,,,,,m,20,233,fr,r,0,raw,2023-04-04_16h00.03.122,oddball,2022.2.5,60.204913443599324,
5,,,,,0,0,0,1,4,0,4,0,1,0,1,0,,,,,,,,,,,,,,,,,518.3147534,518.998333900001,518.998333900001,519.5817977999995,0.5997314999985974,519.5983462999993,521.5819455000001,2.5998866000009,None,1,decreament,0.6,11,standard,None,100,,,,,,,,m,20,233,fr,r,0,raw,2023-04-04_16h00.03.122,oddball,2022.2.5,60.204913443599324,
5,,,,,0,0,0,1,4,0,4,0,2,0,2,0,,,,,,,,,,,,,,,,,521.5984211999985,522.1486380000006,522.1486380000006,522.7482287000003,0.6153427000026568,522.7482287000003,524.7486375999997,2.615799800001696,None,1,decreament,0.6,11,standard,None,100,,,,,,,,m,20,233,fr,r,0,raw,2023-04-04_16h00.03.122,oddball,2022.2.5,60.204913443599324,
5,,,,,0,0,0,1,4,0,4,0,3,0,3,0,,,,,,,,,,,,,,,,,524.7652564,525.3489600999983,525.3489600999983,525.9485313999994,0.6142862000015157,525.9485313999994,527.9484425999999,2.614166200000909,None,1,decreament,0.6,11,standard,None,100,,,,,,,,m,20,233,fr,r,0,raw,2023-04-04_16h00.03.122,oddball,2022.2.5,60.204913443599324,
5,,,,,0,0,0,1,4,0,4,0,4,0,4,0,,,,,,,,,,,,,,,,,527.9650856999997,528.6151757999996,528.6151757999996,529.1984094999989,0.5995393000011973,529.2149535999979,531.1986892000004,2.5998528999989503,None,1,decreament,0.6,11,standard,None,100,,,,,,,,m,20,233,fr,r,0,raw,2023-04-04_16h00.03.122,oddball,2022.2.5,60.204913443599324,
5,,,,,0,0,0,1,4,0,4,0,5,0,5,0,,,,,,,,,,,,,,,,,531.2153114999983,531.9820822999991,531.9820822999991,532.2153409000002,0.24911689999862574,532.2318413000012,534.2153825000005,2.249128200000996,j,1,decreament,0.24,12,oddball,j,40,0.3979786000018066,,,,,,,m,20,233,fr,r,0,raw,2023-04-04_16h00.03.122,oddball,2022.2.5,60.204913443599324,
5,,,,,0,0,0,1,4,0,4,0,6,0,6,0,,,,,,,,,,,,,,,,,534.2319651999987,534.8486415999996,534.8486415999996,535.4325335999984,0.6001409000018612,535.4491488000003,537.432197199998,2.5996865999986767,None,1,decreament,0.6,11,standard,None,100,,,,,,,,m,20,233,fr,r,0,raw,2023-04-04_16h00.03.122,oddball,2022.2.5,60.204913443599324,
5,,,,,0,0,0,1,4,0,4,0,7,0,7,0,,,,,,,,,,,,,,,,,537.4488379999984,538.1157982999994,538.1157982999994,538.7159654000006,0.5990191000018967,538.7159654000006,540.7158379000011,2.5988939000017126,None,1,decreament,0.6,11,standard,None,100,,,,,,,,m,20,233,fr,r,0,raw,2023-04-04_16h00.03.122,oddball,2022.2.5,60.204913443599324,
5,,,,,0,0,0,1,4,0,4,0,8,0,8,0,,,,,,,,,,,,,,,,,540.7158379000011,541.332574099999,541.332574099999,541.9328745000003,0.6149818000012601,541.9328745000003,543.9324470999982,2.614408800000092,None,1,decreament,0.6,11,standard,None,100,,,,,,,,m,20,233,fr,r,0,raw,2023-04-04_16h00.03.122,oddball,2022.2.5,60.204913443599324,
5,,,,,0,0,0,1,4,0,4,0,9,0,9,0,,,,,,,,,,,,,,,,,543.9492888000004,544.5661783999985,544.5661783999985,545.1658520000001,0.6148561999980302,545.1658520000001,547.1661509999994,2.6152277999972284,None,1,decreament,0.6,11,standard,None,100,,,,,,,,m,20,233,fr,r,0,raw,2023-04-04_16h00.03.122,oddball,2022.2.5,60.204913443599324,
5,,,,,0,0,0,1,4,0,4,0,10,0,10,0,,,,,,,,,,,,,,,,,547.1826940999981,547.866282099998,547.866282099998,548.2161557999989,0.3651181999994151,548.2325666999986,550.2164185999991,2.3654831999992894,j,1,decreament,0.36,13,oddball,j,60,0.683318400002463,,,,,,,m,20,233,fr,r,0,raw,2023-04-04_16h00.03.122,oddball,2022.2.5,60.204913443599324,
5,,,,,0,0,0,1,4,0,4,0,11,0,11,0,,,,,,,,,,,,,,,,,550.232915300001,550.9331688000002,550.9331688000002,551.5329927000002,0.6153483999987657,551.5329927000002,553.5331537000002,2.615572200000315,None,1,decreament,0.6,11,standard,None,100,,,,,,,,m,20,233,fr,r,0,raw,2023-04-04_16h00.03.122,oddball,2022.2.5,60.204913443599324,
5,,,,,0,0,0,1,4,0,4,0,12,0,12,0,,,,,,,,,,,,,,,,,553.5498389000004,554.1665107999997,554.1665107999997,554.766097400001,0.6137185000006866,554.766097400001,556.7663955999978,2.614053099998273,None,1,decreament,0.6,11,standard,None,100,,,,,,,,m,20,233,fr,r,0,raw,2023-04-04_16h00.03.122,oddball,2022.2.5,60.204913443599324,
5,,,,,0,0,0,1,4,0,4,0,13,0,13,0,,,,,,,,,,,,,,,,,556.782960999999,557.5329330000004,557.5329330000004,558.1162032999982,0.5994535999998334,558.1329825999983,560.1167499999992,2.600109299997712,None,1,decreament,0.6,11,standard,None,100,,,,,,,,m,20,233,fr,r,0,raw,2023-04-04_16h00.03.122,oddball,2022.2.5,60.204913443599324,
5,,,,,0,0,0,1,4,0,4,0,14,0,14,0,,,,,,,,,,,,,,,,,560.133084799998,560.6664901999993,560.6664901999993,561.2500549999986,0.5996911000002001,561.2664827999997,563.2497882000007,2.599344400001428,None,1,decreament,0.6,11,standard,None,100,,,,,,,,m,20,233,fr,r,0,raw,2023-04-04_16h00.03.122,oddball,2022.2.5,60.204913443599324,
5,,,,,0,0,0,1,4,0,4,0,15,0,15,0,,,,,,,,,,,,,,,,,563.2663516000011,563.9664165000013,563.9664165000013,564.5497930000001,0.5996183999995992,564.5664792999978,566.549995299998,2.599859199999628,None,1,decreament,0.6,11,standard,None,100,,,,,,,,m,20,233,fr,r,0,raw,2023-04-04_16h00.03.122,oddball,2022.2.5,60.204913443599324,
5,,,,,0,0,0,1,4,0,4,0,16,0,16,0,,,,,,,,,,,,,,,,,566.5666413999988,567.1831419999999,567.1831419999999,567.766632599998,0.5995966999980737,567.7833455999989,569.7667434999985,2.5997036999979173,None,1,decreament,0.6,11,standard,None,100,,,,,,,,m,20,233,fr,r,0,raw,2023-04-04_16h00.03.122,oddball,2022.2.5,60.204913443599324,
5,,,,,0,0,0,1,4,0,4,0,17,0,17,0,,,,,,,,,,,,,,,,,569.7836532999991,570.3670488999978,570.3670488999978,570.9669276000004,0.6147144999995362,570.9669276000004,572.9672561999996,2.615033599999151,None,1,decreament,0.6,11,standard,None,100,,,,,,,,m,20,233,fr,r,0,raw,2023-04-04_16h00.03.122,oddball,2022.2.5,60.204913443599324,
5,,,,,0,0,0,1,4,0,4,0,18,0,18,0,,,,,,,,,,,,,,,,,572.9835941000001,573.6004233000003,573.6004233000003,574.2006868000008,0.6155422999981965,574.2006868000008,576.200307000001,2.6150375999968674,None,1,decreament,0.6,11,standard,None,100,,,,,,,,m,20,233,fr,r,0,raw,2023-04-04_16h00.03.122,oddball,2022.2.5,60.204913443599324,
5,,,,,0,0,0,1,4,0,4,0,19,0,19,0,,,,,,,,,,,,,,,,,576.2169386000005,576.9507088999981,576.9507088999981,577.5506029999979,0.6152695999990101,577.5506029999979,579.5502402000002,2.6148238999994646,None,1,decreament,0.6,11,standard,None,100,,,,,,,,m,20,233,fr,r,0,raw,2023-04-04_16h00.03.122,oddball,2022.2.5,60.204913443599324,
5,,,,,0,0,0,1,4,0,4,0,20,0,20,0,,,,,,,,,,,,,,,,,579.5672307000004,580.2010051999987,580.2010051999987,580.8010278999991,0.6156585999997333,580.8010278999991,582.8009832000007,2.615577399999893,None,1,decreament,0.6,11,standard,None,100,,,,,,,,m,20,233,fr,r,0,raw,2023-04-04_16h00.03.122,oddball,2022.2.5,60.204913443599324,
5,,,,,0,0,0,1,4,0,4,0,21,0,21,0,,,,,,,,,,,,,,,,,582.8174209999979,583.4175429000006,583.4175429000006,584.0011065999988,0.59941980000076,584.0176941000009,586.0006478999985,2.598844000000099,None,1,decreament,0.6,11,standard,None,100,,,,,,,,m,20,233,fr,r,0,raw,2023-04-04_16h00.03.122,oddball,2022.2.5,60.204913443599324,
5,,,,,0,0,0,1,4,0,4,0,22,0,22,0,,,,,,,,,,,,,,,,,586.0173427999998,586.6178490000002,586.6178490000002,587.2177967000007,0.6155275000019174,587.2177967000007,589.2174007999984,2.615015700001095,None,1,decreament,0.6,11,standard,None,100,,,,,,,,m,20,233,fr,r,0,raw,2023-04-04_16h00.03.122,oddball,2022.2.5,60.204913443599324,
5,,,,,0,0,0,1,4,0,4,0,23,0,23,0,,,,,,,,,,,,,,,,,589.2341752000011,589.8841626999983,589.8841626999983,590.4674953999984,0.5995404000022972,590.4842012999998,592.4673844999979,2.599425299998984,None,1,decreament,0.6,11,standard,None,100,,,,,,,,m,20,233,fr,r,0,raw,2023-04-04_16h00.03.122,oddball,2022.2.5,60.204913443599324,
5,,,,,0,0,0,1,4,0,4,0,24,0,24,0,,,,,,,,,,,,,,,,,592.4843452000005,593.2178307999984,593.2178307999984,593.8008862000006,0.5991890000004787,593.8176279999989,595.8010379999996,2.5994041000012658,None,1,decreament,0.6,11,standard,None,100,,,,,,,,m,20,233,fr,r,0,raw,2023-04-04_16h00.03.122,oddball,2022.2.5,60.204913443599324,
5,,,,,0,0,0,1,4,0,4,0,25,0,25,0,,,,,,,,,,,,,,,,,595.8177066000007,596.5682083000011,596.5682083000011,597.1679983000013,0.6153333000002021,597.1679983000013,599.1682356000001,2.6156145999993896,None,1,decreament,0.6,11,standard,None,100,,,,,,,,m,20,233,fr,r,0,raw,2023-04-04_16h00.03.122,oddball,2022.2.5,60.204913443599324,
5,,,,,0,0,0,1,4,0,4,0,26,0,26,0,,,,,,,,,,,,,,,,,599.1846438999983,599.8349384000012,599.8349384000012,600.4346443999984,0.6147850000015751,600.4346443999984,602.4349349999993,2.615134899999248,None,1,decreament,0.6,11,standard,None,100,,,,,,,,m,20,233,fr,r,0,raw,2023-04-04_16h00.03.122,oddball,2022.2.5,60.204913443599324,
5,,,,,0,0,0,1,4,0,4,0,27,0,27,0,,,,,,,,,,,,,,,,,602.4513676000006,603.185120199998,603.185120199998,603.6515052999985,0.48185690000173054,603.6682132000005,605.6517480999992,2.4821615000000747,j,1,decreament,0.48,14,oddball,j,80,1.8938302999995358,,,,,,,m,20,233,fr,r,0,raw,2023-04-04_16h00.03.122,oddball,2022.2.5,60.204913443599324,
5,,,,,0,0,0,1,4,0,4,0,28,0,28,0,,,,,,,,,,,,,,,,,605.6681786999998,606.435103400001,606.435103400001,607.0184088000005,0.6157491999983904,607.0352178000012,609.018117900001,2.6152804999983346,None,1,decreament,0.6,11,standard,None,100,,,,,,,,m,20,233,fr,r,0,raw,2023-04-04_16h00.03.122,oddball,2022.2.5,60.204913443599324,
5,,,,,0,0,0,1,4,0,4,0,29,0,29,0,,,,,,,,,,,,,,,,,609.0517220999991,609.7184689000005,609.7184689000005,610.318176499999,0.599121200000809,610.318176499999,612.3184012000002,2.599102700001822,None,1,decreament,0.6,11,standard,None,100,,,,,,,,m,20,233,fr,r,0,raw,2023-04-04_16h00.03.122,oddball,2022.2.5,60.204913443599324,
5,,,,,0,0,0,1,5,0,5,0,0,0,0,0,,,,,,,,,,,,,,,617.852967599998,617.852967599998,619.3187020999994,620.0690785999996,620.0690785999996,620.6691405000001,0.6154473999995389,620.6691405000001,622.6685323000002,2.614682299998094,None,1,increament,0.6,15,standard,None,100,,612.3184012000002,0.0012132000010751653,,,,,m,20,233,fr,r,0,raw,2023-04-04_16h00.03.122,oddball,2022.2.5,60.204913443599324,
5,,,,,0,0,0,1,5,0,5,0,1,0,1,0,,,,,,,,,,,,,,,,,622.6854508999986,623.1857379000012,623.1857379000012,623.7855056999997,0.615057799997885,623.7855056999997,625.7854194999982,2.6149024999976973,None,1,increament,0.6,15,standard,None,100,,,,,,,,m,20,233,fr,r,0,raw,2023-04-04_16h00.03.122,oddball,2022.2.5,60.204913443599324,
5,,,,,0,0,0,1,5,0,5,0,2,0,2,0,,,,,,,,,,,,,,,,,625.8021609000007,626.5189429000002,626.5189429000002,627.102423899998,0.599597200001881,627.1190970999978,629.1024979999984,2.5996971000022313,None,1,increament,0.6,15,standard,None,100,,,,,,,,m,20,233,fr,r,0,raw,2023-04-04_16h00.03.122,oddball,2022.2.5,60.204913443599324,
5,,,,,0,0,0,1,5,0,5,0,3,0,3,0,,,,,,,,,,,,,,,,,629.1191472999981,629.7355485999997,629.7355485999997,630.3189765999978,0.5996496000007028,630.3355567999988,632.3194819,2.600238299997727,None,1,increament,0.6,15,standard,None,100,,,,,,,,m,20,233,fr,r,0,raw,2023-04-04_16h00.03.122,oddball,2022.2.5,60.204913443599324,
5,,,,,0,0,0,1,5,0,5,0,4,0,4,0,,,,,,,,,,,,,,,,,632.3359923000007,632.9861613000012,632.9861613000012,633.5694134999994,0.5993996999968658,633.5862610999993,635.5693812000009,2.5993422999999893,None,1,increament,0.6,15,standard,None,100,,,,,,,,m,20,233,fr,r,0,raw,2023-04-04_16h00.03.122,oddball,2022.2.5,60.204913443599324,
5,,,,,0,0,0,1,5,0,5,0,5,0,5,0,,,,,,,,,,,,,,,,,635.5860048000013,636.2358823000013,636.2358823000013,636.8196039999984,0.6000941000020248,636.8360989000012,638.8192862999986,2.5994986000005156,None,1,increament,0.6,15,standard,None,100,,,,,,,,m,20,233,fr,r,0,raw,2023-04-04_16h00.03.122,oddball,2022.2.5,60.204913443599324,
5,,,,,0,0,0,1,5,0,5,0,6,0,6,0,,,,,,,,,,,,,,,,,638.8359656000011,639.4696505000011,639.4696505000011,640.0693923999988,0.6152799000010418,640.0693923999988,642.0696738999995,2.615636700000323,None,1,increament,0.6,15,standard,None,100,,,,,,,,m,20,233,fr,r,0,raw,2023-04-04_16h00.03.122,oddball,2022.2.5,60.204913443599324,
5,,,,,0,0,0,1,5,0,5,0,7,0,7,0,,,,,,,,,,,,,,,,,642.0862840999998,642.8531462999981,642.8531462999981,643.4529213000005,0.6147898000017449,643.4529213000005,645.4530679,2.6149452999998175,None,1,increament,0.6,15,standard,None,100,,,,,,,,m,20,233,fr,r,0,raw,2023-04-04_16h00.03.122,oddball,2022.2.5,60.204913443599324,
5,,,,,0,0,0,1,5,0,5,0,8,0,8,0,,,,,,,,,,,,,,,,,645.469620599999,646.1362959999988,646.1362959999988,646.7199899999996,0.599691300001723,646.7366047999985,648.7197321000003,2.599363200002699,None,1,increament,0.6,15,standard,None,100,,,,,,,,m,20,233,fr,r,0,raw,2023-04-04_16h00.03.122,oddball,2022.2.5,60.204913443599324,
5,,,,,0,0,0,1,5,0,5,0,9,0,9,0,,,,,,,,,,,,,,,,,648.7365186000006,649.3034567999985,649.3034567999985,649.9030819999989,0.6147608000028413,649.9030819999989,651.9033086,2.615019900000334,None,1,increament,0.6,15,standard,None,100,,,,,,,,m,20,233,fr,r,0,raw,2023-04-04_16h00.03.122,oddball,2022.2.5,60.204913443599324,
5,,,,,0,0,0,1,5,0,5,0,10,0,10,0,,,,,,,,,,,,,,,,,651.919901299998,652.4869783999984,652.4869783999984,653.0866888,0.6151819000006071,653.0866888,655.0870893999981,2.6157941999990726,None,1,increament,0.6,15,standard,None,100,,,,,,,,m,20,233,fr,r,0,raw,2023-04-04_16h00.03.122,oddball,2022.2.5,60.204913443599324,
5,,,,,0,0,0,1,5,0,5,0,11,0,11,0,,,,,,,,,,,,,,,,,655.1034438000006,655.8699503999978,655.8699503999978,656.4538125999989,0.5999077999986184,656.4703509999981,658.4538935,2.6000505999982124,None,1,increament,0.6,15,standard,None,100,,,,,,,,m,20,233,fr,r,0,raw,2023-04-04_16h00.03.122,oddball,2022.2.5,60.204913443599324,
5,,,,,0,0,0,1,5,0,5,0,12,0,12,0,,,,,,,,,,,,,,,,,658.4701678000001,659.2867841999996,659.2867841999996,660.0033592999989,0.7314077999981237,660.0202802000003,662.0036601000011,2.7318588999987696,j,1,increament,0.72,16,oddball,j,120,0.5350948000013886,,,,,,,m,20,233,fr,r,0,raw,2023-04-04_16h00.03.122,oddball,2022.2.5,60.204913443599324,
5,,,,,0,0,0,1,5,0,5,0,13,0,13,0,,,,,,,,,,,,,,,,,662.019985500001,662.7202510000006,662.7202510000006,663.3037869999989,0.6000057999990531,663.3203463000009,665.3036250999994,2.5997944999980973,None,1,increament,0.6,15,standard,None,100,,,,,,,,m,20,233,fr,r,0,raw,2023-04-04_16h00.03.122,oddball,2022.2.5,60.204913443599324,
5,,,,,0,0,0,1,5,0,5,0,14,0,14,0,,,,,,,,,,,,,,,,,665.3202591999998,666.1035591999989,666.1035591999989,666.6869984999994,0.5997062999995251,666.7036492999996,668.6875567999978,2.6003777000005357,None,1,increament,0.6,15,standard,None,100,,,,,,,,m,20,233,fr,r,0,raw,2023-04-04_16h00.03.122,oddball,2022.2.5,60.204913443599324,
5,,,,,0,0,0,1,5,0,5,0,15,0,15,0,,,,,,,,,,,,,,,,,668.7039695000003,669.4038858000004,669.4038858000004,669.9874493000007,0.6000336000033712,670.0042928999992,671.9874841000001,2.6000444000019343,None,1,increament,0.6,15,standard,None,100,,,,,,,,m,20,233,fr,r,0,raw,2023-04-04_16h00.03.122,oddball,2022.2.5,60.204913443599324,
5,,,,,0,0,0,1,5,0,5,0,16,0,16,0,,,,,,,,,,,,,,,,,672.0039849000004,672.6373490999995,672.6373490999995,673.2377718000007,0.6156097999992198,673.2377718000007,675.2374538999993,2.615150599998742,None,1,increament,0.6,15,standard,None,100,,,,,,,,m,20,233,fr,r,0,raw,2023-04-04_16h00.03.122,oddball,2022.2.5,60.204913443599324,
5,,,,,0,0,0,1,5,0,5,0,17,0,17,0,,,,,,,,,,,,,,,,,675.2539287999989,675.8540602999983,675.8540602999983,676.4374206000011,0.599757399999362,676.454122000001,678.4375472000011,2.5999391000004834,None,1,increament,0.6,15,standard,None,100,,,,,,,,m,20,233,fr,r,0,raw,2023-04-04_16h00.03.122,oddball,2022.2.5,60.204913443599324,
5,,,,,0,0,0,1,5,0,5,0,18,0,18,0,,,,,,,,,,,,,,,,,678.4543379000006,679.0210437000005,679.0210437000005,679.854577600001,0.8490928999999596,679.8711485000003,681.8546306000007,2.849148499997682,j,1,increament,0.84,17,oddball,j,140,0.3333715000007942,,,,,,,m,20,233,fr,r,0,raw,2023-04-04_16h00.03.122,oddball,2022.2.5,60.204913443599324,
5,,,,,0,0,0,1,5,0,5,0,19,0,19,0,,,,,,,,,,,,,,,,,681.8711306999994,682.5711231000005,682.5711231000005,683.1546977999988,0.5999430999981996,683.1714350999991,685.1547864000004,2.600053399997705,None,1,increament,0.6,15,standard,None,100,,,,,,,,m,20,233,fr,r,0,raw,2023-04-04_16h00.03.122,oddball,2022.2.5,60.204913443599324,
5,,,,,0,0,0,1,5,0,5,0,20,0,20,0,,,,,,,,,,,,,,,,,685.1711454999986,685.8210818999996,685.8210818999996,686.4045381999986,0.5995774000002712,686.4210946000003,688.404937199999,2.600083099998301,None,1,increament,0.6,15,standard,None,100,,,,,,,,m,20,233,fr,r,0,raw,2023-04-04_16h00.03.122,oddball,2022.2.5,60.204913443599324,
5,,,,,0,0,0,1,5,0,5,0,21,0,21,0,,,,,,,,,,,,,,,,,688.4213441999982,689.1214081999988,689.1214081999988,689.7046843999979,0.5995411999974749,689.7212710000003,691.7045746999993,2.59943740000017,None,1,increament,0.6,15,standard,None,100,,,,,,,,m,20,233,fr,r,0,raw,2023-04-04_16h00.03.122,oddball,2022.2.5,60.204913443599324,
5,,,,,0,0,0,1,5,0,5,0,22,0,22,0,,,,,,,,,,,,,,,,,691.7212853000001,692.4380364999979,692.4380364999979,693.0213950999987,0.5994959999989078,693.0381126000011,695.0213647,2.5994538000013563,None,1,increament,0.6,15,standard,None,100,,,,,,,,m,20,233,fr,r,0,raw,2023-04-04_16h00.03.122,oddball,2022.2.5,60.204913443599324,
5,,,,,0,0,0,1,5,0,5,0,23,0,23,0,,,,,,,,,,,,,,,,,695.0381552999988,695.7714103999988,695.7714103999988,696.3548664999998,0.5995911000027263,696.3713571999997,698.3551294000008,2.599902600002679,None,1,increament,0.6,15,standard,None,100,,,,,,,,m,20,233,fr,r,0,raw,2023-04-04_16h00.03.122,oddball,2022.2.5,60.204913443599324,
5,,,,,0,0,0,1,5,0,5,0,24,0,24,0,,,,,,,,,,,,,,,,,698.3716001999983,699.0883219999978,699.0883219999978,699.671762,0.5996709999999439,699.6885864999986,701.6719580999979,2.599884100000054,None,1,increament,0.6,15,standard,None,100,,,,,,,,m,20,233,fr,r,0,raw,2023-04-04_16h00.03.122,oddball,2022.2.5,60.204913443599324,
5,,,,,0,0,0,1,5,0,5,0,25,0,25,0,,,,,,,,,,,,,,,,,701.6886766000007,702.2216688999997,702.2216688999997,702.8049582000003,0.599362500001007,702.8215857999985,704.8051203000014,2.5994758999986516,None,1,increament,0.6,15,standard,None,100,,,,,,,,m,20,233,fr,r,0,raw,2023-04-04_16h00.03.122,oddball,2022.2.5,60.204913443599324,
5,,,,,0,0,0,1,5,0,5,0,26,0,26,0,,,,,,,,,,,,,,,,,704.8219253000007,705.471872600001,705.471872600001,706.4221324000009,0.9664809999994759,706.4386542999982,708.4223860000002,2.966776799999934,j,1,increament,0.96,18,oddball,j,160,0.3624536999996053,,,,,,,m,20,233,fr,r,0,raw,2023-04-04_16h00.03.122,oddball,2022.2.5,60.204913443599324,
5,,,,,0,0,0,1,5,0,5,0,27,0,27,0,,,,,,,,,,,,,,,,,708.4388885999997,709.2556916999984,709.2556916999984,709.8554715000009,0.614876199997525,709.8554715000009,711.8557415999985,2.615214499997819,None,1,increament,0.6,15,standard,None,100,,,,,,,,m,20,233,fr,r,0,raw,2023-04-04_16h00.03.122,oddball,2022.2.5,60.204913443599324,
5,,,,,0,0,0,1,5,0,5,0,28,0,28,0,,,,,,,,,,,,,,,,,711.8721724999978,712.7053466999987,712.7053466999987,713.3059415000007,0.6150359000021126,713.3059415000007,715.3059775999991,2.615019699998811,None,1,increament,0.6,15,standard,None,100,,,,,,,,m,20,233,fr,r,0,raw,2023-04-04_16h00.03.122,oddball,2022.2.5,60.204913443599324,
5,,,,,0,0,0,1,5,0,5,0,29,0,29,0,,,,,,,,,,,,,,,,,715.3225328999997,715.8722032999995,715.8722032999995,716.4556242999988,0.5995464000006905,716.4722603999999,718.4562371999982,2.6002650000009453,None,1,increament,0.6,15,standard,None,100,,,,,,,,m,20,233,fr,r,0,raw,2023-04-04_16h00.03.122,oddball,2022.2.5,60.204913443599324,
5,,,,,0,0,0,1,6,0,6,0,0,0,0,0,,,,,,,,,,,,,,,723.3567152999985,723.3567152999985,726.4230765999982,726.973323199998,726.973323199998,727.5732483999982,0.6153621999983443,727.5732483999982,729.5728804000009,2.6148171999993792,None,1,decreament,0.6,11,standard,None,100,,718.4727188999987,0.002037999998719897,,,,,m,20,233,fr,r,0,raw,2023-04-04_16h00.03.122,oddball,2022.2.5,60.204913443599324,
5,,,,,0,0,0,1,6,0,6,0,1,0,1,0,,,,,,,,,,,,,,,,,729.5896225999986,730.1895949000009,730.1895949000009,730.7731766999987,0.5993974999983038,730.7896497999991,732.7730062999999,2.5991269999976794,None,1,decreament,0.6,11,standard,None,100,,,,,,,,m,20,233,fr,r,0,raw,2023-04-04_16h00.03.122,oddball,2022.2.5,60.204913443599324,
5,,,,,0,0,0,1,6,0,6,0,2,0,2,0,,,,,,,,,,,,,,,,,732.7896445999995,733.3065708000013,733.3065708000013,733.8895508000005,0.6156821000004129,733.9061934000001,735.8900760999986,2.616371899999649,None,1,decreament,0.6,11,standard,None,100,,,,,,,,m,20,233,fr,r,0,raw,2023-04-04_16h00.03.122,oddball,2022.2.5,60.204913443599324,
5,,,,,0,0,0,1,6,0,6,0,3,0,3,0,,,,,,,,,,,,,,,,,735.9231941999988,736.573116900001,736.573116900001,737.1729523999984,0.6146707000007154,737.1729523999984,739.1731149999996,2.61483059999955,None,1,decreament,0.6,11,standard,None,100,,,,,,,,m,20,233,fr,r,0,raw,2023-04-04_16h00.03.122,oddball,2022.2.5,60.204913443599324,
5,,,,,0,0,0,1,6,0,6,0,4,0,4,0,,,,,,,,,,,,,,,,,739.1898738,739.7897145000006,739.7897145000006,740.3732230000005,0.5996992000000319,740.3897014999984,742.3736813999985,2.6001605999990716,None,1,decreament,0.6,11,standard,None,100,,,,,,,,m,20,233,fr,r,0,raw,2023-04-04_16h00.03.122,oddball,2022.2.5,60.204913443599324,
5,,,,,0,0,0,1,6,0,6,0,5,0,5,0,,,,,,,,,,,,,,,,,742.3900955000008,742.9566012999985,742.9566012999985,743.5402381000004,0.6000061000013375,743.5568554000001,745.5399729000001,2.599675400000706,None,1,decreament,0.6,11,standard,None,100,,,,,,,,m,20,233,fr,r,0,raw,2023-04-04_16h00.03.122,oddball,2022.2.5,60.204913443599324,
5,,,,,0,0,0,1,6,0,6,0,6,0,6,0,,,,,,,,,,,,,,,,,745.5569210000012,746.1071322999978,746.1071322999978,746.7071616999983,0.6151265000007697,746.7071616999983,748.7073101000005,2.6152640000000247,None,1,decreament,0.6,11,standard,None,100,,,,,,,,m,20,233,fr,r,0,raw,2023-04-04_16h00.03.122,oddball,2022.2.5,60.204913443599324,
5,,,,,0,0,0,1,6,0,6,0,7,0,7,0,,,,,,,,,,,,,,,,,748.723723699999,749.5070127999988,749.5070127999988,750.0903323000002,0.599076899998181,750.1070071999984,752.0903006999997,2.599069799998688,None,1,decreament,0.6,11,standard,None,100,,,,,,,,m,20,233,fr,r,0,raw,2023-04-04_16h00.03.122,oddball,2022.2.5,60.204913443599324,
5,,,,,0,0,0,1,6,0,6,0,8,0,8,0,,,,,,,,,,,,,,,,,752.1071365999978,752.8408799000008,752.8408799000008,753.3069621999985,0.48065459999997984,753.3235633999993,755.3078034000009,2.481623600000603,None,0,decreament,0.48,14,oddball,j,80,,,,,,,,m,20,233,fr,r,0,raw,2023-04-04_16h00.03.122,oddball,2022.2.5,60.204913443599324,
5,,,,,0,0,0,1,6,0,6,0,9,0,9,0,,,,,,,,,,,,,,,,,755.3239688000012,756.0261005999982,756.0261005999982,756.6073192999993,0.5994504999980563,756.6406308999995,758.6073059999999,2.5994579999969574,None,1,decreament,0.6,11,standard,None,100,,,,,,,,m,20,233,fr,r,0,raw,2023-04-04_16h00.03.122,oddball,2022.2.5,60.204913443599324,
5,,,,,0,0,0,1,6,0,6,0,10,0,10,0,,,,,,,,,,,,,,,,,758.6239727999982,759.3904042000013,759.3904042000013,759.9738745999985,0.5992549000002327,759.9903691999989,761.9738758000003,2.5992750999976124,None,1,decreament,0.6,11,standard,None,100,,,,,,,,m,20,233,fr,r,0,raw,2023-04-04_16h00.03.122,oddball,2022.2.5,60.204913443599324,
5,,,,,0,0,0,1,6,0,6,0,11,0,11,0,,,,,,,,,,,,,,,,,761.9906729000013,762.5239829000002,762.5239829000002,763.107538899998,0.5998801999994612,763.1244712999996,765.1074510999988,2.599798799998098,None,1,decreament,0.6,11,standard,None,100,,,,,,,,m,20,233,fr,r,0,raw,2023-04-04_16h00.03.122,oddball,2022.2.5,60.204913443599324,
5,,,,,0,0,0,1,6,0,6,0,12,0,12,0,,,,,,,,,,,,,,,,,765.1241845999994,765.8079620999979,765.8079620999979,766.0408970999979,0.24892890000046464,766.0574981000009,768.0410293000004,2.2493759999997565,j,1,decreament,0.24,12,oddball,j,40,0.4446487999994133,,,,,,,m,20,233,fr,r,0,raw,2023-04-04_16h00.03.122,oddball,2022.2.5,60.204913443599324,
5,,,,,0,0,0,1,6,0,6,0,13,0,13,0,,,,,,,,,,,,,,,,,768.0576490000003,768.6244752000002,768.6244752000002,769.2078597999989,0.5996331999995164,769.2242821999989,771.2077704999992,2.5995851999978186,None,1,decreament,0.6,11,standard,None,100,,,,,,,,m,20,233,fr,r,0,raw,2023-04-04_16h00.03.122,oddball,2022.2.5,60.204913443599324,
5,,,,,0,0,0,1,6,0,6,0,14,0,14,0,,,,,,,,,,,,,,,,,771.2243488000004,771.8746650000012,771.8746650000012,772.474698699998,0.6149476999999024,772.474698699998,774.4742123999986,2.6143258000010974,None,1,decreament,0.6,11,standard,None,100,,,,,,,,m,20,233,fr,r,0,raw,2023-04-04_16h00.03.122,oddball,2022.2.5,60.204913443599324,
5,,,,,0,0,0,1,6,0,6,0,15,0,15,0,,,,,,,,,,,,,,,,,774.490931899998,775.374482199999,775.374482199999,775.958061299998,0.5997225000028266,775.9746509999986,777.9580550999981,2.5997016000001167,None,1,decreament,0.6,11,standard,None,100,,,,,,,,m,20,233,fr,r,0,raw,2023-04-04_16h00.03.122,oddball,2022.2.5,60.204913443599324,
5,,,,,0,0,0,1,6,0,6,0,16,0,16,0,,,,,,,,,,,,,,,,,777.9746685000009,778.6244213000009,778.6244213000009,779.2080127999998,0.5996145000026445,779.2246259000003,781.208139299999,2.5997545000027458,j,0,decreament,0.6,11,standard,None,100,0.9620672999990347,,,,,,,m,20,233,fr,r,0,raw,2023-04-04_16h00.03.122,oddball,2022.2.5,60.204913443599324,
5,,,,,0,0,0,1,6,0,6,0,17,0,17,0,,,,,,,,,,,,,,,,,781.2246219999997,782.1418317999978,782.1418317999978,782.7416090999996,0.6153751999991073,782.7416090999996,784.7419649999993,2.6157883999985643,None,1,decreament,0.6,11,standard,None,100,,,,,,,,m,20,233,fr,r,0,raw,2023-04-04_16h00.03.122,oddball,2022.2.5,60.204913443599324,
5,,,,,0,0,0,1,6,0,6,0,18,0,18,0,,,,,,,,,,,,,,,,,784.758409600001,785.3919468000004,785.3919468000004,785.9754427999997,0.5994174000006751,785.9919857000004,787.974986700001,2.598805800000264,None,1,decreament,0.6,11,standard,None,100,,,,,,,,m,20,233,fr,r,0,raw,2023-04-04_16h00.03.122,oddball,2022.2.5,60.204913443599324,
5,,,,,0,0,0,1,6,0,6,0,19,0,19,0,,,,,,,,,,,,,,,,,787.9915186999988,788.6583397999984,788.6583397999984,789.2587225999978,0.5990339000018139,789.2587225999978,791.2585907000012,2.5991599000008136,None,1,decreament,0.6,11,standard,None,100,,,,,,,,m,20,233,fr,r,0,raw,2023-04-04_16h00.03.122,oddball,2022.2.5,60.204913443599324,
5,,,,,0,0,0,1,6,0,6,0,20,0,20,0,,,,,,,,,,,,,,,,,791.2585907000012,791.9086775999986,791.9086775999986,792.508914,0.6155203000016627,792.508914,794.5089375999978,2.6154329999990296,None,1,decreament,0.6,11,standard,None,100,,,,,,,,m,20,233,fr,r,0,raw,2023-04-04_16h00.03.122,oddball,2022.2.5,60.204913443599324,
5,,,,,0,0,0,1,6,0,6,0,21,0,21,0,,,,,,,,,,,,,,,,,794.5252837999997,795.1751795,795.1751795,795.5255307999996,0.3662791999995534,795.5422390000003,797.525321799998,2.3659852999990107,j,1,decreament,0.36,13,oddball,j,60,0.6190844999982801,,,,,,,m,20,233,fr,r,0,raw,2023-04-04_16h00.03.122,oddball,2022.2.5,60.204913443599324,
5,,,,,0,0,0,1,6,0,6,0,22,0,22,0,,,,,,,,,,,,,,,,,797.5420237999988,798.2086809999983,798.2086809999983,798.7920247999991,0.5992285000029369,798.808710700001,800.7924618999987,2.5997383000030823,None,1,decreament,0.6,11,standard,None,100,,,,,,,,m,20,233,fr,r,0,raw,2023-04-04_16h00.03.122,oddball,2022.2.5,60.204913443599324,
5,,,,,0,0,0,1,6,0,6,0,23,0,23,0,,,,,,,,,,,,,,,,,800.8090236000007,801.5091135999992,801.5091135999992,802.0924848000013,0.5992138000001432,802.1091614999987,804.0925066,2.59919059999811,None,1,decreament,0.6,11,standard,None,100,,,,,,,,m,20,233,fr,r,0,raw,2023-04-04_16h00.03.122,oddball,2022.2.5,60.204913443599324,
5,,,,,0,0,0,1,6,0,6,0,24,0,24,0,,,,,,,,,,,,,,,,,804.1090380000005,804.7425101999997,804.7425101999997,805.3426864999983,0.5990104000011343,805.3426864999983,807.3424805000013,2.598659899998893,None,1,decreament,0.6,11,standard,None,100,,,,,,,,m,20,233,fr,r,0,raw,2023-04-04_16h00.03.122,oddball,2022.2.5,60.204913443599324,
5,,,,,0,0,0,1,6,0,6,0,25,0,25,0,,,,,,,,,,,,,,,,,807.3424805000013,808.0426849999985,808.0426849999985,808.6427888999988,0.6153788000010536,808.6427888999988,810.6424912999992,2.614972499999567,None,1,decreament,0.6,11,standard,None,100,,,,,,,,m,20,233,fr,r,0,raw,2023-04-04_16h00.03.122,oddball,2022.2.5,60.204913443599324,
5,,,,,0,0,0,1,6,0,6,0,26,0,26,0,,,,,,,,,,,,,,,,,810.6591132999984,811.2759887000011,811.2759887000011,811.8758734999992,0.6155467000025965,811.8758734999992,813.8760929,2.6158076000028814,None,1,decreament,0.6,11,standard,None,100,,,,,,,,m,20,233,fr,r,0,raw,2023-04-04_16h00.03.122,oddball,2022.2.5,60.204913443599324,
5,,,,,0,0,0,1,6,0,6,0,27,0,27,0,,,,,,,,,,,,,,,,,813.8927091999994,814.5425034999989,814.5425034999989,815.1260199999979,0.5998158999973384,815.1427330999995,817.1261061999994,2.599904799997603,None,1,decreament,0.6,11,standard,None,100,,,,,,,,m,20,233,fr,r,0,raw,2023-04-04_16h00.03.122,oddball,2022.2.5,60.204913443599324,
5,,,,,0,0,0,1,6,0,6,0,28,0,28,0,,,,,,,,,,,,,,,,,817.1426909999991,817.6761877999979,817.6761877999979,818.2595004000013,0.5991791000014928,818.2760260999985,820.2598913999991,2.5996981999996933,None,1,decreament,0.6,11,standard,None,100,,,,,,,,m,20,233,fr,r,0,raw,2023-04-04_16h00.03.122,oddball,2022.2.5,60.204913443599324,
5,,,,,0,0,0,1,6,0,6,0,29,0,29,0,,,,,,,,,,,,,,,,,820.2763804000006,821.076439800001,821.076439800001,821.6762722000003,0.614811199997348,821.6762722000003,823.6765123999994,2.615108899997722,None,1,decreament,0.6,11,standard,None,100,,,,,,,,m,20,233,fr,r,0,raw,2023-04-04_16h00.03.122,oddball,2022.2.5,60.204913443599324,
5,,,,,0,0,0,1,7,0,7,0,0,0,0,0,,,,,,,,,,,,,,,831.2313802000008,831.2313802000008,833.2432036000009,833.9767807999979,833.9767807999979,834.5599474999999,0.6157598999998299,834.5767522000006,836.5600426000001,2.615724399998726,None,1,increament,0.6,15,standard,None,100,,823.6930411000012,0.0018654000014066696,,,,,m,20,233,fr,r,0,raw,2023-04-04_16h00.03.122,oddball,2022.2.5,60.204913443599324,
5,,,,,0,0,0,1,7,0,7,0,1,0,1,0,,,,,,,,,,,,,,,,,836.5934399999987,837.1437275000008,837.1437275000008,837.7267740999978,0.6158136999983981,837.7437951999982,839.7267382000009,2.6153024999985064,None,1,increament,0.6,15,standard,None,100,,,,,,,,m,20,233,fr,r,0,raw,2023-04-04_16h00.03.122,oddball,2022.2.5,60.204913443599324,
5,,,,,0,0,0,1,7,0,7,0,2,0,2,0,,,,,,,,,,,,,,,,,839.7600855000001,840.4102610999998,840.4102610999998,840.9938906000007,0.59984600000098,841.0103223999995,842.9938586999979,2.600068100000499,None,1,increament,0.6,15,standard,None,100,,,,,,,,m,20,233,fr,r,0,raw,2023-04-04_16h00.03.122,oddball,2022.2.5,60.204913443599324,
5,,,,,0,0,0,1,7,0,7,0,3,0,3,0,,,,,,,,,,,,,,,,,843.0104238000004,843.5772439000011,843.5772439000011,844.1771719000008,0.6154193000002124,844.1771719000008,846.1774561000002,2.6157641999998305,None,1,increament,0.6,15,standard,None,100,,,,,,,,m,20,233,fr,r,0,raw,2023-04-04_16h00.03.122,oddball,2022.2.5,60.204913443599324,
5,,,,,0,0,0,1,7,0,7,0,4,0,4,0,,,,,,,,,,,,,,,,,846.1940455999993,846.7941159999991,846.7941159999991,847.3774910000011,0.5991131999981008,847.3941765,849.3772728999993,2.5988070999992487,None,1,increament,0.6,15,standard,None,100,,,,,,,,m,20,233,fr,r,0,raw,2023-04-04_16h00.03.122,oddball,2022.2.5,60.204913443599324,
5,,,,,0,0,0,1,7,0,7,0,5,0,5,0,,,,,,,,,,,,,,,,,849.3940181999988,849.9275005,849.9275005,850.5107970000008,0.5998835000027611,850.5274292999984,852.5110413999992,2.6001641000002564,None,1,increament,0.6,15,standard,None,100,,,,,,,,m,20,233,fr,r,0,raw,2023-04-04_16h00.03.122,oddball,2022.2.5,60.204913443599324,
5,,,,,0,0,0,1,7,0,7,0,6,0,6,0,,,,,,,,,,,,,,,,,852.5274737999989,853.1775423999989,853.1775423999989,853.7776591999991,0.6150463000012678,853.7776591999991,855.778038800001,2.615452499998355,j,0,increament,0.6,15,standard,None,100,0.7077736999999615,,,,,,,m,20,233,fr,r,0,raw,2023-04-04_16h00.03.122,oddball,2022.2.5,60.204913443599324,
5,,,,,0,0,0,1,7,0,7,0,7,0,7,0,,,,,,,,,,,,,,,,,855.7944654000003,856.6113844999982,856.6113844999982,857.2114741999994,0.6147849000008136,857.2114741999994,859.2109423999991,2.6141152000018337,None,1,increament,0.6,15,standard,None,100,,,,,,,,m,20,233,fr,r,0,raw,2023-04-04_16h00.03.122,oddball,2022.2.5,60.204913443599324,
5,,,,,0,0,0,1,7,0,7,0,8,0,8,0,,,,,,,,,,,,,,,,,859.2275828000002,859.7443351999991,859.7443351999991,860.3281670999986,0.6002573999976448,860.3444617000005,862.3277905000014,2.5997581999981776,None,1,increament,0.6,15,standard,None,100,,,,,,,,m,20,233,fr,r,0,raw,2023-04-04_16h00.03.122,oddball,2022.2.5,60.204913443599324,
5,,,,,0,0,0,1,7,0,7,0,9,0,9,0,,,,,,,,,,,,,,,,,862.3444885999979,863.094551799999,863.094551799999,864.0448374999996,0.9654870000013034,864.0612367000012,866.0444024000008,2.9649567999986175,j,1,increament,0.96,18,oddball,j,160,0.310123699997348,,,,,,,m,20,233,fr,r,0,raw,2023-04-04_16h00.03.122,oddball,2022.2.5,60.204913443599324,
5,,,,,0,0,0,1,7,0,7,0,10,0,10,0,,,,,,,,,,,,,,,,,866.0611593000012,866.7614640000011,866.7614640000011,867.3617369000003,0.6156301000009989,867.3617369000003,869.3616883999985,2.6154953000004753,None,1,increament,0.6,15,standard,None,100,,,,,,,,m,20,233,fr,r,0,raw,2023-04-04_16h00.03.122,oddball,2022.2.5,60.204913443599324,
5,,,,,0,0,0,1,7,0,7,0,11,0,11,0,,,,,,,,,,,,,,,,,869.3783605999979,869.9615270000013,869.9615270000013,870.5445579999996,0.5994299000012688,870.5612998999986,872.5447513999989,2.599581800001033,None,1,increament,0.6,15,standard,None,100,,,,,,,,m,20,233,fr,r,0,raw,2023-04-04_16h00.03.122,oddball,2022.2.5,60.204913443599324,
5,,,,,0,0,0,1,7,0,7,0,12,0,12,0,,,,,,,,,,,,,,,,,872.5614068000014,873.3121338000001,873.3121338000001,873.9118988999999,0.6155706000026839,873.9118988999999,875.9116449999983,2.6152144000006956,None,1,increament,0.6,15,standard,None,100,,,,,,,,m,20,233,fr,r,0,raw,2023-04-04_16h00.03.122,oddball,2022.2.5,60.204913443599324,
5,,,,,0,0,0,1,7,0,7,0,13,0,13,0,,,,,,,,,,,,,,,,,875.9282068000011,876.6120830999989,876.6120830999989,877.2121285999983,0.6152860000001965,877.2121285999983,879.2120396999981,2.6151815000011993,None,1,increament,0.6,15,standard,None,100,,,,,,,,m,20,233,fr,r,0,raw,2023-04-04_16h00.03.122,oddball,2022.2.5,60.204913443599324,
5,,,,,0,0,0,1,7,0,7,0,14,0,14,0,,,,,,,,,,,,,,,,,879.2284794999996,879.8286337000009,879.8286337000009,880.4118827000002,0.5991926999995485,880.4284567999985,882.4118680999982,2.5991758999989543,None,1,increament,0.6,15,standard,None,100,,,,,,,,m,20,233,fr,r,0,raw,2023-04-04_16h00.03.122,oddball,2022.2.5,60.204913443599324,
5,,,,,0,0,0,1,7,0,7,0,15,0,15,0,,,,,,,,,,,,,,,,,882.428499399999,883.0954010000005,883.0954010000005,883.6788724999988,0.5991403999978502,883.6954309999983,885.6785580999986,2.598722999999154,None,1,increament,0.6,15,standard,None,100,,,,,,,,m,20,233,fr,r,0,raw,2023-04-04_16h00.03.122,oddball,2022.2.5,60.204913443599324,
5,,,,,0,0,0,1,7,0,7,0,16,0,16,0,,,,,,,,,,,,,,,,,885.6953190000004,886.3121198999997,886.3121198999997,886.8955455999985,0.5994964999990771,886.9123015999994,888.8953745999988,2.5992230999981984,None,1,increament,0.6,15,standard,None,100,,,,,,,,m,20,233,fr,r,0,raw,2023-04-04_16h00.03.122,oddball,2022.2.5,60.204913443599324,
5,,,,,0,0,0,1,7,0,7,0,17,0,17,0,,,,,,,,,,,,,,,,,888.9121323999989,889.5121595,889.5121595,890.0955463000009,0.599650100000872,890.1133318000011,892.0954511,2.6162043000003905,None,1,increament,0.6,15,standard,None,100,,,,,,,,m,20,233,fr,r,0,raw,2023-04-04_16h00.03.122,oddball,2022.2.5,60.204913443599324,
5,,,,,0,0,0,1,7,0,7,0,18,0,18,0,,,,,,,,,,,,,,,,,892.1288540000005,892.9622282,892.9622282,893.5459695000009,0.6000086999993073,893.5624340000013,895.545922299998,2.5999855999980355,None,1,increament,0.6,15,standard,None,100,,,,,,,,m,20,233,fr,r,0,raw,2023-04-04_16h00.03.122,oddball,2022.2.5,60.204913443599324,
5,,,,,0,0,0,1,7,0,7,0,19,0,19,0,,,,,,,,,,,,,,,,,895.5624856000013,896.2459274999983,896.2459274999983,896.8293618000007,0.599270599999727,896.8460568999999,898.8294282000006,2.5993477999982133,None,1,increament,0.6,15,standard,None,100,,,,,,,,m,20,233,fr,r,0,raw,2023-04-04_16h00.03.122,oddball,2022.2.5,60.204913443599324,
5,,,,,0,0,0,1,7,0,7,0,20,0,20,0,,,,,,,,,,,,,,,,,898.8460030000006,899.5460646999982,899.5460646999982,900.3792654000008,0.8484145999973407,900.3959339999983,902.3791565999982,2.848420199999964,j,1,increament,0.84,17,oddball,j,140,1.080307600001106,,,,,,,m,20,233,fr,r,0,raw,2023-04-04_16h00.03.122,oddball,2022.2.5,60.204913443599324,
5,,,,,0,0,0,1,7,0,7,0,21,0,21,0,,,,,,,,,,,,,,,,,902.3959414000001,903.1129266999978,903.1129266999978,903.7128829999983,0.6156133000004047,903.7128829999983,905.7131332000008,2.6158958000014536,None,1,increament,0.6,15,standard,None,100,,,,,,,,m,20,233,fr,r,0,raw,2023-04-04_16h00.03.122,oddball,2022.2.5,60.204913443599324,
5,,,,,0,0,0,1,7,0,7,0,22,0,22,0,,,,,,,,,,,,,,,,,905.7295590999984,906.3462261000004,906.3462261000004,906.9297932999998,0.5993924000031257,906.9464759999992,908.9299876999994,2.5995761000012862,None,1,increament,0.6,15,standard,None,100,,,,,,,,m,20,233,fr,r,0,raw,2023-04-04_16h00.03.122,oddball,2022.2.5,60.204913443599324,
5,,,,,0,0,0,1,7,0,7,0,23,0,23,0,,,,,,,,,,,,,,,,,908.9466482999978,909.6464075999993,909.6464075999993,910.2301893999993,0.5995784000006097,910.2467099000005,912.2299144000008,2.5992350000014994,None,1,increament,0.6,15,standard,None,100,,,,,,,,m,20,233,fr,r,0,raw,2023-04-04_16h00.03.122,oddball,2022.2.5,60.204913443599324,
5,,,,,0,0,0,1,7,0,7,0,24,0,24,0,,,,,,,,,,,,,,,,,912.2463950000001,912.8799697000013,912.8799697000013,913.4799890999984,0.6153539000006276,913.4799890999984,915.4796660000011,2.614924500001507,None,1,increament,0.6,15,standard,None,100,,,,,,,,m,20,233,fr,r,0,raw,2023-04-04_16h00.03.122,oddball,2022.2.5,60.204913443599324,
5,,,,,0,0,0,1,7,0,7,0,25,0,25,0,,,,,,,,,,,,,,,,,915.4963262000001,916.2133264999993,916.2133264999993,916.9299718999991,0.7325993999984348,916.9466248000008,918.9301762999985,2.732821099998546,j,1,increament,0.72,16,oddball,j,120,0.5733733000015491,,,,,,,m,20,233,fr,r,0,raw,2023-04-04_16h00.03.122,oddball,2022.2.5,60.204913443599324,
5,,,,,0,0,0,1,7,0,7,0,26,0,26,0,,,,,,,,,,,,,,,,,918.9467471000007,919.6136309999983,919.6136309999983,920.2133524000001,0.6151524000015343,920.2133524000001,922.2131710000012,2.614945600002102,None,1,increament,0.6,15,standard,None,100,,,,,,,,m,20,233,fr,r,0,raw,2023-04-04_16h00.03.122,oddball,2022.2.5,60.204913443599324,
5,,,,,0,0,0,1,7,0,7,0,27,0,27,0,,,,,,,,,,,,,,,,,922.2298017000012,922.9967941999985,922.9967941999985,923.596833499998,0.6145433999990928,923.596833499998,925.5973164000006,2.615091499999835,None,1,increament,0.6,15,standard,None,100,,,,,,,,m,20,233,fr,r,0,raw,2023-04-04_16h00.03.122,oddball,2022.2.5,60.204913443599324,
5,,,,,0,0,0,1,7,0,7,0,28,0,28,0,,,,,,,,,,,,,,,,,925.6136209999986,926.1303528999979,926.1303528999979,926.7305888999999,0.6154127000008884,926.7305888999999,928.7302749999999,2.6149799000013445,j,0,increament,0.6,15,standard,None,100,0.7578811999992467,,,,,,,m,20,233,fr,r,0,raw,2023-04-04_16h00.03.122,oddball,2022.2.5,60.204913443599324,
5,,,,,0,0,0,1,7,0,7,0,29,0,29,0,,,,,,,,,,,,,,,,,928.7469757999988,929.530455099999,929.530455099999,930.1138502999984,0.5991465000006428,930.1305830000001,932.1140508000008,2.599380600000586,None,1,increament,0.6,15,standard,None,100,,,,,,,,m,20,233,fr,r,0,raw,2023-04-04_16h00.03.122,oddball,2022.2.5,60.204913443599324,
5,,,,,0,0,0,1,8,0,8,0,0,0,0,0,,,,,,,,,,,,,,,936.0666149999979,936.0666149999979,947.2976870000002,947.8809524999979,947.8809524999979,948.4643487000012,0.5994573000025412,948.4809106999983,950.4644951999999,2.599626700000954,None,1,decreament,0.6,11,standard,None,100,,932.130492899998,0.0020678000000771135,,,,,m,20,233,fr,r,0,raw,2023-04-04_16h00.03.122,oddball,2022.2.5,60.204913443599324,
5,,,,,0,0,0,1,8,0,8,0,1,0,1,0,,,,,,,,,,,,,,,,,950.4810964999979,951.0982430999993,951.0982430999993,951.6981892999993,0.6155255000012403,951.6981892999993,953.6979458000005,2.6152001000009477,None,1,decreament,0.6,11,standard,None,100,,,,,,,,m,20,233,fr,r,0,raw,2023-04-04_16h00.03.122,oddball,2022.2.5,60.204913443599324,
5,,,,,0,0,0,1,8,0,8,0,2,0,2,0,,,,,,,,,,,,,,,,,953.7144743000008,954.2980340999984,954.2980340999984,954.8814173999981,0.5991415999997116,954.8978660999983,956.881500999998,2.59925579999981,None,1,decreament,0.6,11,standard,None,100,,,,,,,,m,20,233,fr,r,0,raw,2023-04-04_16h00.03.122,oddball,2022.2.5,60.204913443599324,
5,,,,,0,0,0,1,8,0,8,0,3,0,3,0,,,,,,,,,,,,,,,,,956.8980399000011,957.5980312999982,957.5980312999982,958.1813061000012,0.599556199998915,958.1980334999989,960.1816727999994,2.5999890999992203,None,1,decreament,0.6,11,standard,None,100,,,,,,,,m,20,233,fr,r,0,raw,2023-04-04_16h00.03.122,oddball,2022.2.5,60.204913443599324,
5,,,,,0,0,0,1,8,0,8,0,4,0,4,0,,,,,,,,,,,,,,,,,960.1982264999988,960.8984847000011,960.8984847000011,961.4817515999985,0.6156897000000754,961.4985969999998,963.481593399998,2.61519970000154,None,1,decreament,0.6,11,standard,None,100,,,,,,,,m,20,233,fr,r,0,raw,2023-04-04_16h00.03.122,oddball,2022.2.5,60.204913443599324,
5,,,,,0,0,0,1,8,0,8,0,5,0,5,0,,,,,,,,,,,,,,,,,963.5148547000008,964.0650732000013,964.0650732000013,964.6487921999997,0.5994542000007641,964.6653852,966.6488746999985,2.59952820000035,None,1,decreament,0.6,11,standard,None,100,,,,,,,,m,20,233,fr,r,0,raw,2023-04-04_16h00.03.122,oddball,2022.2.5,60.204913443599324,
5,,,,,0,0,0,1,8,0,8,0,6,0,6,0,,,,,,,,,,,,,,,,,966.6652087999992,967.198626899999,967.198626899999,967.7817541999993,0.5993363999987196,967.7984224999982,969.7816550000007,2.599240899999131,None,1,decreament,0.6,11,standard,None,100,,,,,,,,m,20,233,fr,r,0,raw,2023-04-04_16h00.03.122,oddball,2022.2.5,60.204913443599324,
5,,,,,0,0,0,1,8,0,8,0,7,0,7,0,,,,,,,,,,,,,,,,,969.7982642000006,970.432001799998,970.432001799998,971.0153344999981,0.5991869999998016,971.0318395000013,973.0160377999982,2.600020300000324,None,1,decreament,0.6,11,standard,None,100,,,,,,,,m,20,233,fr,r,0,raw,2023-04-04_16h00.03.122,oddball,2022.2.5,60.204913443599324,
5,,,,,0,0,0,1,8,0,8,0,8,0,8,0,,,,,,,,,,,,,,,,,973.0322900999981,973.5654430000013,973.5654430000013,974.1493930999986,0.5998572999997123,974.1658483999981,976.1491360999989,2.599572099999932,j,0,decreament,0.6,11,standard,None,100,1.078557600001659,,,,,,,m,20,233,fr,r,0,raw,2023-04-04_16h00.03.122,oddball,2022.2.5,60.204913443599324,
5,,,,,0,0,0,1,8,0,8,0,9,0,9,0,,,,,,,,,,,,,,,,,976.1655628999997,976.7824027000006,976.7824027000006,977.3825581000001,0.614874000002601,977.3825581000001,979.382118399999,2.614289600001939,None,1,decreament,0.6,11,standard,None,100,,,,,,,,m,20,233,fr,r,0,raw,2023-04-04_16h00.03.122,oddball,2022.2.5,60.204913443599324,
5,,,,,0,0,0,1,8,0,8,0,10,0,10,0,,,,,,,,,,,,,,,,,979.3987963999989,979.9487172999998,979.9487172999998,980.5324052999986,0.5995192999980645,980.5491913999995,982.5326608999985,2.5998617000004742,j,0,decreament,0.6,11,standard,None,100,0.35429069999736384,,,,,,,m,20,233,fr,r,0,raw,2023-04-04_16h00.03.122,oddball,2022.2.5,60.204913443599324,
5,,,,,0,0,0,1,8,0,8,0,11,0,11,0,,,,,,,,,,,,,,,,,982.5491645999991,983.1658174999993,983.1658174999993,983.7492895999985,0.5994406999998318,983.7660210999984,985.749118400001,2.599244999997609,None,1,decreament,0.6,11,standard,None,100,,,,,,,,m,20,233,fr,r,0,raw,2023-04-04_16h00.03.122,oddball,2022.2.5,60.204913443599324,
5,,,,,0,0,0,1,8,0,8,0,12,0,12,0,,,,,,,,,,,,,,,,,985.7657842999997,986.5164615999984,986.5164615999984,987.1162080999984,0.6150001999994856,987.1162080999984,989.115976799998,2.6146601000000373,None,1,decreament,0.6,11,standard,None,100,,,,,,,,m,20,233,fr,r,0,raw,2023-04-04_16h00.03.122,oddball,2022.2.5,60.204913443599324,
5,,,,,0,0,0,1,8,0,8,0,13,0,13,0,,,,,,,,,,,,,,,,,989.1324910999992,989.6992564000011,989.6992564000011,990.1661139000007,0.48320069999681436,990.1827317000007,992.1661731000004,2.483227299999271,None,0,decreament,0.48,14,oddball,j,80,,,,,,,,m,20,233,fr,r,0,raw,2023-04-04_16h00.03.122,oddball,2022.2.5,60.204913443599324,
5,,,,,0,0,0,1,8,0,8,0,14,0,14,0,,,,,,,,,,,,,,,,,992.1827711999995,992.8328563999985,992.8328563999985,993.4161996999992,0.6154642999972566,993.4328562999999,995.4162842999995,2.6155342999991262,None,1,decreament,0.6,11,standard,None,100,,,,,,,,m,20,233,fr,r,0,raw,2023-04-04_16h00.03.122,oddball,2022.2.5,60.204913443599324,
5,,,,,0,0,0,1,8,0,8,0,15,0,15,0,,,,,,,,,,,,,,,,,995.4494695999983,995.9829354999983,995.9829354999983,996.5665586000014,0.5993644000009226,996.5830646999984,998.5664009999982,2.5991659999999683,j,0,decreament,0.6,11,standard,None,100,0.796639199998026,,,,,,,m,20,233,fr,r,0,raw,2023-04-04_16h00.03.122,oddball,2022.2.5,60.204913443599324,
5,,,,,0,0,0,1,8,0,8,0,16,0,16,0,,,,,,,,,,,,,,,,,998.5829877999986,999.4663461,999.4663461,1000.0664563999981,0.6156957999992301,1000.0664563999981,1002.0666446999985,2.6158648999989964,None,1,decreament,0.6,11,standard,None,100,,,,,,,,m,20,233,fr,r,0,raw,2023-04-04_16h00.03.122,oddball,2022.2.5,60.204913443599324,
5,,,,,0,0,0,1,8,0,8,0,17,0,17,0,,,,,,,,,,,,,,,,,1002.0828500000007,1002.6332023000014,1002.6332023000014,1003.2333894999992,0.6154643000008946,1003.2333894999992,1005.2335575999987,2.615641100001085,None,1,decreament,0.6,11,standard,None,100,,,,,,,,m,20,233,fr,r,0,raw,2023-04-04_16h00.03.122,oddball,2022.2.5,60.204913443599324,
5,,,,,0,0,0,1,8,0,8,0,18,0,18,0,,,,,,,,,,,,,,,,,1005.2500371000006,1005.9003370999981,1005.9003370999981,1006.5003895999998,0.6156464999985474,1006.5003895999998,1008.5003458999981,2.6155429999998887,None,1,decreament,0.6,11,standard,None,100,,,,,,,,m,20,233,fr,r,0,raw,2023-04-04_16h00.03.122,oddball,2022.2.5,60.204913443599324,
5,,,,,0,0,0,1,8,0,8,0,19,0,19,0,,,,,,,,,,,,,,,,,1008.5167543999978,1009.2002062999982,1009.2002062999982,1009.8001729000007,0.6147447999974247,1009.8001729000007,1011.8004519000006,2.614959499998804,None,1,decreament,0.6,11,standard,None,100,,,,,,,,m,20,233,fr,r,0,raw,2023-04-04_16h00.03.122,oddball,2022.2.5,60.204913443599324,
5,,,,,0,0,0,1,8,0,8,0,20,0,20,0,,,,,,,,,,,,,,,,,1011.8171615999981,1012.4174289999992,1012.4174289999992,1012.7670928999996,0.3649714999992284,1012.7836312999989,1014.7671594000003,2.3650508999999147,j,1,decreament,0.36,13,oddball,j,60,0.6059041999978945,,,,,,,m,20,233,fr,r,0,raw,2023-04-04_16h00.03.122,oddball,2022.2.5,60.204913443599324,
5,,,,,0,0,0,1,8,0,8,0,21,0,21,0,,,,,,,,,,,,,,,,,1014.7837276000009,1015.4336343000014,1015.4336343000014,1016.0334844000008,0.6145211000002746,1016.0334844000008,1018.0335208999986,2.6145418000014615,None,1,decreament,0.6,11,standard,None,100,,,,,,,,m,20,233,fr,r,0,raw,2023-04-04_16h00.03.122,oddball,2022.2.5,60.204913443599324,
5,,,,,0,0,0,1,8,0,8,0,22,0,22,0,,,,,,,,,,,,,,,,,1018.0502261999991,1018.7837077999993,1018.7837077999993,1019.3670536000009,0.5993428000001586,1019.3835076999985,1021.3671706000005,2.5994989000028,None,1,decreament,0.6,11,standard,None,100,,,,,,,,m,20,233,fr,r,0,raw,2023-04-04_16h00.03.122,oddball,2022.2.5,60.204913443599324,
5,,,,,0,0,0,1,8,0,8,0,23,0,23,0,,,,,,,,,,,,,,,,,1021.3836715999987,1022.0671887999979,1022.0671887999979,1022.6504894000009,0.5995973999997659,1022.6673471999984,1024.6510021000013,2.6002067000008537,None,1,decreament,0.6,11,standard,None,100,,,,,,,,m,20,233,fr,r,0,raw,2023-04-04_16h00.03.122,oddball,2022.2.5,60.204913443599324,
5,,,,,0,0,0,1,8,0,8,0,24,0,24,0,,,,,,,,,,,,,,,,,1024.6672789999993,1025.3006321999983,1025.3006321999983,1025.8840857999985,0.5997036000007938,1025.9007035000013,1027.8841454000012,2.5997449999995297,None,1,decreament,0.6,11,standard,None,100,,,,,,,,m,20,233,fr,r,0,raw,2023-04-04_16h00.03.122,oddball,2022.2.5,60.204913443599324,
5,,,,,0,0,0,1,8,0,8,0,25,0,25,0,,,,,,,,,,,,,,,,,1027.9007597,1028.5675561000007,1028.5675561000007,1029.1676760999999,0.6154629000011482,1029.1676760999999,1031.1674608999983,2.615149900000688,None,1,decreament,0.6,11,standard,None,100,,,,,,,,m,20,233,fr,r,0,raw,2023-04-04_16h00.03.122,oddball,2022.2.5,60.204913443599324,
5,,,,,0,0,0,1,8,0,8,0,26,0,26,0,,,,,,,,,,,,,,,,,1031.1840810000012,1031.8007903999987,1031.8007903999987,1032.3844186000006,0.5997018999987631,1032.4009295999986,1034.3846304999988,2.599927499999467,None,1,decreament,0.6,11,standard,None,100,,,,,,,,m,20,233,fr,r,0,raw,2023-04-04_16h00.03.122,oddball,2022.2.5,60.204913443599324,
5,,,,,0,0,0,1,8,0,8,0,27,0,27,0,,,,,,,,,,,,,,,,,1034.4011058999986,1035.0344238999987,1035.0344238999987,1035.2675087999978,0.24860769999941112,1035.2842180999996,1037.2681584000002,2.2493667999988247,j,1,decreament,0.24,12,oddball,j,40,0.6028091999978642,,,,,,,m,20,233,fr,r,0,raw,2023-04-04_16h00.03.122,oddball,2022.2.5,60.204913443599324,
5,,,,,0,0,0,1,8,0,8,0,28,0,28,0,,,,,,,,,,,,,,,,,1037.2844792999986,1038.0180706999981,1038.0180706999981,1038.6013656000014,0.5998677999996289,1038.6179735999995,1040.6012361000012,2.599683799999184,None,1,decreament,0.6,11,standard,None,100,,,,,,,,m,20,233,fr,r,0,raw,2023-04-04_16h00.03.122,oddball,2022.2.5,60.204913443599324,
5,,,,,0,0,0,1,8,0,8,0,29,0,29,0,,,,,,,,,,,,,,,,,1040.6179616999998,1041.1514703999983,1041.1514703999983,1041.7516579999992,0.6155235999976867,1041.7516579999992,1043.7513417999999,2.6150901000000886,None,1,decreament,0.6,11,standard,None,100,,,,,,,,m,20,233,fr,r,0,raw,2023-04-04_16h00.03.122,oddball,2022.2.5,60.204913443599324,
5,,,,,0,0,0,1,9,0,9,0,0,0,0,0,,,,,,,,,,,,,,,1056.7351900999984,1056.7351900999984,1057.6185357000013,1058.2522898999978,1058.2522898999978,1058.8519030999978,0.6151608000000124,1058.8519030999978,1060.8519027999992,2.6151018000018666,None,1,increament,0.6,15,standard,None,100,,1043.768162399998,0.0012047999989590608,,,,,m,20,233,fr,r,0,raw,2023-04-04_16h00.03.122,oddball,2022.2.5,60.204913443599324,
5,,,,,0,0,0,1,9,0,9,0,1,0,1,0,,,,,,,,,,,,,,,,,1060.8684933999994,1061.4521129000004,1061.4521129000004,1062.0357190999985,0.5996994000015547,1062.0523965999982,1064.0353736999987,2.599239499999385,None,1,increament,0.6,15,standard,None,100,,,,,,,,m,20,233,fr,r,0,raw,2023-04-04_16h00.03.122,oddball,2022.2.5,60.204913443599324,
5,,,,,0,0,0,1,9,0,9,0,2,0,2,0,,,,,,,,,,,,,,,,,1064.0521559999997,1064.9519130999997,1064.9519130999997,1065.5353563000008,0.5995958999992581,1065.5520906000002,1067.5356701,2.5999722000015026,None,1,increament,0.6,15,standard,None,100,,,,,,,,m,20,233,fr,r,0,raw,2023-04-04_16h00.03.122,oddball,2022.2.5,60.204913443599324,
5,,,,,0,0,0,1,9,0,9,0,3,0,3,0,,,,,,,,,,,,,,,,,1067.5522139000004,1068.3689144,1068.3689144,1068.9522008000004,0.5993828999999096,1068.9688821,1070.9522888999982,2.599494699999923,None,1,increament,0.6,15,standard,None,100,,,,,,,,m,20,233,fr,r,0,raw,2023-04-04_16h00.03.122,oddball,2022.2.5,60.204913443599324,
5,,,,,0,0,0,1,9,0,9,0,4,0,4,0,,,,,,,,,,,,,,,,,1070.968960100001,1071.586083799999,1071.586083799999,1072.1860926999998,0.6155394000015804,1072.1860926999998,1074.1859284000002,2.615405100001226,None,1,increament,0.6,15,standard,None,100,,,,,,,,m,20,233,fr,r,0,raw,2023-04-04_16h00.03.122,oddball,2022.2.5,60.204913443599324,
5,,,,,0,0,0,1,9,0,9,0,5,0,5,0,,,,,,,,,,,,,,,,,1074.202414999998,1074.8195025000005,1074.8195025000005,1075.4191322999995,0.6154642000001331,1075.4191322999995,1077.4193456000012,2.6156899000015983,None,1,increament,0.6,15,standard,None,100,,,,,,,,m,20,233,fr,r,0,raw,2023-04-04_16h00.03.122,oddball,2022.2.5,60.204913443599324,
5,,,,,0,0,0,1,9,0,9,0,6,0,6,0,,,,,,,,,,,,,,,,,1077.435978200001,1077.9695736999984,1077.9695736999984,1078.5696703000012,0.6156452000032004,1078.5696703000012,1080.5699373999978,2.6158753000017896,None,1,increament,0.6,15,standard,None,100,,,,,,,,m,20,233,fr,r,0,raw,2023-04-04_16h00.03.122,oddball,2022.2.5,60.204913443599324,
5,,,,,0,0,0,1,9,0,9,0,7,0,7,0,,,,,,,,,,,,,,,,,1080.5862436999978,1081.1698995999996,1081.1698995999996,1081.769962299999,0.6151441000001796,1081.769962299999,1083.7693681,2.6143831000008504,None,1,increament,0.6,15,standard,None,100,,,,,,,,m,20,233,fr,r,0,raw,2023-04-04_16h00.03.122,oddball,2022.2.5,60.204913443599324,
5,,,,,0,0,0,1,9,0,9,0,8,0,8,0,,,,,,,,,,,,,,,,,1083.7860693999992,1084.486618500001,1084.486618500001,1085.2028642999994,0.7312899000025936,1085.219501900001,1087.2028502000012,2.731325200002175,None,0,increament,0.72,16,oddball,j,120,,,,,,,,m,20,233,fr,r,0,raw,2023-04-04_16h00.03.122,oddball,2022.2.5,60.204913443599324,
5,,,,,0,0,0,1,9,0,9,0,9,0,9,0,,,,,,,,,,,,,,,,,1087.219577400001,1087.986216299998,1087.986216299998,1088.5695915999986,0.5996083000027284,1088.5863531000014,1090.5695483,2.5994630999994115,None,1,increament,0.6,15,standard,None,100,,,,,,,,m,20,233,fr,r,0,raw,2023-04-04_16h00.03.122,oddball,2022.2.5,60.204913443599324,
5,,,,,0,0,0,1,9,0,9,0,10,0,10,0,,,,,,,,,,,,,,,,,1090.5862972000014,1091.2031260999993,1091.2031260999993,1091.786369200001,0.5994854000018677,1091.8030249999993,1093.7869001999989,2.6001379000008455,None,1,increament,0.6,15,standard,None,100,,,,,,,,m,20,233,fr,r,0,raw,2023-04-04_16h00.03.122,oddball,2022.2.5,60.204913443599324,
5,,,,,0,0,0,1,9,0,9,0,11,0,11,0,,,,,,,,,,,,,,,,,1093.8033828999996,1094.436717399998,1094.436717399998,1095.0367981,0.6155829999988782,1095.0367981,1097.0366449999983,2.6153411000013875,None,1,increament,0.6,15,standard,None,100,,,,,,,,m,20,233,fr,r,0,raw,2023-04-04_16h00.03.122,oddball,2022.2.5,60.204913443599324,
5,,,,,0,0,0,1,9,0,9,0,12,0,12,0,,,,,,,,,,,,,,,,,1097.0532464999978,1097.6867091000004,1097.6867091000004,1098.2701018999996,0.5992172999976901,1098.286762499998,1100.2704408000009,2.5996133999979065,None,1,increament,0.6,15,standard,None,100,,,,,,,,m,20,233,fr,r,0,raw,2023-04-04_16h00.03.122,oddball,2022.2.5,60.204913443599324,
5,,,,,0,0,0,1,9,0,9,0,13,0,13,0,,,,,,,,,,,,,,,,,1100.2868842000007,1101.0703273999989,1101.0703273999989,1101.6703813000004,0.6153720999973302,1101.6703813000004,1103.6708850000014,2.6159415999973135,None,1,increament,0.6,15,standard,None,100,,,,,,,,m,20,233,fr,r,0,raw,2023-04-04_16h00.03.122,oddball,2022.2.5,60.204913443599324,
5,,,,,0,0,0,1,9,0,9,0,14,0,14,0,,,,,,,,,,,,,,,,,1103.6871134999983,1104.5873362000002,1104.5873362000002,1105.1871273999986,0.6145566000013787,1105.1871273999986,1107.186843999998,2.6141901000009966,None,1,increament,0.6,15,standard,None,100,,,,,,,,m,20,233,fr,r,0,raw,2023-04-04_16h00.03.122,oddball,2022.2.5,60.204913443599324,
5,,,,,0,0,0,1,9,0,9,0,15,0,15,0,,,,,,,,,,,,,,,,,1107.2034909999984,1107.853773500001,1107.853773500001,1108.4543166999993,0.6154655999998795,1108.4543166999993,1110.4536294000009,2.6146410000001197,None,1,increament,0.6,15,standard,None,100,,,,,,,,m,20,233,fr,r,0,raw,2023-04-04_16h00.03.122,oddball,2022.2.5,60.204913443599324,
5,,,,,0,0,0,1,9,0,9,0,16,0,16,0,,,,,,,,,,,,,,,,,1110.4703255000004,1111.1204242000003,1111.1204242000003,1111.7038005000013,0.5994557000012719,1111.7203943000004,1113.7039286999989,2.5995868999998493,None,1,increament,0.6,15,standard,None,100,,,,,,,,m,20,233,fr,r,0,raw,2023-04-04_16h00.03.122,oddball,2022.2.5,60.204913443599324,
5,,,,,0,0,0,1,9,0,9,0,17,0,17,0,,,,,,,,,,,,,,,,,1113.7204638999992,1114.3039359999984,1114.3039359999984,1114.9043622000008,0.6154740000019956,1114.9043622000008,1116.9039423999984,2.6149690999991435,None,1,increament,0.6,15,standard,None,100,,,,,,,,m,20,233,fr,r,0,raw,2023-04-04_16h00.03.122,oddball,2022.2.5,60.204913443599324,
5,,,,,0,0,0,1,9,0,9,0,18,0,18,0,,,,,,,,,,,,,,,,,1116.9206083000008,1117.554027199998,1117.554027199998,1118.1373240999983,0.599507500002801,1118.1540546999986,1120.1374186999983,2.599596300002304,None,1,increament,0.6,15,standard,None,100,,,,,,,,m,20,233,fr,r,0,raw,2023-04-04_16h00.03.122,oddball,2022.2.5,60.204913443599324,
5,,,,,0,0,0,1,9,0,9,0,19,0,19,0,,,,,,,,,,,,,,,,,1120.1540737999985,1120.9890211000002,1120.9890211000002,1121.5876482000003,0.6149714999992284,1121.6045422999978,1123.587590699999,2.614887199997611,None,1,increament,0.6,15,standard,None,100,,,,,,,,m,20,233,fr,r,0,raw,2023-04-04_16h00.03.122,oddball,2022.2.5,60.204913443599324,
5,,,,,0,0,0,1,9,0,9,0,20,0,20,0,,,,,,,,,,,,,,,,,1123.6043386000001,1124.2544283000007,1124.2544283000007,1124.8381496999991,0.6002787999968859,1124.8546662999997,1126.8377072999992,2.599698299996817,j,0,increament,0.6,15,standard,None,100,0.8757106000011845,,,,,,,m,20,233,fr,r,0,raw,2023-04-04_16h00.03.122,oddball,2022.2.5,60.204913443599324,
5,,,,,0,0,0,1,9,0,9,0,21,0,21,0,,,,,,,,,,,,,,,,,1126.854420499998,1127.5876475999994,1127.5876475999994,1128.1711444999983,0.5996269999996002,1128.1877246999993,1130.1712798999997,2.5997865999997885,None,1,increament,0.6,15,standard,None,100,,,,,,,,m,20,233,fr,r,0,raw,2023-04-04_16h00.03.122,oddball,2022.2.5,60.204913443599324,
5,,,,,0,0,0,1,9,0,9,0,22,0,22,0,,,,,,,,,,,,,,,,,1130.1878868000003,1130.9712253999987,1130.9712253999987,1131.8046099000003,0.8495188999986567,1131.8212484999985,1133.8049917000008,2.8499800999998115,j,1,increament,0.84,17,oddball,j,140,0.42980399999942165,,,,,,,m,20,233,fr,r,0,raw,2023-04-04_16h00.03.122,oddball,2022.2.5,60.204913443599324,
5,,,,,0,0,0,1,9,0,9,0,23,0,23,0,,,,,,,,,,,,,,,,,1133.8215338999998,1134.5212523999999,1134.5212523999999,1135.1047062999987,0.5996894999989308,1135.1213985000013,1137.1047763000006,2.5997502999998687,None,1,increament,0.6,15,standard,None,100,,,,,,,,m,20,233,fr,r,0,raw,2023-04-04_16h00.03.122,oddball,2022.2.5,60.204913443599324,
5,,,,,0,0,0,1,9,0,9,0,24,0,24,0,,,,,,,,,,,,,,,,,1137.121289599998,1137.6882161999984,1137.6882161999984,1138.2883165000003,0.5992168999982823,1138.2883165000003,1140.2884668999995,2.599222799999552,None,1,increament,0.6,15,standard,None,100,,,,,,,,m,20,233,fr,r,0,raw,2023-04-04_16h00.03.122,oddball,2022.2.5,60.204913443599324,
5,,,,,0,0,0,1,9,0,9,0,25,0,25,0,,,,,,,,,,,,,,,,,1140.2884668999995,1140.8551943000002,1140.8551943000002,1141.4552612999996,0.5990135000029113,1141.4552612999996,1143.4552521999994,2.598862300001201,None,1,increament,0.6,15,standard,None,100,,,,,,,,m,20,233,fr,r,0,raw,2023-04-04_16h00.03.122,oddball,2022.2.5,60.204913443599324,
5,,,,,0,0,0,1,9,0,9,0,26,0,26,0,,,,,,,,,,,,,,,,,1143.4552521999994,1144.2387080999997,1144.2387080999997,1144.8387215999992,0.6154544000019087,1144.8387215999992,1146.8386179999998,2.615304800001468,None,1,increament,0.6,15,standard,None,100,,,,,,,,m,20,233,fr,r,0,raw,2023-04-04_16h00.03.122,oddball,2022.2.5,60.204913443599324,
5,,,,,0,0,0,1,9,0,9,0,27,0,27,0,,,,,,,,,,,,,,,,,1146.8554098000004,1147.4058535999993,1147.4058535999993,1148.0056953000003,0.5990990999998758,1148.0056953000003,1150.005271600001,2.5982980000007956,None,1,increament,0.6,15,standard,None,100,,,,,,,,m,20,233,fr,r,0,raw,2023-04-04_16h00.03.122,oddball,2022.2.5,60.204913443599324,
5,,,,,0,0,0,1,9,0,9,0,28,0,28,0,,,,,,,,,,,,,,,,,1150.005271600001,1150.855263899999,1150.855263899999,1151.438739700001,0.5995803000005253,1151.4553493000003,1153.438679500001,2.599509299998317,None,1,increament,0.6,15,standard,None,100,,,,,,,,m,20,233,fr,r,0,raw,2023-04-04_16h00.03.122,oddball,2022.2.5,60.204913443599324,
5,,,,,0,0,0,1,9,0,9,0,29,0,29,0,,,,,,,,,,,,,,,,,1153.4568571,1154.0887644000013,1154.0887644000013,1155.0388414999998,0.966314200002671,1155.0555393999985,1157.0388519999997,2.9663240000008955,j,1,increament,0.96,18,oddball,j,160,0.3594244999985676,,,,,,,m,20,233,fr,r,0,raw,2023-04-04_16h00.03.122,oddball,2022.2.5,60.204913443599324,
