grating_freq,blocks_prac.thisRepN,blocks_prac.thisTrialN,blocks_prac.thisN,blocks_prac.thisIndex,blocks.thisRepN,blocks.thisTrialN,blocks.thisN,blocks.thisIndex,repeat_freq.thisRepN,repeat_freq.thisTrialN,repeat_freq.thisN,repeat_freq.thisIndex,trials.thisRepN,trials.thisTrialN,trials.thisN,trials.thisIndex,break_loop.thisRepN,break_loop.thisTrialN,break_loop.thisN,break_loop.thisIndex,rest_loop.thisRepN,rest_loop.thisTrialN,rest_loop.thisN,rest_loop.thisIndex,instruct_prac_text.started,instruct_prac_resp.started,b_instruct_text_2_.started,b_instruct_resp_2_.started,prac_done_text.started,prac_done_resp.started,instruct_text.started,instruct_resp.started,fixation.started,fixation.stopped,grating.started,blank.started,grating.stopped,resp.started,blank.stopped,resp.stopped,resp.keys,resp.corr,direction,duration,trigger,stim_type,corr_ans,scaling,resp.rt,rest_text.started,rest_resp.started,text_2.started,text_2.stopped,thx_txt.started,gender,age,participant,language,main_hand,nBlock_prac,file_suffix,date,expName,psychopyVersion,frameRate,
10,,,,,0,0,0,2,0,0,0,0,0,0,0,0,,,,,,,,,23.546196699999655,23.546196699999655,30.853378599999814,30.853378599999814,32.685334099999636,32.685334099999636,42.59710469999982,42.59710469999982,45.424655599999824,46.087646499999664,46.087646499999664,46.67381939999996,46.689997799999674,0.6158924999999726,48.68837089999988,2.6304371000001083,None,1,decreament,0.6,21,standard,None,100,,,,,,,m,35,235,fr,r,0,raw,2023-04-13_08h56.58.722,oddball,2022.2.5,59.96210395029002,
10,,,,,0,0,0,2,0,0,0,0,1,0,1,0,,,,,,,,,,,,,,,,,48.705277000000024,49.5045213999997,49.5045213999997,50.103983499999686,50.103983499999686,0.6151446000003489,52.118911300000036,2.6300647000002755,None,1,decreament,0.6,21,standard,None,100,,,,,,,m,35,235,fr,r,0,raw,2023-04-13_08h56.58.722,oddball,2022.2.5,59.96210395029002,
10,,,,,0,0,0,2,0,0,0,0,2,0,2,0,,,,,,,,,,,,,,,,,52.13559039999973,52.768422699999974,52.768422699999974,53.367856500000016,53.367856500000016,0.6154074000000946,55.38283659999979,2.630382300000292,None,1,decreament,0.6,21,standard,None,100,,,,,,,m,35,235,fr,r,0,raw,2023-04-13_08h56.58.722,oddball,2022.2.5,59.96210395029002,
10,,,,,0,0,0,2,0,0,0,0,3,0,3,0,,,,,,,,,,,,,,,,,55.399709699999676,56.01565199999959,56.01565199999959,56.6152076999997,56.6152076999997,0.5990225999998984,58.62994929999968,2.6137862999999015,None,1,decreament,0.6,21,standard,None,100,,,,,,,m,35,235,fr,r,0,raw,2023-04-13_08h56.58.722,oddball,2022.2.5,59.96210395029002,
10,,,,,0,0,0,2,0,0,0,0,4,0,4,0,,,,,,,,,,,,,,,,,58.62994929999968,59.26300309999988,59.26300309999988,59.8623192,59.8623192,0.5990099000000555,61.8773369999999,2.6140418999998474,None,1,decreament,0.6,21,standard,None,100,,,,,,,m,35,235,fr,r,0,raw,2023-04-13_08h56.58.722,oddball,2022.2.5,59.96210395029002,
10,,,,,0,0,0,2,0,0,0,0,5,0,5,0,,,,,,,,,,,,,,,,,61.8773369999999,62.51014329999998,62.51014329999998,63.10958189999974,63.10958189999974,0.6153449999997065,65.12458479999987,2.6303485999997065,None,1,decreament,0.6,21,standard,None,100,,,,,,,m,35,235,fr,r,0,raw,2023-04-13_08h56.58.722,oddball,2022.2.5,59.96210395029002,
10,,,,,0,0,0,2,0,0,0,0,6,0,6,0,,,,,,,,,,,,,,,,,65.14124719999973,65.77399719999994,65.77399719999994,66.37359449999985,66.37359449999985,0.6152922000001126,68.38857749999988,2.6302504000000226,None,1,decreament,0.6,21,standard,None,100,,,,,,,m,35,235,fr,r,0,raw,2023-04-13_08h56.58.722,oddball,2022.2.5,59.96210395029002,
10,,,,,0,0,0,2,0,0,0,0,7,0,7,0,,,,,,,,,,,,,,,,,68.4053259999996,69.17121299999963,69.17121299999963,69.77073489999975,69.77073489999975,0.6153561000000991,71.78565159999971,2.630270400000427,None,1,decreament,0.6,21,standard,None,100,,,,,,,m,35,235,fr,r,0,raw,2023-04-13_08h56.58.722,oddball,2022.2.5,59.96210395029002,
10,,,,,0,0,0,2,0,0,0,0,8,0,8,0,,,,,,,,,,,,,,,,,71.80231229999981,72.6847872999997,72.6847872999997,73.28439359999993,73.28439359999993,0.6156547000000501,75.29936839999982,2.63063000000011,None,1,decreament,0.6,21,standard,None,100,,,,,,,m,35,235,fr,r,0,raw,2023-04-13_08h56.58.722,oddball,2022.2.5,59.96210395029002,
10,,,,,0,0,0,2,0,0,0,0,9,0,9,0,,,,,,,,,,,,,,,,,75.31607749999966,75.99886909999987,75.99886909999987,76.59835949999979,76.59835949999979,0.6153763000002073,78.61321139999973,2.6302169999999023,j,0,decreament,0.6,21,standard,None,100,0.9833948000000419,,,,,,m,35,235,fr,r,0,raw,2023-04-13_08h56.58.722,oddball,2022.2.5,59.96210395029002,
10,,,,,0,0,0,2,0,0,0,0,10,0,10,0,,,,,,,,,,,,,,,,,78.62985249999974,79.2964138999996,79.2964138999996,79.52897859999985,79.54574149999962,0.24880510000002687,81.54424459999973,2.264077900000302,j,1,decreament,0.24,22,oddball,j,40,0.4502007000000958,,,,,,m,35,235,fr,r,0,raw,2023-04-13_08h56.58.722,oddball,2022.2.5,59.96210395029002,
10,,,,,0,0,0,2,0,0,0,0,11,0,11,0,,,,,,,,,,,,,,,,,81.56074459999991,82.17678069999965,82.17678069999965,82.75989219999974,82.77646999999979,0.6154872000001887,84.77486899999985,2.6303609000001416,None,1,decreament,0.6,21,standard,None,100,,,,,,,m,35,235,fr,r,0,raw,2023-04-13_08h56.58.722,oddball,2022.2.5,59.96210395029002,
10,,,,,0,0,0,2,0,0,0,0,12,0,12,0,,,,,,,,,,,,,,,,,84.80805139999984,85.49093519999997,85.49093519999997,86.09043129999964,86.09043129999964,0.5990712000002532,88.1052881999999,2.6135871000001316,None,1,decreament,0.6,21,standard,None,100,,,,,,,m,35,235,fr,r,0,raw,2023-04-13_08h56.58.722,oddball,2022.2.5,59.96210395029002,
10,,,,,0,0,0,2,0,0,0,0,13,0,13,0,,,,,,,,,,,,,,,,,88.1052881999999,88.82129649999979,88.82129649999979,89.4209308999998,89.4209308999998,0.6153917999999976,91.4359116999999,2.630385199999637,None,1,decreament,0.6,21,standard,None,100,,,,,,,m,35,235,fr,r,0,raw,2023-04-13_08h56.58.722,oddball,2022.2.5,59.96210395029002,
10,,,,,0,0,0,2,0,0,0,0,14,0,14,0,,,,,,,,,,,,,,,,,91.45244169999978,92.1019454999996,92.1019454999996,92.70136919999959,92.70136919999959,0.615546699999868,94.71648939999977,2.630652199999986,None,1,decreament,0.6,21,standard,None,100,,,,,,,m,35,235,fr,r,0,raw,2023-04-13_08h56.58.722,oddball,2022.2.5,59.96210395029002,
10,,,,,0,0,0,2,0,0,0,0,15,0,15,0,,,,,,,,,,,,,,,,,94.73304389999976,95.36577709999983,95.36577709999983,95.96545419999984,95.96545419999984,0.6155336000001626,97.98039089999975,2.6306028000003607,None,1,decreament,0.6,21,standard,None,100,,,,,,,m,35,235,fr,r,0,raw,2023-04-13_08h56.58.722,oddball,2022.2.5,59.96210395029002,
10,,,,,0,0,0,2,0,0,0,0,16,0,16,0,,,,,,,,,,,,,,,,,97.9967929999998,98.64636689999998,98.64636689999998,98.99610459999985,99.01267899999993,0.36553890000004685,101.01112629999989,2.380569700000251,j,1,decreament,0.36,23,oddball,j,60,0.44395459999986997,,,,,,m,35,235,fr,r,0,raw,2023-04-13_08h56.58.722,oddball,2022.2.5,59.96210395029002,
10,,,,,0,0,0,2,0,0,0,0,17,0,17,0,,,,,,,,,,,,,,,,,101.02774669999962,101.57732569999962,101.57732569999962,102.17672449999964,102.17672449999964,0.6152228000000832,104.19173139999975,2.6302245000001676,None,1,decreament,0.6,21,standard,None,100,,,,,,,m,35,235,fr,r,0,raw,2023-04-13_08h56.58.722,oddball,2022.2.5,59.96210395029002,
10,,,,,0,0,0,2,0,0,0,0,18,0,18,0,,,,,,,,,,,,,,,,,104.20844339999985,104.9079256,104.9079256,105.50736959999995,105.50736959999995,0.6153466999999182,107.5223076999996,2.63028069999973,None,1,decreament,0.6,21,standard,None,100,,,,,,,m,35,235,fr,r,0,raw,2023-04-13_08h56.58.722,oddball,2022.2.5,59.96210395029002,
10,,,,,0,0,0,2,0,0,0,0,19,0,19,0,,,,,,,,,,,,,,,,,107.53899409999985,108.18827859999965,108.18827859999965,108.78769339999963,108.78769339999963,0.615220600000157,110.802866,2.6304002000001674,None,1,decreament,0.6,21,standard,None,100,,,,,,,m,35,235,fr,r,0,raw,2023-04-13_08h56.58.722,oddball,2022.2.5,59.96210395029002,
10,,,,,0,0,0,2,0,0,0,0,20,0,20,0,,,,,,,,,,,,,,,,,110.81956279999986,111.4022616999996,111.4022616999996,112.00179889999981,112.00179889999981,0.6155699999999342,114.01668039999959,2.630451500000163,None,1,decreament,0.6,21,standard,None,100,,,,,,,m,35,235,fr,r,0,raw,2023-04-13_08h56.58.722,oddball,2022.2.5,59.96210395029002,
10,,,,,0,0,0,2,0,0,0,0,21,0,21,0,,,,,,,,,,,,,,,,,114.03341789999968,114.69990989999997,114.69990989999997,115.28235939999968,115.2991522999996,0.5993573999999171,117.29737829999976,2.614361800000097,None,1,decreament,0.6,21,standard,None,100,,,,,,,m,35,235,fr,r,0,raw,2023-04-13_08h56.58.722,oddball,2022.2.5,59.96210395029002,
10,,,,,0,0,0,2,0,0,0,0,22,0,22,0,,,,,,,,,,,,,,,,,117.3140641,117.96356799999967,117.96356799999967,118.42961229999992,118.44641069999989,0.4820926000002146,120.44466509999984,2.497164899999916,None,0,decreament,0.48,24,oddball,j,80,,,,,,,m,35,235,fr,r,0,raw,2023-04-13_08h56.58.722,oddball,2022.2.5,59.96210395029002,
10,,,,,0,0,0,2,0,0,0,0,23,0,23,0,,,,,,,,,,,,,,,,,120.46128239999962,121.1942211999999,121.1942211999999,121.79375359999995,121.79375359999995,0.5992920999997295,123.80849079999962,2.6138819999996485,None,1,decreament,0.6,21,standard,None,100,,,,,,,m,35,235,fr,r,0,raw,2023-04-13_08h56.58.722,oddball,2022.2.5,59.96210395029002,
10,,,,,0,0,0,2,0,0,0,0,24,0,24,0,,,,,,,,,,,,,,,,,123.80849079999962,124.35811749999993,124.35811749999993,124.95763109999962,124.95763109999962,0.6151997000001757,126.9725942,2.6301517000001695,None,1,decreament,0.6,21,standard,None,100,,,,,,,m,35,235,fr,r,0,raw,2023-04-13_08h56.58.722,oddball,2022.2.5,59.96210395029002,
10,,,,,0,0,0,2,0,0,0,0,25,0,25,0,,,,,,,,,,,,,,,,,126.98924499999976,127.73858399999972,127.73858399999972,128.33814749999965,128.33814749999965,0.6152793000001111,130.35294499999964,2.6300357000000076,None,1,decreament,0.6,21,standard,None,100,,,,,,,m,35,235,fr,r,0,raw,2023-04-13_08h56.58.722,oddball,2022.2.5,59.96210395029002,
10,,,,,0,0,0,2,0,0,0,0,26,0,26,0,,,,,,,,,,,,,,,,,130.36965099999998,130.95269889999963,130.95269889999963,131.55189299999984,131.55189299999984,0.6152139999999235,133.56702559999985,2.6303929000000608,None,1,decreament,0.6,21,standard,None,100,,,,,,,m,35,235,fr,r,0,raw,2023-04-13_08h56.58.722,oddball,2022.2.5,59.96210395029002,
10,,,,,0,0,0,2,0,0,0,0,27,0,27,0,,,,,,,,,,,,,,,,,133.58368419999988,134.21645959999978,134.21645959999978,134.8159437999998,134.8159437999998,0.6154335000001083,136.83101829999987,2.630498699999862,None,1,decreament,0.6,21,standard,None,100,,,,,,,m,35,235,fr,r,0,raw,2023-04-13_08h56.58.722,oddball,2022.2.5,59.96210395029002,
10,,,,,0,0,0,2,0,0,0,0,28,0,28,0,,,,,,,,,,,,,,,,,136.84767620000002,137.58033079999996,137.58033079999996,138.16321019999987,138.17987409999978,0.6155422000001636,140.17817609999975,2.6305123000001913,None,1,decreament,0.6,21,standard,None,100,,,,,,,m,35,235,fr,r,0,raw,2023-04-13_08h56.58.722,oddball,2022.2.5,59.96210395029002,
10,,,,,0,0,0,2,0,0,0,0,29,0,29,0,,,,,,,,,,,,,,,,,140.21134689999963,140.81099829999994,140.81099829999994,141.41039809999984,141.41039809999984,0.6149768999998741,143.42546539999967,2.630032399999891,None,1,decreament,0.6,21,standard,None,100,,,,,,,m,35,235,fr,r,0,raw,2023-04-13_08h56.58.722,oddball,2022.2.5,59.96210395029002,
10,,,,,0,0,0,2,1,0,1,0,0,0,0,0,,,,,,,,,,,,,,,148.25459279999995,148.25459279999995,149.90308639999967,150.5694039,150.5694039,151.16892609999968,151.16892609999968,0.6154912999995759,153.18396719999964,2.6305485999996563,None,1,increament,0.6,25,standard,None,100,,143.44224880000002,0.0011251000000811473,,,,m,35,235,fr,r,0,raw,2023-04-13_08h56.58.722,oddball,2022.2.5,59.96210395029002,
10,,,,,0,0,0,2,1,0,1,0,1,0,1,0,,,,,,,,,,,,,,,,,153.20038329999988,153.89995239999962,153.89995239999962,154.49947519999978,154.49947519999978,0.5990803999998207,156.5142804999996,2.613879300000008,None,1,increament,0.6,25,standard,None,100,,,,,,,m,35,235,fr,r,0,raw,2023-04-13_08h56.58.722,oddball,2022.2.5,59.96210395029002,
10,,,,,0,0,0,2,1,0,1,0,2,0,2,0,,,,,,,,,,,,,,,,,156.5142804999996,157.21374829999968,157.21374829999968,157.7967168,157.8133681999998,0.5992416999997658,159.8117312999998,2.6142485999998826,None,1,increament,0.6,25,standard,None,100,,,,,,,m,35,235,fr,r,0,raw,2023-04-13_08h56.58.722,oddball,2022.2.5,59.96210395029002,
10,,,,,0,0,0,2,1,0,1,0,3,0,3,0,,,,,,,,,,,,,,,,,159.8282817999998,160.5444023,160.5444023,161.14370689999987,161.14370689999987,0.6152724000003218,163.1589316999998,2.630468800000017,None,1,increament,0.6,25,standard,None,100,,,,,,,m,35,235,fr,r,0,raw,2023-04-13_08h56.58.722,oddball,2022.2.5,59.96210395029002,
10,,,,,0,0,0,2,1,0,1,0,4,0,4,0,,,,,,,,,,,,,,,,,163.17529259999992,163.92489499999965,163.92489499999965,164.52422389999992,164.52422389999992,0.61515240000017,166.53928580000002,2.6302168000001984,None,1,increament,0.6,25,standard,None,100,,,,,,,m,35,235,fr,r,0,raw,2023-04-13_08h56.58.722,oddball,2022.2.5,59.96210395029002,
10,,,,,0,0,0,2,1,0,1,0,5,0,5,0,,,,,,,,,,,,,,,,,166.5558928999999,167.32202770000004,167.32202770000004,167.9215033999999,167.9215033999999,0.615529400000014,169.93640079999977,2.630414099999598,None,1,increament,0.6,25,standard,None,100,,,,,,,m,35,235,fr,r,0,raw,2023-04-13_08h56.58.722,oddball,2022.2.5,59.96210395029002,
10,,,,,0,0,0,2,1,0,1,0,6,0,6,0,,,,,,,,,,,,,,,,,169.95310840000002,170.55269249999992,170.55269249999992,171.1521372999996,171.1521372999996,0.6152154999999766,173.16705039999988,2.630102099999931,None,1,increament,0.6,25,standard,None,100,,,,,,,m,35,235,fr,r,0,raw,2023-04-13_08h56.58.722,oddball,2022.2.5,59.96210395029002,
10,,,,,0,0,0,2,1,0,1,0,7,0,7,0,,,,,,,,,,,,,,,,,173.18376639999997,173.7500114999998,173.7500114999998,174.3493999999996,174.3493999999996,0.6155057000000852,176.36459399999967,2.630748499999754,None,1,increament,0.6,25,standard,None,100,,,,,,,m,35,235,fr,r,0,raw,2023-04-13_08h56.58.722,oddball,2022.2.5,59.96210395029002,
10,,,,,0,0,0,2,1,0,1,0,8,0,8,0,,,,,,,,,,,,,,,,,176.38105799999994,176.9642786999998,176.9642786999998,177.67987889999995,177.69655809999995,0.7317603999999847,179.69503659999964,2.746915799999897,j,1,increament,0.72,26,oddball,j,120,0.3357522000001154,,,,,,m,35,235,fr,r,0,raw,2023-04-13_08h56.58.722,oddball,2022.2.5,59.96210395029002,
10,,,,,0,0,0,2,1,0,1,0,9,0,9,0,,,,,,,,,,,,,,,,,179.7116057999997,180.31107889999976,180.31107889999976,180.91042719999996,180.91042719999996,0.5990934999999808,182.92543179999984,2.614524699999947,None,1,increament,0.6,25,standard,None,100,,,,,,,m,35,235,fr,r,0,raw,2023-04-13_08h56.58.722,oddball,2022.2.5,59.96210395029002,
10,,,,,0,0,0,2,1,0,1,0,10,0,10,0,,,,,,,,,,,,,,,,,182.92543179999984,183.49172520000002,183.49172520000002,184.0913561999996,184.0913561999996,0.6154387000001407,186.10628159999987,2.630346500000087,None,1,increament,0.6,25,standard,None,100,,,,,,,m,35,235,fr,r,0,raw,2023-04-13_08h56.58.722,oddball,2022.2.5,59.96210395029002,
10,,,,,0,0,0,2,1,0,1,0,11,0,11,0,,,,,,,,,,,,,,,,,186.1227875999998,186.82222279999996,186.82222279999996,187.42164430000003,187.42164430000003,0.6153956999996808,189.43654419999984,2.630287199999657,None,1,increament,0.6,25,standard,None,100,,,,,,,m,35,235,fr,r,0,raw,2023-04-13_08h56.58.722,oddball,2022.2.5,59.96210395029002,
10,,,,,0,0,0,2,1,0,1,0,12,0,12,0,,,,,,,,,,,,,,,,,189.45323159999998,190.1694978999999,190.1694978999999,190.76883169999974,190.76883169999974,0.6150383000003785,192.78395009999986,2.6301523000001907,None,1,increament,0.6,25,standard,None,100,,,,,,,m,35,235,fr,r,0,raw,2023-04-13_08h56.58.722,oddball,2022.2.5,59.96210395029002,
10,,,,,0,0,0,2,1,0,1,0,13,0,13,0,,,,,,,,,,,,,,,,,192.80062799999996,193.53335149999975,193.53335149999975,194.13278179999998,194.13278179999998,0.6153574999998455,196.1478103999998,2.6303604999998242,j,0,increament,0.6,25,standard,None,100,0.553820099999939,,,,,,m,35,235,fr,r,0,raw,2023-04-13_08h56.58.722,oddball,2022.2.5,59.96210395029002,
10,,,,,0,0,0,2,1,0,1,0,14,0,14,0,,,,,,,,,,,,,,,,,196.1643836999997,196.79711319999979,196.79711319999979,197.3968302999997,197.3968302999997,0.5990097999997488,199.4116641999999,2.6137810000000172,None,1,increament,0.6,25,standard,None,100,,,,,,,m,35,235,fr,r,0,raw,2023-04-13_08h56.58.722,oddball,2022.2.5,59.96210395029002,
10,,,,,0,0,0,2,1,0,1,0,15,0,15,0,,,,,,,,,,,,,,,,,199.4116641999999,200.22798749999993,200.22798749999993,201.0602673999997,201.07691909999994,0.8485937000000376,203.07514039999978,2.8634234999999535,j,1,increament,0.84,27,oddball,j,140,0.43484010000020135,,,,,,m,35,235,fr,r,0,raw,2023-04-13_08h56.58.722,oddball,2022.2.5,59.96210395029002,
10,,,,,0,0,0,2,1,0,1,0,16,0,16,0,,,,,,,,,,,,,,,,,203.0918058999996,203.6751221999998,203.6751221999998,204.2742446999996,204.29110629999968,0.6151568999998744,206.28931759999978,2.6302449999998316,None,1,increament,0.6,25,standard,None,100,,,,,,,m,35,235,fr,r,0,raw,2023-04-13_08h56.58.722,oddball,2022.2.5,59.96210395029002,
10,,,,,0,0,0,2,1,0,1,0,17,0,17,0,,,,,,,,,,,,,,,,,206.30602409999983,206.8385699999999,206.8385699999999,207.43833219999988,207.43833219999988,0.6156323000000157,209.4531078,2.6303619000000253,None,1,increament,0.6,25,standard,None,100,,,,,,,m,35,235,fr,r,0,raw,2023-04-13_08h56.58.722,oddball,2022.2.5,59.96210395029002,
10,,,,,0,0,0,2,1,0,1,0,18,0,18,0,,,,,,,,,,,,,,,,,209.4698616999999,210.01934329999995,210.01934329999995,210.6190359999996,210.6190359999996,0.6156578999998601,212.6338539999997,2.630451699999867,None,1,increament,0.6,25,standard,None,100,,,,,,,m,35,235,fr,r,0,raw,2023-04-13_08h56.58.722,oddball,2022.2.5,59.96210395029002,
10,,,,,0,0,0,2,1,0,1,0,19,0,19,0,,,,,,,,,,,,,,,,,212.65058829999998,213.4664859999998,213.4664859999998,214.0660095999997,214.0660095999997,0.6152621000001091,216.08098169999994,2.6302138000000923,None,1,increament,0.6,25,standard,None,100,,,,,,,m,35,235,fr,r,0,raw,2023-04-13_08h56.58.722,oddball,2022.2.5,59.96210395029002,
10,,,,,0,0,0,2,1,0,1,0,20,0,20,0,,,,,,,,,,,,,,,,,216.09752660000004,216.78047389999983,216.78047389999983,217.37983829999985,217.37983829999985,0.6151534000000538,219.39478439999993,2.630119000000377,None,1,increament,0.6,25,standard,None,100,,,,,,,m,35,235,fr,r,0,raw,2023-04-13_08h56.58.722,oddball,2022.2.5,59.96210395029002,
10,,,,,0,0,0,2,1,0,1,0,21,0,21,0,,,,,,,,,,,,,,,,,219.4115152999998,220.07771739999998,220.07771739999998,220.67740430000003,220.67740430000003,0.6151345000002948,222.6920243999998,2.6297434000002795,None,1,increament,0.6,25,standard,None,100,,,,,,,m,35,235,fr,r,0,raw,2023-04-13_08h56.58.722,oddball,2022.2.5,59.96210395029002,
10,,,,,0,0,0,2,1,0,1,0,22,0,22,0,,,,,,,,,,,,,,,,,222.7088592,223.25804849999986,223.25804849999986,223.8579276999999,223.8579276999999,0.6157006999997066,225.8727976,2.630554299999858,None,1,increament,0.6,25,standard,None,100,,,,,,,m,35,235,fr,r,0,raw,2023-04-13_08h56.58.722,oddball,2022.2.5,59.96210395029002,
10,,,,,0,0,0,2,1,0,1,0,23,0,23,0,,,,,,,,,,,,,,,,,225.8893791999999,226.47233289999986,226.47233289999986,227.07178619999968,227.07178619999968,0.6151624000003721,229.0866704,2.6300531000001683,None,1,increament,0.6,25,standard,None,100,,,,,,,m,35,235,fr,r,0,raw,2023-04-13_08h56.58.722,oddball,2022.2.5,59.96210395029002,
10,,,,,0,0,0,2,1,0,1,0,24,0,24,0,,,,,,,,,,,,,,,,,229.10341719999997,229.78620039999987,229.78620039999987,230.73516840000002,230.7520181,0.964672900000096,232.75024729999996,2.9797433000003366,j,1,increament,0.96,28,oddball,j,160,0.12875369999983377,,,,,,m,35,235,fr,r,0,raw,2023-04-13_08h56.58.722,oddball,2022.2.5,59.96210395029002,
10,,,,,0,0,0,2,1,0,1,0,25,0,25,0,,,,,,,,,,,,,,,,,232.76703729999963,233.5996571999999,233.5996571999999,234.19910419999997,234.19910419999997,0.5990702999997666,236.21441509999977,2.613735599999927,None,1,increament,0.6,25,standard,None,100,,,,,,,m,35,235,fr,r,0,raw,2023-04-13_08h56.58.722,oddball,2022.2.5,59.96210395029002,
10,,,,,0,0,0,2,1,0,1,0,26,0,26,0,,,,,,,,,,,,,,,,,236.21441509999977,236.81356489999962,236.81356489999962,237.41304549999995,237.41304549999995,0.6151349000001574,239.42786690000003,2.629957199999808,None,1,increament,0.6,25,standard,None,100,,,,,,,m,35,235,fr,r,0,raw,2023-04-13_08h56.58.722,oddball,2022.2.5,59.96210395029002,
10,,,,,0,0,0,2,1,0,1,0,27,0,27,0,,,,,,,,,,,,,,,,,239.4445550999999,239.99424249999993,239.99424249999993,240.59379349999972,240.59379349999972,0.6157693999998628,242.60875699999997,2.630723499999931,None,1,increament,0.6,25,standard,None,100,,,,,,,m,35,235,fr,r,0,raw,2023-04-13_08h56.58.722,oddball,2022.2.5,59.96210395029002,
10,,,,,0,0,0,2,1,0,1,0,28,0,28,0,,,,,,,,,,,,,,,,,242.6252344999998,243.30800689999978,243.30800689999978,243.89086269999962,243.9075656,0.6155902000000424,245.9058487999996,2.63058140000021,None,1,increament,0.6,25,standard,None,100,,,,,,,m,35,235,fr,r,0,raw,2023-04-13_08h56.58.722,oddball,2022.2.5,59.96210395029002,
10,,,,,0,0,0,2,1,0,1,0,29,0,29,0,,,,,,,,,,,,,,,,,245.93915579999975,246.62191259999963,246.62191259999963,247.22133749999966,247.22133749999966,0.599029900000005,249.23635569999988,2.6137876000002507,None,1,increament,0.6,25,standard,None,100,,,,,,,m,35,235,fr,r,0,raw,2023-04-13_08h56.58.722,oddball,2022.2.5,59.96210395029002,
10,,,,,0,0,0,2,2,0,2,0,0,0,0,0,,,,,,,,,,,,,,,261.8257632,261.8257632,264.5567758999996,265.20628689999967,265.20628689999967,265.80568089999997,265.80568089999997,0.6147996999998213,267.8207986999996,2.6299119000000246,None,1,decreament,0.6,21,standard,None,100,,249.23635569999988,0.0004756000002998917,,,,m,35,235,fr,r,0,raw,2023-04-13_08h56.58.722,oddball,2022.2.5,59.96210395029002,
10,,,,,0,0,0,2,2,0,2,0,1,0,1,0,,,,,,,,,,,,,,,,,267.8373480999999,268.53702969999995,268.53702969999995,269.1362412999997,269.1362412999997,0.6153420000000551,271.15115019999985,2.6302615999998125,None,1,decreament,0.6,21,standard,None,100,,,,,,,m,35,235,fr,r,0,raw,2023-04-13_08h56.58.722,oddball,2022.2.5,59.96210395029002,
10,,,,,0,0,0,2,2,0,2,0,2,0,2,0,,,,,,,,,,,,,,,,,271.1680330999998,271.8006083,271.8006083,272.40018859999964,272.40018859999964,0.6152083000001767,274.4152240999997,2.630229899999904,None,1,decreament,0.6,21,standard,None,100,,,,,,,m,35,235,fr,r,0,raw,2023-04-13_08h56.58.722,oddball,2022.2.5,59.96210395029002,
10,,,,,0,0,0,2,2,0,2,0,3,0,3,0,,,,,,,,,,,,,,,,,274.4318881999998,275.09784790000003,275.09784790000003,275.69743259999996,275.69743259999996,0.6152412999999797,277.71249899999975,2.6302919999998267,None,1,decreament,0.6,21,standard,None,100,,,,,,,m,35,235,fr,r,0,raw,2023-04-13_08h56.58.722,oddball,2022.2.5,59.96210395029002,
10,,,,,0,0,0,2,2,0,2,0,4,0,4,0,,,,,,,,,,,,,,,,,277.729018,278.3452066,278.3452066,278.94479169999977,278.94479169999977,0.6152939999997216,280.9598037999999,2.6302623999999923,None,1,decreament,0.6,21,standard,None,100,,,,,,,m,35,235,fr,r,0,raw,2023-04-13_08h56.58.722,oddball,2022.2.5,59.96210395029002,
10,,,,,0,0,0,2,2,0,2,0,5,0,5,0,,,,,,,,,,,,,,,,,280.9764068999998,281.4925712999998,281.4925712999998,282.0919463,282.0919463,0.5990018000002237,284.1070129999998,2.6138418000000456,None,1,decreament,0.6,21,standard,None,100,,,,,,,m,35,235,fr,r,0,raw,2023-04-13_08h56.58.722,oddball,2022.2.5,59.96210395029002,
10,,,,,0,0,0,2,2,0,2,0,6,0,6,0,,,,,,,,,,,,,,,,,284.1070129999998,284.7399753999998,284.7399753999998,284.97309879999966,284.98969309999984,0.2487306000002718,286.9878652999996,2.263488800000232,j,1,decreament,0.24,22,oddball,j,40,0.45612819999996645,,,,,,m,35,235,fr,r,0,raw,2023-04-13_08h56.58.722,oddball,2022.2.5,59.96210395029002,
10,,,,,0,0,0,2,2,0,2,0,7,0,7,0,,,,,,,,,,,,,,,,,287.0047012,287.58747489999996,287.58747489999996,288.18690719999995,288.18690719999995,0.6151175999998486,290.20188029999963,2.630079900000055,None,1,decreament,0.6,21,standard,None,100,,,,,,,m,35,235,fr,r,0,raw,2023-04-13_08h56.58.722,oddball,2022.2.5,59.96210395029002,
10,,,,,0,0,0,2,2,0,2,0,8,0,8,0,,,,,,,,,,,,,,,,,290.21864119999964,290.73468639999965,290.73468639999965,291.3343264,291.3343264,0.6150010000001203,293.3493638,2.6300405000001774,None,1,decreament,0.6,21,standard,None,100,,,,,,,m,35,235,fr,r,0,raw,2023-04-13_08h56.58.722,oddball,2022.2.5,59.96210395029002,
10,,,,,0,0,0,2,2,0,2,0,9,0,9,0,,,,,,,,,,,,,,,,,293.3660229999996,293.9987807999996,293.9987807999996,294.5983204999998,294.5983204999998,0.6153472999999394,296.61318789999996,2.63019149999991,None,1,decreament,0.6,21,standard,None,100,,,,,,,m,35,235,fr,r,0,raw,2023-04-13_08h56.58.722,oddball,2022.2.5,59.96210395029002,
10,,,,,0,0,0,2,2,0,2,0,10,0,10,0,,,,,,,,,,,,,,,,,296.6297023999996,297.2628614999999,297.2628614999999,297.8622172999999,297.8622172999999,0.6155469000000267,299.8768937,2.630205500000102,None,1,decreament,0.6,21,standard,None,100,,,,,,,m,35,235,fr,r,0,raw,2023-04-13_08h56.58.722,oddball,2022.2.5,59.96210395029002,
10,,,,,0,0,0,2,2,0,2,0,11,0,11,0,,,,,,,,,,,,,,,,,299.89368579999973,300.6264444999997,300.6264444999997,301.2258873999999,301.2258873999999,0.5990242000002581,303.2410324999996,2.6141295000002174,None,1,decreament,0.6,21,standard,None,100,,,,,,,m,35,235,fr,r,0,raw,2023-04-13_08h56.58.722,oddball,2022.2.5,59.96210395029002,
10,,,,,0,0,0,2,2,0,2,0,12,0,12,0,,,,,,,,,,,,,,,,,303.2410324999996,303.85730399999966,303.85730399999966,304.3234027999997,304.3400591999998,0.4818417000001318,306.3384186999997,2.496831899999961,j,1,decreament,0.48,24,oddball,j,80,0.6831694999996216,,,,,,m,35,235,fr,r,0,raw,2023-04-13_08h56.58.722,oddball,2022.2.5,59.96210395029002,
10,,,,,0,0,0,2,2,0,2,0,13,0,13,0,,,,,,,,,,,,,,,,,306.35496190000003,306.87121009999964,306.87121009999964,307.4706164999998,307.4706164999998,0.6152420000003076,309.4857044999999,2.630309500000294,None,1,decreament,0.6,21,standard,None,100,,,,,,,m,35,235,fr,r,0,raw,2023-04-13_08h56.58.722,oddball,2022.2.5,59.96210395029002,
10,,,,,0,0,0,2,2,0,2,0,14,0,14,0,,,,,,,,,,,,,,,,,309.50233279999975,310.0852875999999,310.0852875999999,310.6680354,310.68463889999975,0.6155318999999508,312.68299979999983,2.630605600000308,None,1,decreament,0.6,21,standard,None,100,,,,,,,m,35,235,fr,r,0,raw,2023-04-13_08h56.58.722,oddball,2022.2.5,59.96210395029002,
10,,,,,0,0,0,2,2,0,2,0,15,0,15,0,,,,,,,,,,,,,,,,,312.7163237999998,313.44916399999966,313.44916399999966,314.048495,314.048495,0.6153456000001825,316.06334679999964,2.63018030000012,None,1,decreament,0.6,21,standard,None,100,,,,,,,m,35,235,fr,r,0,raw,2023-04-13_08h56.58.722,oddball,2022.2.5,59.96210395029002,
10,,,,,0,0,0,2,2,0,2,0,16,0,16,0,,,,,,,,,,,,,,,,,316.0802107999998,316.87956729999996,316.87956729999996,317.47886149999977,317.47886149999977,0.6153079999999136,319.49399219999987,2.6304274999997688,None,1,decreament,0.6,21,standard,None,100,,,,,,,m,35,235,fr,r,0,raw,2023-04-13_08h56.58.722,oddball,2022.2.5,59.96210395029002,
10,,,,,0,0,0,2,2,0,2,0,17,0,17,0,,,,,,,,,,,,,,,,,319.5104959999999,320.0933778999997,320.0933778999997,320.69303739999987,320.69303739999987,0.5990626000002521,322.7079521999999,2.614030900000216,None,1,decreament,0.6,21,standard,None,100,,,,,,,m,35,235,fr,r,0,raw,2023-04-13_08h56.58.722,oddball,2022.2.5,59.96210395029002,
10,,,,,0,0,0,2,2,0,2,0,18,0,18,0,,,,,,,,,,,,,,,,,322.7079521999999,323.3741725,323.3741725,323.9736902999998,323.9736902999998,0.6156712000001789,325.9885118999996,2.6304995999998937,j,0,decreament,0.6,21,standard,None,100,0.6073719000000892,,,,,,m,35,235,fr,r,0,raw,2023-04-13_08h56.58.722,oddball,2022.2.5,59.96210395029002,
10,,,,,0,0,0,2,2,0,2,0,19,0,19,0,,,,,,,,,,,,,,,,,326.00518889999967,326.6380675999999,326.6380675999999,327.2375781999999,327.2375781999999,0.6157811999996738,329.2524406999996,2.630638099999942,j,0,decreament,0.6,21,standard,None,100,0.6542097999999896,,,,,,m,35,235,fr,r,0,raw,2023-04-13_08h56.58.722,oddball,2022.2.5,59.96210395029002,
10,,,,,0,0,0,2,2,0,2,0,20,0,20,0,,,,,,,,,,,,,,,,,329.2689255,329.9684513999996,329.9684513999996,330.5681225999997,330.5681225999997,0.6155657999997857,332.5830163999999,2.630473400000028,None,1,decreament,0.6,21,standard,None,100,,,,,,,m,35,235,fr,r,0,raw,2023-04-13_08h56.58.722,oddball,2022.2.5,59.96210395029002,
10,,,,,0,0,0,2,2,0,2,0,21,0,21,0,,,,,,,,,,,,,,,,,332.5996600999997,333.31559649999963,333.31559649999963,333.9151216,333.9151216,0.6154722999999649,335.93007979999993,2.6304297000001498,None,1,decreament,0.6,21,standard,None,100,,,,,,,m,35,235,fr,r,0,raw,2023-04-13_08h56.58.722,oddball,2022.2.5,59.96210395029002,
10,,,,,0,0,0,2,2,0,2,0,22,0,22,0,,,,,,,,,,,,,,,,,335.9467940999998,336.5462550999996,336.5462550999996,337.14580399999977,337.14580399999977,0.6154790999999022,339.16079579999996,2.630413800000042,None,1,decreament,0.6,21,standard,None,100,,,,,,,m,35,235,fr,r,0,raw,2023-04-13_08h56.58.722,oddball,2022.2.5,59.96210395029002,
10,,,,,0,0,0,2,2,0,2,0,23,0,23,0,,,,,,,,,,,,,,,,,339.17759579999984,339.8769546999997,339.8769546999997,340.47630489999983,340.47630489999983,0.6152084000000286,342.49125319999985,2.6301269000000502,j,0,decreament,0.6,21,standard,None,100,0.6702790999997887,,,,,,m,35,235,fr,r,0,raw,2023-04-13_08h56.58.722,oddball,2022.2.5,59.96210395029002,
10,,,,,0,0,0,2,2,0,2,0,24,0,24,0,,,,,,,,,,,,,,,,,342.5079517999998,343.10750310000003,343.10750310000003,343.70651929999985,343.70651929999985,0.6150856999997814,345.72197589999996,2.614186199999949,None,1,decreament,0.6,21,standard,None,100,,,,,,,m,35,235,fr,r,0,raw,2023-04-13_08h56.58.722,oddball,2022.2.5,59.96210395029002,
10,,,,,0,0,0,2,2,0,2,0,25,0,25,0,,,,,,,,,,,,,,,,,345.72197589999996,346.3383303999999,346.3383303999999,346.9374703999997,346.9374703999997,0.6153509999999187,348.95263669999986,2.630526700000246,None,1,decreament,0.6,21,standard,None,100,,,,,,,m,35,235,fr,r,0,raw,2023-04-13_08h56.58.722,oddball,2022.2.5,59.96210395029002,
10,,,,,0,0,0,2,2,0,2,0,26,0,26,0,,,,,,,,,,,,,,,,,348.96915839999974,349.8016683999999,349.8016683999999,350.1514803,350.1683473999997,0.36568309999984194,352.1664587,2.380667999999787,j,1,decreament,0.36,23,oddball,j,60,0.5392495999999483,,,,,,m,35,235,fr,r,0,raw,2023-04-13_08h56.58.722,oddball,2022.2.5,59.96210395029002,
10,,,,,0,0,0,2,2,0,2,0,27,0,27,0,,,,,,,,,,,,,,,,,352.1830746999999,352.81597459999966,352.81597459999966,353.4154295999997,353.4154295999997,0.6150942999997824,355.43029419999993,2.629943699999785,None,1,decreament,0.6,21,standard,None,100,,,,,,,m,35,235,fr,r,0,raw,2023-04-13_08h56.58.722,oddball,2022.2.5,59.96210395029002,
10,,,,,0,0,0,2,2,0,2,0,28,0,28,0,,,,,,,,,,,,,,,,,355.4471104999998,356.1132760999999,356.1132760999999,356.7126310999997,356.7126310999997,0.6154731999999967,358.72758159999967,2.630423300000075,None,1,decreament,0.6,21,standard,None,100,,,,,,,m,35,235,fr,r,0,raw,2023-04-13_08h56.58.722,oddball,2022.2.5,59.96210395029002,
10,,,,,0,0,0,2,2,0,2,0,29,0,29,0,,,,,,,,,,,,,,,,,358.74426349999976,359.36044049999964,359.36044049999964,359.9601811999996,359.9601811999996,0.6156998999999814,361.9748047999997,2.6303078999999343,None,1,decreament,0.6,21,standard,None,100,,,,,,,m,35,235,fr,r,0,raw,2023-04-13_08h56.58.722,oddball,2022.2.5,59.96210395029002,
10,,,,,0,0,0,2,3,0,3,0,0,0,0,0,,,,,,,,,,,,,,,377.32862899999964,377.32862899999964,379.6600338999997,380.3094417999996,380.3094417999996,380.8923179999997,380.90901889999986,0.615452600000026,382.9071134999999,2.6303523000001405,None,1,increament,0.6,25,standard,None,100,,361.9917507,0.001098200000342331,,,,m,35,235,fr,r,0,raw,2023-04-13_08h56.58.722,oddball,2022.2.5,59.96210395029002,
10,,,,,0,0,0,2,3,0,3,0,1,0,1,0,,,,,,,,,,,,,,,,,382.9409996999998,383.5066741999999,383.5066741999999,384.1061630999998,384.1061630999998,0.6151538000003711,386.12127359999977,2.630247800000234,None,1,increament,0.6,25,standard,None,100,,,,,,,m,35,235,fr,r,0,raw,2023-04-13_08h56.58.722,oddball,2022.2.5,59.96210395029002,
10,,,,,0,0,0,2,3,0,3,0,2,0,2,0,,,,,,,,,,,,,,,,,386.1378993999997,386.7541323999999,386.7541323999999,387.35353639999994,387.35353639999994,0.6150170999999318,389.36856439999974,2.6300320000000283,None,1,increament,0.6,25,standard,None,100,,,,,,,m,35,235,fr,r,0,raw,2023-04-13_08h56.58.722,oddball,2022.2.5,59.96210395029002,
10,,,,,0,0,0,2,3,0,3,0,3,0,3,0,,,,,,,,,,,,,,,,,389.3853148999997,389.95143489999964,389.95143489999964,390.55079969999997,390.55079969999997,0.5990786000002117,392.5658833999996,2.6136101000001872,None,1,increament,0.6,25,standard,None,100,,,,,,,m,35,235,fr,r,0,raw,2023-04-13_08h56.58.722,oddball,2022.2.5,59.96210395029002,
10,,,,,0,0,0,2,3,0,3,0,4,0,4,0,,,,,,,,,,,,,,,,,392.5658833999996,393.16538919999994,393.16538919999994,393.76483489999964,393.76483489999964,0.6155818000002,395.7798137,2.6305771000002096,None,1,increament,0.6,25,standard,None,100,,,,,,,m,35,235,fr,r,0,raw,2023-04-13_08h56.58.722,oddball,2022.2.5,59.96210395029002,
10,,,,,0,0,0,2,3,0,3,0,5,0,5,0,,,,,,,,,,,,,,,,,395.7965012999998,396.3460427,396.3460427,397.17855229999986,397.19533409999985,0.8481637999998384,399.1935644,2.8631891999998516,None,0,increament,0.84,27,oddball,j,140,,,,,,,m,35,235,fr,r,0,raw,2023-04-13_08h56.58.722,oddball,2022.2.5,59.96210395029002,
10,,,,,0,0,0,2,3,0,3,0,6,0,6,0,,,,,,,,,,,,,,,,,399.2101558999998,399.80974779999997,399.80974779999997,400.40924959999984,400.40924959999984,0.6155801999998403,402.4243115999998,2.63062809999974,None,1,increament,0.6,25,standard,None,100,,,,,,,m,35,235,fr,r,0,raw,2023-04-13_08h56.58.722,oddball,2022.2.5,59.96210395029002,
10,,,,,0,0,0,2,3,0,3,0,7,0,7,0,,,,,,,,,,,,,,,,,402.4406216999996,403.29008069999963,403.29008069999963,403.88937769999984,403.88937769999984,0.6151601000001392,405.90460349999967,2.6304015999999137,j,0,increament,0.6,25,standard,None,100,1.1811592999997629,,,,,,m,35,235,fr,r,0,raw,2023-04-13_08h56.58.722,oddball,2022.2.5,59.96210395029002,
10,,,,,0,0,0,2,3,0,3,0,8,0,8,0,,,,,,,,,,,,,,,,,405.9212720999999,406.5041675999996,406.5041675999996,407.0869297999998,407.1036901999996,0.6156825999996727,409.10191859999986,2.630633299999772,None,1,increament,0.6,25,standard,None,100,,,,,,,m,35,235,fr,r,0,raw,2023-04-13_08h56.58.722,oddball,2022.2.5,59.96210395029002,
10,,,,,0,0,0,2,3,0,3,0,9,0,9,0,,,,,,,,,,,,,,,,,409.1352861999999,409.71819579999965,409.71819579999965,410.31756589999986,410.31756589999986,0.6152349999997568,412.33252079999966,2.630193699999836,None,1,increament,0.6,25,standard,None,100,,,,,,,m,35,235,fr,r,0,raw,2023-04-13_08h56.58.722,oddball,2022.2.5,59.96210395029002,
10,,,,,0,0,0,2,3,0,3,0,10,0,10,0,,,,,,,,,,,,,,,,,412.3491844,412.9487887999999,412.9487887999999,413.6647189,413.68135989999973,0.7319078999998965,415.67960909999965,2.7468057999999473,j,1,increament,0.72,26,oddball,j,120,0.407534399999804,,,,,,m,35,235,fr,r,0,raw,2023-04-13_08h56.58.722,oddball,2022.2.5,59.96210395029002,
10,,,,,0,0,0,2,3,0,3,0,11,0,11,0,,,,,,,,,,,,,,,,,415.69644289999997,416.3292861,416.3292861,416.9287915,416.9287915,0.6155788000000939,418.94366839999975,2.6304195000002437,None,1,increament,0.6,25,standard,None,100,,,,,,,m,35,235,fr,r,0,raw,2023-04-13_08h56.58.722,oddball,2022.2.5,59.96210395029002,
10,,,,,0,0,0,2,3,0,3,0,12,0,12,0,,,,,,,,,,,,,,,,,418.96038789999966,419.8098140999996,419.8098140999996,420.4091648999997,420.4091648999997,0.6155849000001581,422.42397649999975,2.6303931000002194,None,1,increament,0.6,25,standard,None,100,,,,,,,m,35,235,fr,r,0,raw,2023-04-13_08h56.58.722,oddball,2022.2.5,59.96210395029002,
10,,,,,0,0,0,2,3,0,3,0,13,0,13,0,,,,,,,,,,,,,,,,,422.44081389999974,423.02338869999994,423.02338869999994,423.60657059999994,423.6229576999999,0.5992316000001665,425.6213614999997,2.614025800000036,None,1,increament,0.6,25,standard,None,100,,,,,,,m,35,235,fr,r,0,raw,2023-04-13_08h56.58.722,oddball,2022.2.5,59.96210395029002,
10,,,,,0,0,0,2,3,0,3,0,14,0,14,0,,,,,,,,,,,,,,,,,425.6380531,426.37079270000004,426.37079270000004,426.9702043999996,426.9702043999996,0.5990821000000324,428.9852642999999,2.613685599999826,None,1,increament,0.6,25,standard,None,100,,,,,,,m,35,235,fr,r,0,raw,2023-04-13_08h56.58.722,oddball,2022.2.5,59.96210395029002,
10,,,,,0,0,0,2,3,0,3,0,15,0,15,0,,,,,,,,,,,,,,,,,428.9852642999999,429.6014243999998,429.6014243999998,430.2009240999996,430.2009240999996,0.6154872000001887,432.2161503999996,2.630697600000076,None,1,increament,0.6,25,standard,None,100,,,,,,,m,35,235,fr,r,0,raw,2023-04-13_08h56.58.722,oddball,2022.2.5,59.96210395029002,
10,,,,,0,0,0,2,3,0,3,0,16,0,16,0,,,,,,,,,,,,,,,,,432.2323871999997,432.88200199999983,432.88200199999983,433.48132769999984,433.48132769999984,0.6152838999996675,435.4966691999998,2.630631199999698,j,0,increament,0.6,25,standard,None,100,0.8904256999999234,,,,,,m,35,235,fr,r,0,raw,2023-04-13_08h56.58.722,oddball,2022.2.5,59.96210395029002,
10,,,,,0,0,0,2,3,0,3,0,17,0,17,0,,,,,,,,,,,,,,,,,435.51313600000003,436.41216099999974,436.41216099999974,437.01176199999964,437.01176199999964,0.615616399999908,439.02682849999974,2.6306743000000097,None,1,increament,0.6,25,standard,None,100,,,,,,,m,35,235,fr,r,0,raw,2023-04-13_08h56.58.722,oddball,2022.2.5,59.96210395029002,
10,,,,,0,0,0,2,3,0,3,0,18,0,18,0,,,,,,,,,,,,,,,,,439.04348149999987,439.7260489999999,439.7260489999999,440.32565039999963,440.32565039999963,0.6153566999996656,442.3408035999996,2.630496299999777,None,1,increament,0.6,25,standard,None,100,,,,,,,m,35,235,fr,r,0,raw,2023-04-13_08h56.58.722,oddball,2022.2.5,59.96210395029002,
10,,,,,0,0,0,2,3,0,3,0,19,0,19,0,,,,,,,,,,,,,,,,,442.35709799999995,443.0401641999997,443.0401641999997,443.98946849999993,444.0057784999999,0.9652756000000409,446.0042067999998,2.9799810999998044,j,1,increament,0.96,28,oddball,j,160,0.2231802000001153,,,,,,m,35,235,fr,r,0,raw,2023-04-13_08h56.58.722,oddball,2022.2.5,59.96210395029002,
10,,,,,0,0,0,2,3,0,3,0,20,0,20,0,,,,,,,,,,,,,,,,,446.0208795999997,446.83689579999964,446.83689579999964,447.4363851999997,447.4363851999997,0.6154165000002649,449.4513261999996,2.6304063000002316,None,1,increament,0.6,25,standard,None,100,,,,,,,m,35,235,fr,r,0,raw,2023-04-13_08h56.58.722,oddball,2022.2.5,59.96210395029002,
10,,,,,0,0,0,2,3,0,3,0,21,0,21,0,,,,,,,,,,,,,,,,,449.4678918999998,450.2342291,450.2342291,450.83355389999997,450.83355389999997,0.5990500000002612,452.84837719999996,2.6140791000002537,None,1,increament,0.6,25,standard,None,100,,,,,,,m,35,235,fr,r,0,raw,2023-04-13_08h56.58.722,oddball,2022.2.5,59.96210395029002,
10,,,,,0,0,0,2,3,0,3,0,22,0,22,0,,,,,,,,,,,,,,,,,452.84837719999996,453.58131609999964,453.58131609999964,454.1808179999998,454.1808179999998,0.6154198999997789,456.1956720999997,2.630272099999729,None,1,increament,0.6,25,standard,None,100,,,,,,,m,35,235,fr,r,0,raw,2023-04-13_08h56.58.722,oddball,2022.2.5,59.96210395029002,
10,,,,,0,0,0,2,3,0,3,0,23,0,23,0,,,,,,,,,,,,,,,,,456.21239509999987,457.0449685999997,457.0449685999997,457.6443482999998,457.6443482999998,0.615132000000358,459.65941269999985,2.630199900000207,None,1,increament,0.6,25,standard,None,100,,,,,,,m,35,235,fr,r,0,raw,2023-04-13_08h56.58.722,oddball,2022.2.5,59.96210395029002,
10,,,,,0,0,0,2,3,0,3,0,24,0,24,0,,,,,,,,,,,,,,,,,459.6765544,460.3089152999996,460.3089152999996,460.9083529999998,460.9083529999998,0.6153686000002381,462.9232654999996,2.6302710999998453,None,1,increament,0.6,25,standard,None,100,,,,,,,m,35,235,fr,r,0,raw,2023-04-13_08h56.58.722,oddball,2022.2.5,59.96210395029002,
10,,,,,0,0,0,2,3,0,3,0,25,0,25,0,,,,,,,,,,,,,,,,,462.9400409,463.6728005,463.6728005,464.2722888999997,464.2722888999997,0.615178300000025,466.28720369999974,2.6300744000000122,j,0,increament,0.6,25,standard,None,100,0.5883139000002302,,,,,,m,35,235,fr,r,0,raw,2023-04-13_08h56.58.722,oddball,2022.2.5,59.96210395029002,
10,,,,,0,0,0,2,3,0,3,0,26,0,26,0,,,,,,,,,,,,,,,,,466.3037290999996,466.8202831999997,466.8202831999997,467.4196460999997,467.4196460999997,0.6151346999999987,469.43455399999993,2.630065100000138,None,1,increament,0.6,25,standard,None,100,,,,,,,m,35,235,fr,r,0,raw,2023-04-13_08h56.58.722,oddball,2022.2.5,59.96210395029002,
10,,,,,0,0,0,2,3,0,3,0,27,0,27,0,,,,,,,,,,,,,,,,,469.45114369999965,470.3005565999997,470.3005565999997,470.9000535,470.9000535,0.6153991999999562,472.9148796999998,2.630178999999771,None,1,increament,0.6,25,standard,None,100,,,,,,,m,35,235,fr,r,0,raw,2023-04-13_08h56.58.722,oddball,2022.2.5,59.96210395029002,
10,,,,,0,0,0,2,3,0,3,0,28,0,28,0,,,,,,,,,,,,,,,,,472.9314830999997,473.61439249999967,473.61439249999967,474.2139023,474.2139023,0.6152201999998397,476.2285717,2.6298314999999093,None,1,increament,0.6,25,standard,None,100,,,,,,,m,35,235,fr,r,0,raw,2023-04-13_08h56.58.722,oddball,2022.2.5,59.96210395029002,
10,,,,,0,0,0,2,3,0,3,0,29,0,29,0,,,,,,,,,,,,,,,,,476.2456393999996,477.02819249999993,477.02819249999993,477.62767329999997,477.62767329999997,0.615179000000353,479.64259300000003,2.6300857999999607,None,1,increament,0.6,25,standard,None,100,,,,,,,m,35,235,fr,r,0,raw,2023-04-13_08h56.58.722,oddball,2022.2.5,59.96210395029002,
10,,,,,0,0,0,2,4,0,4,0,0,0,0,0,,,,,,,,,,,,,,,493.5640943999997,493.5640943999997,496.0954649,496.67864889999964,496.67864889999964,497.2777879,497.2945388999997,0.6154215999999906,499.2927910999997,2.630427200000213,None,1,decreament,0.6,21,standard,None,100,,479.6593842999996,0.0009838000000854663,,,,m,35,235,fr,r,0,raw,2023-04-13_08h56.58.722,oddball,2022.2.5,59.96210395029002,
10,,,,,0,0,0,2,4,0,4,0,1,0,1,0,,,,,,,,,,,,,,,,,499.30937749999975,500.12534719999985,500.12534719999985,500.7248605,500.7248605,0.6152759000001424,502.7399459999997,2.630367799999931,None,1,decreament,0.6,21,standard,None,100,,,,,,,m,35,235,fr,r,0,raw,2023-04-13_08h56.58.722,oddball,2022.2.5,59.96210395029002,
10,,,,,0,0,0,2,4,0,4,0,2,0,2,0,,,,,,,,,,,,,,,,,502.7563817,503.38935249999986,503.38935249999986,503.98878799999966,503.98878799999966,0.6154290999998011,506.0037769999999,2.6304121999996823,None,1,decreament,0.6,21,standard,None,100,,,,,,,m,35,235,fr,r,0,raw,2023-04-13_08h56.58.722,oddball,2022.2.5,59.96210395029002,
10,,,,,0,0,0,2,4,0,4,0,3,0,3,0,,,,,,,,,,,,,,,,,506.02024819999997,506.71976589999986,506.71976589999986,507.3193293999998,507.3193293999998,0.6153033999999025,509.3344060999998,2.6303443000001607,None,1,decreament,0.6,21,standard,None,100,,,,,,,m,35,235,fr,r,0,raw,2023-04-13_08h56.58.722,oddball,2022.2.5,59.96210395029002,
10,,,,,0,0,0,2,4,0,4,0,4,0,4,0,,,,,,,,,,,,,,,,,509.3508869999996,510.0170310999997,510.0170310999997,510.6166452999996,510.6166452999996,0.6156009999999696,512.6316107999996,2.6305569000001015,None,1,decreament,0.6,21,standard,None,100,,,,,,,m,35,235,fr,r,0,raw,2023-04-13_08h56.58.722,oddball,2022.2.5,59.96210395029002,
10,,,,,0,0,0,2,4,0,4,0,5,0,5,0,,,,,,,,,,,,,,,,,512.6481593999997,513.2309737999999,513.2309737999999,513.8304977999996,513.8304977999996,0.6156112999997276,515.8453691999998,2.6304528999999093,None,1,decreament,0.6,21,standard,None,100,,,,,,,m,35,235,fr,r,0,raw,2023-04-13_08h56.58.722,oddball,2022.2.5,59.96210395029002,
10,,,,,0,0,0,2,4,0,4,0,6,0,6,0,,,,,,,,,,,,,,,,,515.8621940999997,516.7782018999997,516.7782018999997,517.3775947999998,517.3775947999998,0.6151318000001993,519.3924441999998,2.6299496999999974,None,1,decreament,0.6,21,standard,None,100,,,,,,,m,35,235,fr,r,0,raw,2023-04-13_08h56.58.722,oddball,2022.2.5,59.96210395029002,
10,,,,,0,0,0,2,4,0,4,0,7,0,7,0,,,,,,,,,,,,,,,,,519.4091175999997,520.1253523,520.1253523,520.7250433999998,520.7250433999998,0.6153497999998763,522.7396138999998,2.629877100000158,None,1,decreament,0.6,21,standard,None,100,,,,,,,m,35,235,fr,r,0,raw,2023-04-13_08h56.58.722,oddball,2022.2.5,59.96210395029002,
10,,,,,0,0,0,2,4,0,4,0,8,0,8,0,,,,,,,,,,,,,,,,,522.7563507999998,523.4225521999997,523.4225521999997,524.0221572999999,524.0221572999999,0.6154403000000457,526.0368237999996,2.6300765999999385,None,1,decreament,0.6,21,standard,None,100,,,,,,,m,35,235,fr,r,0,raw,2023-04-13_08h56.58.722,oddball,2022.2.5,59.96210395029002,
10,,,,,0,0,0,2,4,0,4,0,9,0,9,0,,,,,,,,,,,,,,,,,526.0535832999999,526.7362490999999,526.7362490999999,527.3357953,527.3357953,0.6153528999998343,529.3507774,2.6303429999998116,None,1,decreament,0.6,21,standard,None,100,,,,,,,m,35,235,fr,r,0,raw,2023-04-13_08h56.58.722,oddball,2022.2.5,59.96210395029002,
10,,,,,0,0,0,2,4,0,4,0,10,0,10,0,,,,,,,,,,,,,,,,,529.3675227999997,530.1335313999998,530.1335313999998,530.7327536999996,530.7327536999996,0.6152568000002248,532.7480373999997,2.630539299999782,j,0,decreament,0.6,21,standard,None,100,1.2262329999998656,,,,,,m,35,235,fr,r,0,raw,2023-04-13_08h56.58.722,oddball,2022.2.5,59.96210395029002,
10,,,,,0,0,0,2,4,0,4,0,11,0,11,0,,,,,,,,,,,,,,,,,532.7645450999999,533.4640893999999,533.4640893999999,534.0634605999999,534.0634605999999,0.6155674999999974,536.0782660999998,2.6303453000000445,None,1,decreament,0.6,21,standard,None,100,,,,,,,m,35,235,fr,r,0,raw,2023-04-13_08h56.58.722,oddball,2022.2.5,59.96210395029002,
10,,,,,0,0,0,2,4,0,4,0,12,0,12,0,,,,,,,,,,,,,,,,,536.0954176999999,536.6613828999998,536.6613828999998,537.2608612999998,537.2608612999998,0.6154516999999942,539.2758199,2.630549599999995,None,1,decreament,0.6,21,standard,None,100,,,,,,,m,35,235,fr,r,0,raw,2023-04-13_08h56.58.722,oddball,2022.2.5,59.96210395029002,
10,,,,,0,0,0,2,4,0,4,0,13,0,13,0,,,,,,,,,,,,,,,,,539.2924186999999,539.9585393999996,539.9585393999996,540.4246392,540.4415217999999,0.4817686000001231,542.4397127999996,2.496841499999846,j,1,decreament,0.48,24,oddball,j,80,0.4269237999997131,,,,,,m,35,235,fr,r,0,raw,2023-04-13_08h56.58.722,oddball,2022.2.5,59.96210395029002,
10,,,,,0,0,0,2,4,0,4,0,14,0,14,0,,,,,,,,,,,,,,,,,542.4567238,543.2390513999999,543.2390513999999,543.8385607,543.8385607,0.6151337000001149,545.8535434,2.630088700000215,None,1,decreament,0.6,21,standard,None,100,,,,,,,m,35,235,fr,r,0,raw,2023-04-13_08h56.58.722,oddball,2022.2.5,59.96210395029002,
10,,,,,0,0,0,2,4,0,4,0,15,0,15,0,,,,,,,,,,,,,,,,,545.8701741999998,546.5696832999997,546.5696832999997,547.1689498999999,547.1689498999999,0.614977799999906,549.1840946999996,2.6301072000001113,None,1,decreament,0.6,21,standard,None,100,,,,,,,m,35,235,fr,r,0,raw,2023-04-13_08h56.58.722,oddball,2022.2.5,59.96210395029002,
10,,,,,0,0,0,2,4,0,4,0,16,0,16,0,,,,,,,,,,,,,,,,,549.2008053999998,549.7167878999999,549.7167878999999,550.3164348,550.3164348,0.6152202000002944,552.3314399999999,2.6302279999999882,None,1,decreament,0.6,21,standard,None,100,,,,,,,m,35,235,fr,r,0,raw,2023-04-13_08h56.58.722,oddball,2022.2.5,59.96210395029002,
10,,,,,0,0,0,2,4,0,4,0,17,0,17,0,,,,,,,,,,,,,,,,,552.3481622999998,552.9310094999996,552.9310094999996,553.5306243,553.5306243,0.6156666000001678,555.5455932999998,2.630619300000035,j,0,decreament,0.6,21,standard,None,100,1.0872749000000113,,,,,,m,35,235,fr,r,0,raw,2023-04-13_08h56.58.722,oddball,2022.2.5,59.96210395029002,
10,,,,,0,0,0,2,4,0,4,0,18,0,18,0,,,,,,,,,,,,,,,,,555.5620001999996,556.2781213999997,556.2781213999997,556.8777471999997,556.8777471999997,0.6153819999999541,558.8925999999997,2.6302084999997533,None,1,decreament,0.6,21,standard,None,100,,,,,,,m,35,235,fr,r,0,raw,2023-04-13_08h56.58.722,oddball,2022.2.5,59.96210395029002,
10,,,,,0,0,0,2,4,0,4,0,19,0,19,0,,,,,,,,,,,,,,,,,558.9092464,559.5252988999996,559.5252988999996,560.1083080999997,560.1249324999999,0.599133200000324,562.1232253999997,2.614023999999972,None,1,decreament,0.6,21,standard,None,100,,,,,,,m,35,235,fr,r,0,raw,2023-04-13_08h56.58.722,oddball,2022.2.5,59.96210395029002,
10,,,,,0,0,0,2,4,0,4,0,20,0,20,0,,,,,,,,,,,,,,,,,562.1399956999999,562.8560040999996,562.8560040999996,563.2054177999999,563.2223187999998,0.3651169999998274,565.2205169999997,2.380206100000123,j,1,decreament,0.36,23,oddball,j,60,1.0731916999998248,,,,,,m,35,235,fr,r,0,raw,2023-04-13_08h56.58.722,oddball,2022.2.5,59.96210395029002,
10,,,,,0,0,0,2,4,0,4,0,21,0,21,0,,,,,,,,,,,,,,,,,565.2371718999998,565.8867977,565.8867977,566.4862702999999,566.4862702999999,0.6154759999999442,568.5011546999999,2.6303760000000693,j,0,decreament,0.6,21,standard,None,100,0.5236371999999392,,,,,,m,35,235,fr,r,0,raw,2023-04-13_08h56.58.722,oddball,2022.2.5,59.96210395029002,
10,,,,,0,0,0,2,4,0,4,0,22,0,22,0,,,,,,,,,,,,,,,,,568.5179387999997,569.1839233999999,569.1839233999999,569.7834586999998,569.7834586999998,0.5990947000000233,571.7984045999997,2.6140722000000096,None,1,decreament,0.6,21,standard,None,100,,,,,,,m,35,235,fr,r,0,raw,2023-04-13_08h56.58.722,oddball,2022.2.5,59.96210395029002,
10,,,,,0,0,0,2,4,0,4,0,23,0,23,0,,,,,,,,,,,,,,,,,571.7984045999997,572.4977350999998,572.4977350999998,573.0973291,573.0973291,0.6155244000001403,575.1123447999998,2.630532900000162,None,1,decreament,0.6,21,standard,None,100,,,,,,,m,35,235,fr,r,0,raw,2023-04-13_08h56.58.722,oddball,2022.2.5,59.96210395029002,
10,,,,,0,0,0,2,4,0,4,0,24,0,24,0,,,,,,,,,,,,,,,,,575.1288522,575.7450644999999,575.7450644999999,576.3446417,576.3446417,0.6153949999998076,578.3595272999996,2.6302662999996755,None,1,decreament,0.6,21,standard,None,100,,,,,,,m,35,235,fr,r,0,raw,2023-04-13_08h56.58.722,oddball,2022.2.5,59.96210395029002,
10,,,,,0,0,0,2,4,0,4,0,25,0,25,0,,,,,,,,,,,,,,,,,578.3762007,578.9424643999996,578.9424643999996,579.5418476999998,579.5418476999998,0.6151819000001524,581.5569784999998,2.6303063000000293,None,1,decreament,0.6,21,standard,None,100,,,,,,,m,35,235,fr,r,0,raw,2023-04-13_08h56.58.722,oddball,2022.2.5,59.96210395029002,
10,,,,,0,0,0,2,4,0,4,0,26,0,26,0,,,,,,,,,,,,,,,,,581.5735453999996,582.2063666999998,582.2063666999998,582.8061008999998,582.8061008999998,0.5991297000000486,584.8208783999999,2.6137433999997484,j,0,decreament,0.6,21,standard,None,100,0.6264946000001146,,,,,,m,35,235,fr,r,0,raw,2023-04-13_08h56.58.722,oddball,2022.2.5,59.96210395029002,
10,,,,,0,0,0,2,4,0,4,0,27,0,27,0,,,,,,,,,,,,,,,,,584.8208783999999,585.3538289999997,585.3538289999997,585.5869598999998,585.6034913999997,0.24899579999964772,587.6017717,2.263796799999909,j,1,decreament,0.24,22,oddball,j,40,0.4889162999998007,,,,,,m,35,235,fr,r,0,raw,2023-04-13_08h56.58.722,oddball,2022.2.5,59.96210395029002,
10,,,,,0,0,0,2,4,0,4,0,28,0,28,0,,,,,,,,,,,,,,,,,587.6185378999999,588.2680181999999,588.2680181999999,588.8674253999998,588.8674253999998,0.615232399999968,590.8823442999997,2.6301297999998496,None,1,decreament,0.6,21,standard,None,100,,,,,,,m,35,235,fr,r,0,raw,2023-04-13_08h56.58.722,oddball,2022.2.5,59.96210395029002,
10,,,,,0,0,0,2,4,0,4,0,29,0,29,0,,,,,,,,,,,,,,,,,590.8989379999998,591.4152400999997,591.4152400999997,592.0147754999998,592.0147754999998,0.6154867000000195,594.0296109999999,2.6303075000000717,None,1,decreament,0.6,21,standard,None,100,,,,,,,m,35,235,fr,r,0,raw,2023-04-13_08h56.58.722,oddball,2022.2.5,59.96210395029002,
10,,,,,0,0,0,2,5,0,5,0,0,0,0,0,,,,,,,,,,,,,,,606.5026300999998,606.5026300999998,608.2676603999998,608.8840693999996,608.8840693999996,609.4835303,609.4835303,0.6156631999997444,611.4983401999998,2.6304519999998774,None,1,increament,0.6,25,standard,None,100,,594.0463983999998,0.0007636999998794636,,,,m,35,235,fr,r,0,raw,2023-04-13_08h56.58.722,oddball,2022.2.5,59.96210395029002,
10,,,,,0,0,0,2,5,0,5,0,1,0,1,0,,,,,,,,,,,,,,,,,611.5149835999996,612.2311553999998,612.2311553999998,612.8305329999998,612.8305329999998,0.6153923000001669,614.8456242999996,2.630493699999988,None,1,increament,0.6,25,standard,None,100,,,,,,,m,35,235,fr,r,0,raw,2023-04-13_08h56.58.722,oddball,2022.2.5,59.96210395029002,
10,,,,,0,0,0,2,5,0,5,0,2,0,2,0,,,,,,,,,,,,,,,,,614.8620532,615.5616345999997,615.5616345999997,616.1611101999997,616.1611101999997,0.6153355999999803,618.1759939999997,2.630196999999953,None,1,increament,0.6,25,standard,None,100,,,,,,,m,35,235,fr,r,0,raw,2023-04-13_08h56.58.722,oddball,2022.2.5,59.96210395029002,
10,,,,,0,0,0,2,5,0,5,0,3,0,3,0,,,,,,,,,,,,,,,,,618.1928294999998,619.0086493999997,619.0086493999997,619.6083110999998,619.6083110999998,0.5990334000002804,621.6230919,2.613810900000317,None,1,increament,0.6,25,standard,None,100,,,,,,,m,35,235,fr,r,0,raw,2023-04-13_08h56.58.722,oddball,2022.2.5,59.96210395029002,
10,,,,,0,0,0,2,5,0,5,0,4,0,4,0,,,,,,,,,,,,,,,,,621.6230919,622.2894670999999,622.2894670999999,622.8721363999998,622.8887273999999,0.6154776999997011,624.8872331999996,2.630337199999758,None,1,increament,0.6,25,standard,None,100,,,,,,,m,35,235,fr,r,0,raw,2023-04-13_08h56.58.722,oddball,2022.2.5,59.96210395029002,
10,,,,,0,0,0,2,5,0,5,0,5,0,5,0,,,,,,,,,,,,,,,,,624.9204018999999,625.5530790999996,625.5530790999996,626.2693836999997,626.2859184999998,0.7317171999998209,628.2843172999997,2.7466630999997506,j,1,increament,0.72,26,oddball,j,120,0.5832489999997961,,,,,,m,35,235,fr,r,0,raw,2023-04-13_08h56.58.722,oddball,2022.2.5,59.96210395029002,
10,,,,,0,0,0,2,5,0,5,0,6,0,6,0,,,,,,,,,,,,,,,,,628.300929,629.1169998999999,629.1169998999999,629.7165918999999,629.7165918999999,0.615641300000334,631.7312924999997,2.6303132000002734,None,1,increament,0.6,25,standard,None,100,,,,,,,m,35,235,fr,r,0,raw,2023-04-13_08h56.58.722,oddball,2022.2.5,59.96210395029002,
10,,,,,0,0,0,2,5,0,5,0,7,0,7,0,,,,,,,,,,,,,,,,,631.7479908,632.5306357999998,632.5306357999998,633.1302109999997,633.1302109999997,0.6151453999996193,635.1450891999998,2.6300396999999975,None,1,increament,0.6,25,standard,None,100,,,,,,,m,35,235,fr,r,0,raw,2023-04-13_08h56.58.722,oddball,2022.2.5,59.96210395029002,
10,,,,,0,0,0,2,5,0,5,0,8,0,8,0,,,,,,,,,,,,,,,,,635.1618939999998,635.7614107999998,635.7614107999998,636.3606455999998,636.3606455999998,0.5990606999998818,638.3758817999997,2.614045199999964,None,1,increament,0.6,25,standard,None,100,,,,,,,m,35,235,fr,r,0,raw,2023-04-13_08h56.58.722,oddball,2022.2.5,59.96210395029002,
10,,,,,0,0,0,2,5,0,5,0,9,0,9,0,,,,,,,,,,,,,,,,,638.3758817999997,639.1084655,639.1084655,639.7080277999999,639.7080277999999,0.6153150000000096,641.7229975999999,2.630241599999863,None,1,increament,0.6,25,standard,None,100,,,,,,,m,35,235,fr,r,0,raw,2023-04-13_08h56.58.722,oddball,2022.2.5,59.96210395029002,
10,,,,,0,0,0,2,5,0,5,0,10,0,10,0,,,,,,,,,,,,,,,,,641.7395452999999,642.6388142999999,642.6388142999999,643.2382294999998,643.2382294999998,0.6152648999996018,645.2532729999998,2.6302903999999216,None,1,increament,0.6,25,standard,None,100,,,,,,,m,35,235,fr,r,0,raw,2023-04-13_08h56.58.722,oddball,2022.2.5,59.96210395029002,
10,,,,,0,0,0,2,5,0,5,0,11,0,11,0,,,,,,,,,,,,,,,,,645.2700250999997,645.8859955999997,645.8859955999997,646.4856465999997,646.4856465999997,0.6150971000001846,648.5009126,2.6303375000002234,j,0,increament,0.6,25,standard,None,100,0.4960652999998274,,,,,,m,35,235,fr,r,0,raw,2023-04-13_08h56.58.722,oddball,2022.2.5,59.96210395029002,
10,,,,,0,0,0,2,5,0,5,0,12,0,12,0,,,,,,,,,,,,,,,,,648.5172233999997,649.1836095999997,649.1836095999997,650.0159884999998,650.0325393999997,0.8487593999998353,652.0308474999997,2.863618999999744,None,0,increament,0.84,27,oddball,j,140,,,,,,,m,35,235,fr,r,0,raw,2023-04-13_08h56.58.722,oddball,2022.2.5,59.96210395029002,
10,,,,,0,0,0,2,5,0,5,0,13,0,13,0,,,,,,,,,,,,,,,,,652.0474861999996,652.7136796,652.7136796,653.3131853,653.3131853,0.6153113000000303,655.3280531999999,2.6301815000001625,None,1,increament,0.6,25,standard,None,100,,,,,,,m,35,235,fr,r,0,raw,2023-04-13_08h56.58.722,oddball,2022.2.5,59.96210395029002,
10,,,,,0,0,0,2,5,0,5,0,14,0,14,0,,,,,,,,,,,,,,,,,655.3448294999998,656.0612289999999,656.0612289999999,656.6602598,656.6602598,0.6154396000001725,658.6752488999996,2.630420800000138,None,1,increament,0.6,25,standard,None,100,,,,,,,m,35,235,fr,r,0,raw,2023-04-13_08h56.58.722,oddball,2022.2.5,59.96210395029002,
10,,,,,0,0,0,2,5,0,5,0,15,0,15,0,,,,,,,,,,,,,,,,,658.6924856999999,659.3747091999999,659.3747091999999,659.9740353999996,659.9740353999996,0.6151927000000796,661.9891235999999,2.6302864999997837,None,1,increament,0.6,25,standard,None,100,,,,,,,m,35,235,fr,r,0,raw,2023-04-13_08h56.58.722,oddball,2022.2.5,59.96210395029002,
10,,,,,0,0,0,2,5,0,5,0,16,0,16,0,,,,,,,,,,,,,,,,,662.0059825999997,662.7218276999997,662.7218276999997,663.3218021999996,663.3218021999996,0.615527700000257,665.3364087999998,2.630142599999999,j,0,increament,0.6,25,standard,None,100,0.3447430000001077,,,,,,m,35,235,fr,r,0,raw,2023-04-13_08h56.58.722,oddball,2022.2.5,59.96210395029002,
10,,,,,0,0,0,2,5,0,5,0,17,0,17,0,,,,,,,,,,,,,,,,,665.3530785999997,666.1358191999998,666.1358191999998,666.7351672,666.7351672,0.6152554999998756,668.7501600999999,2.6302377000001798,None,1,increament,0.6,25,standard,None,100,,,,,,,m,35,235,fr,r,0,raw,2023-04-13_08h56.58.722,oddball,2022.2.5,59.96210395029002,
10,,,,,0,0,0,2,5,0,5,0,18,0,18,0,,,,,,,,,,,,,,,,,668.7667781,669.3164201999998,669.3164201999998,669.9158883,669.9158883,0.6156482999999753,671.9308502999997,2.6306211999999505,None,1,increament,0.6,25,standard,None,100,,,,,,,m,35,235,fr,r,0,raw,2023-04-13_08h56.58.722,oddball,2022.2.5,59.96210395029002,
10,,,,,0,0,0,2,5,0,5,0,19,0,19,0,,,,,,,,,,,,,,,,,671.9476136999997,672.8132996999998,672.8132996999998,673.4127334,673.4127334,0.599118499999804,675.4277936999997,2.614064800000051,j,0,increament,0.6,25,standard,None,100,0.38311439999961294,,,,,,m,35,235,fr,r,0,raw,2023-04-13_08h56.58.722,oddball,2022.2.5,59.96210395029002,
10,,,,,0,0,0,2,5,0,5,0,20,0,20,0,,,,,,,,,,,,,,,,,675.4277936999997,676.1439591999997,676.1439591999997,676.7438809999999,676.7438809999999,0.5990984999998545,678.7583878999999,2.6141747000001487,None,1,increament,0.6,25,standard,None,100,,,,,,,m,35,235,fr,r,0,raw,2023-04-13_08h56.58.722,oddball,2022.2.5,59.96210395029002,
10,,,,,0,0,0,2,5,0,5,0,21,0,21,0,,,,,,,,,,,,,,,,,678.7583878999999,679.4245944999998,679.4245944999998,680.0240264999998,680.0240264999998,0.61523249999982,682.0391424999998,2.6303603999999723,None,1,increament,0.6,25,standard,None,100,,,,,,,m,35,235,fr,r,0,raw,2023-04-13_08h56.58.722,oddball,2022.2.5,59.96210395029002,
10,,,,,0,0,0,2,5,0,5,0,22,0,22,0,,,,,,,,,,,,,,,,,682.0557027,682.7051308999999,682.7051308999999,683.3046660999998,683.3046660999998,0.6151824999997189,685.3196783999997,2.630181199999697,None,1,increament,0.6,25,standard,None,100,,,,,,,m,35,235,fr,r,0,raw,2023-04-13_08h56.58.722,oddball,2022.2.5,59.96210395029002,
10,,,,,0,0,0,2,5,0,5,0,23,0,23,0,,,,,,,,,,,,,,,,,685.3363671999996,685.9189925999999,685.9189925999999,686.5185376999998,686.5185376999998,0.615401699999893,688.5336384999996,2.630478099999891,None,1,increament,0.6,25,standard,None,100,,,,,,,m,35,235,fr,r,0,raw,2023-04-13_08h56.58.722,oddball,2022.2.5,59.96210395029002,
10,,,,,0,0,0,2,5,0,5,0,24,0,24,0,,,,,,,,,,,,,,,,,688.5501859999999,689.3329016999996,689.3329016999996,689.9158688999996,689.9324979999997,0.5991712999998526,691.9306634,2.6139620999997533,None,1,increament,0.6,25,standard,None,100,,,,,,,m,35,235,fr,r,0,raw,2023-04-13_08h56.58.722,oddball,2022.2.5,59.96210395029002,
10,,,,,0,0,0,2,5,0,5,0,25,0,25,0,,,,,,,,,,,,,,,,,691.9473106,692.6302283,692.6302283,693.2297150999998,693.2297150999998,0.6152631999998448,695.2444267999999,2.629961000000094,None,1,increament,0.6,25,standard,None,100,,,,,,,m,35,235,fr,r,0,raw,2023-04-13_08h56.58.722,oddball,2022.2.5,59.96210395029002,
10,,,,,0,0,0,2,5,0,5,0,26,0,26,0,,,,,,,,,,,,,,,,,695.2612384999998,695.9940187999996,695.9940187999996,696.5934373,696.5934373,0.6151974999997947,698.6084644999996,2.630214899999828,None,1,increament,0.6,25,standard,None,100,,,,,,,m,35,235,fr,r,0,raw,2023-04-13_08h56.58.722,oddball,2022.2.5,59.96210395029002,
10,,,,,0,0,0,2,5,0,5,0,27,0,27,0,,,,,,,,,,,,,,,,,698.6251005999998,699.1414132999998,699.1414132999998,699.7409089999996,699.7409089999996,0.6156409999998687,701.7556910999997,2.630409200000031,None,1,increament,0.6,25,standard,None,100,,,,,,,m,35,235,fr,r,0,raw,2023-04-13_08h56.58.722,oddball,2022.2.5,59.96210395029002,
10,,,,,0,0,0,2,5,0,5,0,28,0,28,0,,,,,,,,,,,,,,,,,701.7725308999998,702.3385833999996,702.3385833999996,703.2876864,703.3042415,0.9644622999999228,705.3027958999996,2.979592899999716,j,1,increament,0.96,28,oddball,j,160,0.33802049999985684,,,,,,m,35,235,fr,r,0,raw,2023-04-13_08h56.58.722,oddball,2022.2.5,59.96210395029002,
10,,,,,0,0,0,2,5,0,5,0,29,0,29,0,,,,,,,,,,,,,,,,,705.3196533999999,706.0523224999997,706.0523224999997,706.6515878,706.6515878,0.6155385000001843,708.6667518999998,2.6307182999998986,None,1,increament,0.6,25,standard,None,100,,,,,,,m,35,235,fr,r,0,raw,2023-04-13_08h56.58.722,oddball,2022.2.5,59.96210395029002,
10,,,,,0,0,0,2,6,0,6,0,0,0,0,0,,,,,,,,,,,,,,,720.7563384999999,720.7563384999999,722.7546505,723.5208212999996,723.5208212999996,724.1203088999996,724.1203088999996,0.6152009000002181,726.1353547999997,2.630246200000329,None,1,decreament,0.6,21,standard,None,100,,708.683117,0.000715199999831384,,,,m,35,235,fr,r,0,raw,2023-04-13_08h56.58.722,oddball,2022.2.5,59.96210395029002,
10,,,,,0,0,0,2,6,0,6,0,1,0,1,0,,,,,,,,,,,,,,,,,726.1519423,726.7016011999999,726.7016011999999,727.3009557999999,727.3009557999999,0.6151152000002185,729.3158777999997,2.630029800000102,None,1,decreament,0.6,21,standard,None,100,,,,,,,m,35,235,fr,r,0,raw,2023-04-13_08h56.58.722,oddball,2022.2.5,59.96210395029002,
10,,,,,0,0,0,2,6,0,6,0,2,0,2,0,,,,,,,,,,,,,,,,,729.3325295,730.1486237999998,730.1486237999998,730.7480836,730.7480836,0.6151396000000204,732.7630154999997,2.6300475000002734,None,1,decreament,0.6,21,standard,None,100,,,,,,,m,35,235,fr,r,0,raw,2023-04-13_08h56.58.722,oddball,2022.2.5,59.96210395029002,
10,,,,,0,0,0,2,6,0,6,0,3,0,3,0,,,,,,,,,,,,,,,,,732.7797335999999,733.3957439999999,733.3957439999999,733.9954508999999,733.9954508999999,0.6157772999999906,736.0102287,2.630541600000015,None,1,decreament,0.6,21,standard,None,100,,,,,,,m,35,235,fr,r,0,raw,2023-04-13_08h56.58.722,oddball,2022.2.5,59.96210395029002,
10,,,,,0,0,0,2,6,0,6,0,4,0,4,0,,,,,,,,,,,,,,,,,736.0269582999999,736.8595818999997,736.8595818999997,737.4590412999996,737.4590412999996,0.6153524000001198,739.4739268999997,2.6302381000000423,None,1,decreament,0.6,21,standard,None,100,,,,,,,m,35,235,fr,r,0,raw,2023-04-13_08h56.58.722,oddball,2022.2.5,59.96210395029002,
10,,,,,0,0,0,2,6,0,6,0,5,0,5,0,,,,,,,,,,,,,,,,,739.4906291999996,740.0735061,740.0735061,740.6732445999996,740.6732445999996,0.6158704999998008,742.6881618999996,2.630775900000117,None,1,decreament,0.6,21,standard,None,100,,,,,,,m,35,235,fr,r,0,raw,2023-04-13_08h56.58.722,oddball,2022.2.5,59.96210395029002,
10,,,,,0,0,0,2,6,0,6,0,6,0,6,0,,,,,,,,,,,,,,,,,742.7046161999997,743.3042885999998,743.3042885999998,743.9036118999998,743.9036118999998,0.6153554000002259,745.9186256999997,2.6303741000001537,None,1,decreament,0.6,21,standard,None,100,,,,,,,m,35,235,fr,r,0,raw,2023-04-13_08h56.58.722,oddball,2022.2.5,59.96210395029002,
10,,,,,0,0,0,2,6,0,6,0,7,0,7,0,,,,,,,,,,,,,,,,,745.9352572999996,746.6016003999998,746.6016003999998,747.1840923999998,747.2008794999997,0.6153971999997339,749.1992507999998,2.630336599999737,None,1,decreament,0.6,21,standard,None,100,,,,,,,m,35,235,fr,r,0,raw,2023-04-13_08h56.58.722,oddball,2022.2.5,59.96210395029002,
10,,,,,0,0,0,2,6,0,6,0,8,0,8,0,,,,,,,,,,,,,,,,,749.2326022999996,749.9320379999999,749.9320379999999,750.5314034999997,750.5314034999997,0.6155069000001276,752.5463331999999,2.6304229000002124,None,1,decreament,0.6,21,standard,None,100,,,,,,,m,35,235,fr,r,0,raw,2023-04-13_08h56.58.722,oddball,2022.2.5,59.96210395029002,
10,,,,,0,0,0,2,6,0,6,0,9,0,9,0,,,,,,,,,,,,,,,,,752.5631002999999,753.1459330999996,753.1459330999996,753.4959018999998,753.5120436999996,0.3653646999996454,755.5105922999996,2.380068499999652,j,1,decreament,0.36,23,oddball,j,60,0.4194561000003887,,,,,,m,35,235,fr,r,0,raw,2023-04-13_08h56.58.722,oddball,2022.2.5,59.96210395029002,
10,,,,,0,0,0,2,6,0,6,0,10,0,10,0,,,,,,,,,,,,,,,,,755.5271791999999,756.2098245999996,756.2098245999996,756.8095232999999,756.8095232999999,0.6156651999999667,758.8244709999999,2.6305836000001364,None,1,decreament,0.6,21,standard,None,100,,,,,,,m,35,235,fr,r,0,raw,2023-04-13_08h56.58.722,oddball,2022.2.5,59.96210395029002,
10,,,,,0,0,0,2,6,0,6,0,11,0,11,0,,,,,,,,,,,,,,,,,758.8410851999997,759.4404698999997,759.4404698999997,760.040125,760.040125,0.6152659999997923,762.0550116999998,2.630114799999774,None,1,decreament,0.6,21,standard,None,100,,,,,,,m,35,235,fr,r,0,raw,2023-04-13_08h56.58.722,oddball,2022.2.5,59.96210395029002,
10,,,,,0,0,0,2,6,0,6,0,12,0,12,0,,,,,,,,,,,,,,,,,762.0719887,762.7045362999997,762.7045362999997,763.3038786999996,763.3038786999996,0.5990478999997322,765.3193839999999,2.614016999999876,None,1,decreament,0.6,21,standard,None,100,,,,,,,m,35,235,fr,r,0,raw,2023-04-13_08h56.58.722,oddball,2022.2.5,59.96210395029002,
10,,,,,0,0,0,2,6,0,6,0,13,0,13,0,,,,,,,,,,,,,,,,,765.3193839999999,766.0016662999997,766.0016662999997,766.6010859999997,766.6010859999997,0.615345399999569,768.6159611999997,2.6302842000000055,None,1,decreament,0.6,21,standard,None,100,,,,,,,m,35,235,fr,r,0,raw,2023-04-13_08h56.58.722,oddball,2022.2.5,59.96210395029002,
10,,,,,0,0,0,2,6,0,6,0,14,0,14,0,,,,,,,,,,,,,,,,,768.6328374999998,769.4156008,769.4156008,770.0149939999997,770.0149939999997,0.6155314000002363,772.0300557999999,2.6305937000001904,j,0,decreament,0.6,21,standard,None,100,0.39077229999975316,,,,,,m,35,235,fr,r,0,raw,2023-04-13_08h56.58.722,oddball,2022.2.5,59.96210395029002,
10,,,,,0,0,0,2,6,0,6,0,15,0,15,0,,,,,,,,,,,,,,,,,772.0466858999998,772.6461445,772.6461445,773.1124404999996,773.1292712,0.48201590000007855,775.1272297999999,2.4967979000002742,j,1,decreament,0.48,24,oddball,j,80,1.068792499999745,,,,,,m,35,235,fr,r,0,raw,2023-04-13_08h56.58.722,oddball,2022.2.5,59.96210395029002,
10,,,,,0,0,0,2,6,0,6,0,16,0,16,0,,,,,,,,,,,,,,,,,775.1440514999999,775.7603093999996,775.7603093999996,776.3595720999997,776.3595720999997,0.6152729999998883,778.3745354999996,2.6302279999999882,None,1,decreament,0.6,21,standard,None,100,,,,,,,m,35,235,fr,r,0,raw,2023-04-13_08h56.58.722,oddball,2022.2.5,59.96210395029002,
10,,,,,0,0,0,2,6,0,6,0,17,0,17,0,,,,,,,,,,,,,,,,,778.3919042999996,779.2738789999999,779.2738789999999,779.8732526999997,779.8732526999997,0.5990851000001385,781.8881669999996,2.6136632000002464,None,1,decreament,0.6,21,standard,None,100,,,,,,,m,35,235,fr,r,0,raw,2023-04-13_08h56.58.722,oddball,2022.2.5,59.96210395029002,
10,,,,,0,0,0,2,6,0,6,0,18,0,18,0,,,,,,,,,,,,,,,,,781.8881669999996,782.4710870999997,782.4710870999997,783.0706907999997,783.0706907999997,0.6148140999998759,785.0856734999998,2.6298078999998324,None,1,decreament,0.6,21,standard,None,100,,,,,,,m,35,235,fr,r,0,raw,2023-04-13_08h56.58.722,oddball,2022.2.5,59.96210395029002,
10,,,,,0,0,0,2,6,0,6,0,19,0,19,0,,,,,,,,,,,,,,,,,785.1023987999997,785.6684314999998,785.6684314999998,786.2679481,786.2679481,0.6151522999998633,788.2830955,2.6302921999999853,None,1,decreament,0.6,21,standard,None,100,,,,,,,m,35,235,fr,r,0,raw,2023-04-13_08h56.58.722,oddball,2022.2.5,59.96210395029002,
10,,,,,0,0,0,2,6,0,6,0,20,0,20,0,,,,,,,,,,,,,,,,,788.2995982999996,788.9656827999997,788.9656827999997,789.5651752999997,789.5651752999997,0.6151715999999396,791.5803331999996,2.630290900000091,j,0,decreament,0.6,21,standard,None,100,0.41212399999994886,,,,,,m,35,235,fr,r,0,raw,2023-04-13_08h56.58.722,oddball,2022.2.5,59.96210395029002,
10,,,,,0,0,0,2,6,0,6,0,21,0,21,0,,,,,,,,,,,,,,,,,791.5968500999998,792.2129181,792.2129181,792.8123304999999,792.8123304999999,0.6150056999999833,794.8274532,2.6300013000000035,None,1,decreament,0.6,21,standard,None,100,,,,,,,m,35,235,fr,r,0,raw,2023-04-13_08h56.58.722,oddball,2022.2.5,59.96210395029002,
10,,,,,0,0,0,2,6,0,6,0,22,0,22,0,,,,,,,,,,,,,,,,,794.8440111,795.5268312999997,795.5268312999997,796.1264761999996,796.1264761999996,0.5991133999996237,798.1413095999997,2.6139203999996425,None,1,decreament,0.6,21,standard,None,100,,,,,,,m,35,235,fr,r,0,raw,2023-04-13_08h56.58.722,oddball,2022.2.5,59.96210395029002,
10,,,,,0,0,0,2,6,0,6,0,23,0,23,0,,,,,,,,,,,,,,,,,798.1413095999997,798.7409336999999,798.7409336999999,799.3405401999999,799.3405401999999,0.6156802000000425,801.3553307999996,2.630457700000079,None,1,decreament,0.6,21,standard,None,100,,,,,,,m,35,235,fr,r,0,raw,2023-04-13_08h56.58.722,oddball,2022.2.5,59.96210395029002,
10,,,,,0,0,0,2,6,0,6,0,24,0,24,0,,,,,,,,,,,,,,,,,801.3718431999996,802.0047258999998,802.0047258999998,802.6041713,802.6041713,0.6153014999999868,804.6190908999997,2.6301910000001953,None,1,decreament,0.6,21,standard,None,100,,,,,,,m,35,235,fr,r,0,raw,2023-04-13_08h56.58.722,oddball,2022.2.5,59.96210395029002,
10,,,,,0,0,0,2,6,0,6,0,25,0,25,0,,,,,,,,,,,,,,,,,804.6357362999997,805.251882,805.251882,805.8349988,805.8514043,0.599206200000026,807.8497506999997,2.6139336000001094,j,0,decreament,0.6,21,standard,None,100,0.5272648000000117,,,,,,m,35,235,fr,r,0,raw,2023-04-13_08h56.58.722,oddball,2022.2.5,59.96210395029002,
10,,,,,0,0,0,2,6,0,6,0,26,0,26,0,,,,,,,,,,,,,,,,,807.8664326999997,808.5158458999999,808.5158458999999,809.1153480999997,809.1153480999997,0.6153326999997262,811.1305057,2.6304778999997325,None,1,decreament,0.6,21,standard,None,100,,,,,,,m,35,235,fr,r,0,raw,2023-04-13_08h56.58.722,oddball,2022.2.5,59.96210395029002,
10,,,,,0,0,0,2,6,0,6,0,27,0,27,0,,,,,,,,,,,,,,,,,811.1469899999997,811.7632156,811.7632156,811.9963153999997,812.0129527999998,0.24907289999964632,814.0114599999997,2.2642164999997476,j,1,decreament,0.24,22,oddball,j,40,0.5936303000003136,,,,,,m,35,235,fr,r,0,raw,2023-04-13_08h56.58.722,oddball,2022.2.5,59.96210395029002,
10,,,,,0,0,0,2,6,0,6,0,28,0,28,0,,,,,,,,,,,,,,,,,814.0278787999996,814.6774897,814.6774897,815.2768555999996,815.2768555999996,0.6153257999999369,817.2917378999996,2.630202199999985,None,1,decreament,0.6,21,standard,None,100,,,,,,,m,35,235,fr,r,0,raw,2023-04-13_08h56.58.722,oddball,2022.2.5,59.96210395029002,
10,,,,,0,0,0,2,6,0,6,0,29,0,29,0,,,,,,,,,,,,,,,,,817.3084357999996,818.0084352999997,818.0084352999997,818.6074627999997,818.6074627999997,0.6154089999999997,820.6224731999996,2.630414700000074,None,1,decreament,0.6,21,standard,None,100,,,,,,,m,35,235,fr,r,0,raw,2023-04-13_08h56.58.722,oddball,2022.2.5,59.96210395029002,
10,,,,,0,0,0,2,7,0,7,0,0,0,0,0,,,,,,,,,,,,,,,835.5433368999998,835.5433368999998,839.6230407999997,840.2059328999999,840.2059328999999,840.8055663999999,840.8055663999999,0.615370499999699,842.8203709999998,2.6301684999998542,None,1,increament,0.6,25,standard,None,100,,820.6391486999996,0.0007376000003205263,,,,m,35,235,fr,r,0,raw,2023-04-13_08h56.58.722,oddball,2022.2.5,59.96210395029002,
10,,,,,0,0,0,2,7,0,7,0,1,0,1,0,,,,,,,,,,,,,,,,,842.8370126999998,843.6530322999997,843.6530322999997,844.2360909999998,844.2524825999999,0.5993991999998798,846.2509179999997,2.6142178999998578,None,1,increament,0.6,25,standard,None,100,,,,,,,m,35,235,fr,r,0,raw,2023-04-13_08h56.58.722,oddball,2022.2.5,59.96210395029002,
10,,,,,0,0,0,2,7,0,7,0,2,0,2,0,,,,,,,,,,,,,,,,,846.2672929,847.0672817,847.0672817,847.6663715,847.6663715,0.6154732999998487,849.6812869,2.6303766000000905,None,1,increament,0.6,25,standard,None,100,,,,,,,m,35,235,fr,r,0,raw,2023-04-13_08h56.58.722,oddball,2022.2.5,59.96210395029002,
10,,,,,0,0,0,2,7,0,7,0,3,0,3,0,,,,,,,,,,,,,,,,,849.6981263999996,850.4307851999997,850.4307851999997,851.0301316,851.0301316,0.615220700000009,853.0453646999999,2.630448200000046,None,1,increament,0.6,25,standard,None,100,,,,,,,m,35,235,fr,r,0,raw,2023-04-13_08h56.58.722,oddball,2022.2.5,59.96210395029002,
10,,,,,0,0,0,2,7,0,7,0,4,0,4,0,,,,,,,,,,,,,,,,,853.0618150999999,853.6112826999997,853.6112826999997,854.2108338999997,854.2108338999997,0.6155305000002045,856.2257451999999,2.630425500000001,None,1,increament,0.6,25,standard,None,100,,,,,,,m,35,235,fr,r,0,raw,2023-04-13_08h56.58.722,oddball,2022.2.5,59.96210395029002,
10,,,,,0,0,0,2,7,0,7,0,5,0,5,0,,,,,,,,,,,,,,,,,856.2424247999998,856.9251924999999,856.9251924999999,857.5250406,857.5250406,0.6157858999999917,859.5397838999997,2.6305262000000766,None,1,increament,0.6,25,standard,None,100,,,,,,,m,35,235,fr,r,0,raw,2023-04-13_08h56.58.722,oddball,2022.2.5,59.96210395029002,
10,,,,,0,0,0,2,7,0,7,0,6,0,6,0,,,,,,,,,,,,,,,,,859.5562651,860.1225087999997,860.1225087999997,860.7219141999999,860.7219141999999,0.6152686000000358,862.7370474999998,2.6304070999999567,j,0,increament,0.6,25,standard,None,100,1.1157963000000564,,,,,,m,35,235,fr,r,0,raw,2023-04-13_08h56.58.722,oddball,2022.2.5,59.96210395029002,
10,,,,,0,0,0,2,7,0,7,0,7,0,7,0,,,,,,,,,,,,,,,,,862.7534833999998,863.3697505999999,863.3697505999999,863.9693373999999,863.9693373999999,0.6153269999999793,865.9843422999998,2.630315800000062,None,1,increament,0.6,25,standard,None,100,,,,,,,m,35,235,fr,r,0,raw,2023-04-13_08h56.58.722,oddball,2022.2.5,59.96210395029002,
10,,,,,0,0,0,2,7,0,7,0,8,0,8,0,,,,,,,,,,,,,,,,,866.0008475999998,866.6003719,866.6003719,867.1998101999998,867.1998101999998,0.6147588999997424,869.2148054999998,2.629765700000007,None,1,increament,0.6,25,standard,None,100,,,,,,,m,35,235,fr,r,0,raw,2023-04-13_08h56.58.722,oddball,2022.2.5,59.96210395029002,
10,,,,,0,0,0,2,7,0,7,0,9,0,9,0,,,,,,,,,,,,,,,,,869.2314898999998,869.9642617999998,869.9642617999998,870.5638210999996,870.5638210999996,0.6154328000002351,872.5787152999997,2.6303084999999555,None,1,increament,0.6,25,standard,None,100,,,,,,,m,35,235,fr,r,0,raw,2023-04-13_08h56.58.722,oddball,2022.2.5,59.96210395029002,
10,,,,,0,0,0,2,7,0,7,0,10,0,10,0,,,,,,,,,,,,,,,,,872.5954360999999,873.2450297,873.2450297,873.9608522999997,873.9774665,0.7319798000003175,875.9759177999999,2.7470711000000847,j,1,increament,0.72,26,oddball,j,120,0.9407510999999431,,,,,,m,35,235,fr,r,0,raw,2023-04-13_08h56.58.722,oddball,2022.2.5,59.96210395029002,
10,,,,,0,0,0,2,7,0,7,0,11,0,11,0,,,,,,,,,,,,,,,,,875.9924283,876.6585677999997,876.6585677999997,877.2582877999998,877.2582877999998,0.6156246000000465,879.2731359999998,2.630471800000123,None,1,increament,0.6,25,standard,None,100,,,,,,,m,35,235,fr,r,0,raw,2023-04-13_08h56.58.722,oddball,2022.2.5,59.96210395029002,
10,,,,,0,0,0,2,7,0,7,0,12,0,12,0,,,,,,,,,,,,,,,,,879.2900120999998,880.0392158999998,880.0392158999998,880.6385402999999,880.6385402999999,0.6152876000001015,882.6540071,2.6307542999998077,None,1,increament,0.6,25,standard,None,100,,,,,,,m,35,235,fr,r,0,raw,2023-04-13_08h56.58.722,oddball,2022.2.5,59.96210395029002,
10,,,,,0,0,0,2,7,0,7,0,13,0,13,0,,,,,,,,,,,,,,,,,882.6701211,883.3864052999998,883.3864052999998,883.9691725999996,883.9857048999997,0.6153635000000577,885.9843895999998,2.6303044999999656,j,0,increament,0.6,25,standard,None,100,1.4402635000001283,,,,,,m,35,235,fr,r,0,raw,2023-04-13_08h56.58.722,oddball,2022.2.5,59.96210395029002,
10,,,,,0,0,0,2,7,0,7,0,14,0,14,0,,,,,,,,,,,,,,,,,886.0174097999998,886.6002182999996,886.6002182999996,887.2000101999997,887.2000101999997,0.6157764999998108,889.2146770999998,2.630428699999811,None,1,increament,0.6,25,standard,None,100,,,,,,,m,35,235,fr,r,0,raw,2023-04-13_08h56.58.722,oddball,2022.2.5,59.96210395029002,
10,,,,,0,0,0,2,7,0,7,0,15,0,15,0,,,,,,,,,,,,,,,,,889.2313045999999,889.8142266999998,889.8142266999998,890.4137210999997,890.4137210999997,0.6153021000000081,892.4287864999997,2.630353500000183,None,1,increament,0.6,25,standard,None,100,,,,,,,m,35,235,fr,r,0,raw,2023-04-13_08h56.58.722,oddball,2022.2.5,59.96210395029002,
10,,,,,0,0,0,2,7,0,7,0,16,0,16,0,,,,,,,,,,,,,,,,,892.4453184999998,893.0280838999997,893.0280838999997,893.6276091999998,893.6276091999998,0.5993576000000758,895.6426852,2.6138465999997607,None,1,increament,0.6,25,standard,None,100,,,,,,,m,35,235,fr,r,0,raw,2023-04-13_08h56.58.722,oddball,2022.2.5,59.96210395029002,
10,,,,,0,0,0,2,7,0,7,0,17,0,17,0,,,,,,,,,,,,,,,,,895.6426852,896.1589117999997,896.1589117999997,896.7583024999999,896.7583024999999,0.599069800000052,898.773236,2.6141090000000986,None,1,increament,0.6,25,standard,None,100,,,,,,,m,35,235,fr,r,0,raw,2023-04-13_08h56.58.722,oddball,2022.2.5,59.96210395029002,
10,,,,,0,0,0,2,7,0,7,0,18,0,18,0,,,,,,,,,,,,,,,,,898.773236,899.3894722,899.3894722,900.3387759999996,900.3555459999998,0.9652198000003409,902.3536866999998,2.9801053000001048,j,1,increament,0.96,28,oddball,j,160,0.397584100000131,,,,,,m,35,235,fr,r,0,raw,2023-04-13_08h56.58.722,oddball,2022.2.5,59.96210395029002,
10,,,,,0,0,0,2,7,0,7,0,19,0,19,0,,,,,,,,,,,,,,,,,902.3703622999997,903.0863110999999,903.0863110999999,903.6859851999998,903.6859851999998,0.6156488000001445,905.7008205999996,2.630470999999943,None,1,increament,0.6,25,standard,None,100,,,,,,,m,35,235,fr,r,0,raw,2023-04-13_08h56.58.722,oddball,2022.2.5,59.96210395029002,
10,,,,,0,0,0,2,7,0,7,0,20,0,20,0,,,,,,,,,,,,,,,,,905.7174117999998,906.3004550999999,906.3004550999999,906.8998901999998,906.8998901999998,0.5993091999998796,908.9147383999998,2.613867599999594,None,1,increament,0.6,25,standard,None,100,,,,,,,m,35,235,fr,r,0,raw,2023-04-13_08h56.58.722,oddball,2022.2.5,59.96210395029002,
10,,,,,0,0,0,2,7,0,7,0,21,0,21,0,,,,,,,,,,,,,,,,,908.9147383999998,909.6141786999997,909.6141786999997,910.2136292,910.2136292,0.5990795999996408,912.2287314999999,2.613836099999844,None,1,increament,0.6,25,standard,None,100,,,,,,,m,35,235,fr,r,0,raw,2023-04-13_08h56.58.722,oddball,2022.2.5,59.96210395029002,
10,,,,,0,0,0,2,7,0,7,0,22,0,22,0,,,,,,,,,,,,,,,,,912.2287314999999,912.8115937999996,912.8115937999996,913.4109027999998,913.4109027999998,0.6154832000001988,915.4260540999999,2.6306266999999934,None,1,increament,0.6,25,standard,None,100,,,,,,,m,35,235,fr,r,0,raw,2023-04-13_08h56.58.722,oddball,2022.2.5,59.96210395029002,
10,,,,,0,0,0,2,7,0,7,0,23,0,23,0,,,,,,,,,,,,,,,,,915.4430702,916.242037,916.242037,916.8414574999997,916.8414574999997,0.6153177000001051,918.8564539999998,2.630297100000007,None,1,increament,0.6,25,standard,None,100,,,,,,,m,35,235,fr,r,0,raw,2023-04-13_08h56.58.722,oddball,2022.2.5,59.96210395029002,
10,,,,,0,0,0,2,7,0,7,0,24,0,24,0,,,,,,,,,,,,,,,,,918.8730206999999,919.6057225,919.6057225,920.2053713999999,920.2053713999999,0.6150228000001334,922.2207242,2.6303561999998237,None,1,increament,0.6,25,standard,None,100,,,,,,,m,35,235,fr,r,0,raw,2023-04-13_08h56.58.722,oddball,2022.2.5,59.96210395029002,
10,,,,,0,0,0,2,7,0,7,0,25,0,25,0,,,,,,,,,,,,,,,,,922.2369285,922.9197784999997,922.9197784999997,923.5194794999998,923.5194794999998,0.615530999999919,925.5341690999999,2.630195299999741,None,1,increament,0.6,25,standard,None,100,,,,,,,m,35,235,fr,r,0,raw,2023-04-13_08h56.58.722,oddball,2022.2.5,59.96210395029002,
10,,,,,0,0,0,2,7,0,7,0,26,0,26,0,,,,,,,,,,,,,,,,,925.5507671,926.1503251999998,926.1503251999998,926.7498142,926.7498142,0.6152092000002085,928.7647472999997,2.6301500000004125,j,0,increament,0.6,25,standard,None,100,0.8327060000001438,,,,,,m,35,235,fr,r,0,raw,2023-04-13_08h56.58.722,oddball,2022.2.5,59.96210395029002,
10,,,,,0,0,0,2,7,0,7,0,27,0,27,0,,,,,,,,,,,,,,,,,928.7814464999997,929.3648742,929.3648742,929.9470795999996,929.9805193999996,0.6154485000001841,931.9623570999997,2.6303689999999733,None,1,increament,0.6,25,standard,None,100,,,,,,,m,35,235,fr,r,0,raw,2023-04-13_08h56.58.722,oddball,2022.2.5,59.96210395029002,
10,,,,,0,0,0,2,7,0,7,0,28,0,28,0,,,,,,,,,,,,,,,,,931.9954547999996,932.6450622999996,932.6450622999996,933.4774668,933.4942063999997,0.8484843999999612,935.4923706,2.8633014999995794,j,1,increament,0.84,27,oddball,j,140,0.6017632999996749,,,,,,m,35,235,fr,r,0,raw,2023-04-13_08h56.58.722,oddball,2022.2.5,59.96210395029002,
10,,,,,0,0,0,2,7,0,7,0,29,0,29,0,,,,,,,,,,,,,,,,,935.5091083999996,936.1752349999997,936.1752349999997,936.7747254999999,936.7747254999999,0.6152800999998362,938.7896314,2.630189999999857,None,1,increament,0.6,25,standard,None,100,,,,,,,m,35,235,fr,r,0,raw,2023-04-13_08h56.58.722,oddball,2022.2.5,59.96210395029002,
10,,,,,0,0,0,2,8,0,8,0,0,0,0,0,,,,,,,,,,,,,,,973.0941758999998,973.0941758999998,975.575335,976.2080656999997,976.2080656999997,976.8077153999998,976.8077153999998,0.6149436999999125,978.8225390999996,2.6297644999999648,None,1,decreament,0.6,21,standard,None,100,,938.8064403999997,0.0008762999996179133,,,,m,35,235,fr,r,0,raw,2023-04-13_08h56.58.722,oddball,2022.2.5,59.96210395029002,
10,,,,,0,0,0,2,8,0,8,0,1,0,1,0,,,,,,,,,,,,,,,,,978.8396310999997,979.5721191999996,979.5721191999996,980.1549253999997,980.1715599999998,0.6156264999999621,982.1697884,2.6306134999999813,None,1,decreament,0.6,21,standard,None,100,,,,,,,m,35,235,fr,r,0,raw,2023-04-13_08h56.58.722,oddball,2022.2.5,59.96210395029002,
10,,,,,0,0,0,2,8,0,8,0,2,0,2,0,,,,,,,,,,,,,,,,,982.2031665,982.8192948999999,982.8192948999999,983.4187299999999,983.4187299999999,0.615195599999879,985.4336670999996,2.6301213000001553,None,1,decreament,0.6,21,standard,None,100,,,,,,,m,35,235,fr,r,0,raw,2023-04-13_08h56.58.722,oddball,2022.2.5,59.96210395029002,
10,,,,,0,0,0,2,8,0,8,0,3,0,3,0,,,,,,,,,,,,,,,,,985.4504631,986.1498773999997,986.1498773999997,986.7492864999999,986.7492864999999,0.6149782999996205,988.7647131999997,2.6304121999996823,None,1,decreament,0.6,21,standard,None,100,,,,,,,m,35,235,fr,r,0,raw,2023-04-13_08h56.58.722,oddball,2022.2.5,59.96210395029002,
10,,,,,0,0,0,2,8,0,8,0,4,0,4,0,,,,,,,,,,,,,,,,,988.7813825999997,989.4305190999999,989.4305190999999,990.0299894999998,990.0299894999998,0.615103199999794,992.0451461999996,2.6302640999997493,None,1,decreament,0.6,21,standard,None,100,,,,,,,m,35,235,fr,r,0,raw,2023-04-13_08h56.58.722,oddball,2022.2.5,59.96210395029002,
10,,,,,0,0,0,2,8,0,8,0,5,0,5,0,,,,,,,,,,,,,,,,,992.0615779,992.8275245,992.8275245,993.0607397999997,993.0774597999998,0.2490693999998257,995.0757166999997,2.264040699999896,j,1,decreament,0.24,22,oddball,j,40,0.5113630999999259,,,,,,m,35,235,fr,r,0,raw,2023-04-13_08h56.58.722,oddball,2022.2.5,59.96210395029002,
10,,,,,0,0,0,2,8,0,8,0,6,0,6,0,,,,,,,,,,,,,,,,,995.0922387999999,995.7085347999996,995.7085347999996,996.3080402999999,996.3080402999999,0.6153082000000722,998.3230464999997,2.6303266999998414,None,1,decreament,0.6,21,standard,None,100,,,,,,,m,35,235,fr,r,0,raw,2023-04-13_08h56.58.722,oddball,2022.2.5,59.96210395029002,
10,,,,,0,0,0,2,8,0,8,0,7,0,7,0,,,,,,,,,,,,,,,,,998.3394232999999,998.9889668999999,998.9889668999999,999.588632,999.588632,0.6151744000003418,1001.6034457999999,2.6299698000002536,j,0,decreament,0.6,21,standard,None,100,0.9770260999998754,,,,,,m,35,235,fr,r,0,raw,2023-04-13_08h56.58.722,oddball,2022.2.5,59.96210395029002,
10,,,,,0,0,0,2,8,0,8,0,8,0,8,0,,,,,,,,,,,,,,,,,1001.6202799999996,1002.3196131999998,1002.3196131999998,1002.9190675999998,1002.9190675999998,0.6155215999997381,1004.9340204999999,2.6304767000001448,None,1,decreament,0.6,21,standard,None,100,,,,,,,m,35,235,fr,r,0,raw,2023-04-13_08h56.58.722,oddball,2022.2.5,59.96210395029002,
10,,,,,0,0,0,2,8,0,8,0,9,0,9,0,,,,,,,,,,,,,,,,,1004.9506672999996,1005.599921,1005.599921,1006.1996801999999,1006.1996801999999,0.6157422000001134,1008.2151042999999,2.6311877000002823,None,1,decreament,0.6,21,standard,None,100,,,,,,,m,35,235,fr,r,0,raw,2023-04-13_08h56.58.722,oddball,2022.2.5,59.96210395029002,
10,,,,,0,0,0,2,8,0,8,0,10,0,10,0,,,,,,,,,,,,,,,,,1008.2312465999998,1008.8309181,1008.8309181,1009.296985,1009.3137299999999,0.4822871000001214,1011.3119529999999,2.4972373000000516,j,1,decreament,0.48,24,oddball,j,80,0.6932372999999643,,,,,,m,35,235,fr,r,0,raw,2023-04-13_08h56.58.722,oddball,2022.2.5,59.96210395029002,
10,,,,,0,0,0,2,8,0,8,0,11,0,11,0,,,,,,,,,,,,,,,,,1011.3286902,1012.0448706999996,1012.0448706999996,1012.6442755999997,1012.6442755999997,0.615331900000001,1014.6591780999997,2.630242300000191,None,1,decreament,0.6,21,standard,None,100,,,,,,,m,35,235,fr,r,0,raw,2023-04-13_08h56.58.722,oddball,2022.2.5,59.96210395029002,
10,,,,,0,0,0,2,8,0,8,0,12,0,12,0,,,,,,,,,,,,,,,,,1014.6760482,1015.3253055999999,1015.3253055999999,1015.9247329999998,1015.9247329999998,0.6153248000000531,1017.9396895,2.630255500000203,None,1,decreament,0.6,21,standard,None,100,,,,,,,m,35,235,fr,r,0,raw,2023-04-13_08h56.58.722,oddball,2022.2.5,59.96210395029002,
10,,,,,0,0,0,2,8,0,8,0,13,0,13,0,,,,,,,,,,,,,,,,,1017.9563877999999,1018.5559807999998,1018.5559807999998,1019.1554128999996,1019.1554128999996,0.6148582999999235,1021.1703533,2.6297921999998835,None,1,decreament,0.6,21,standard,None,100,,,,,,,m,35,235,fr,r,0,raw,2023-04-13_08h56.58.722,oddball,2022.2.5,59.96210395029002,
10,,,,,0,0,0,2,8,0,8,0,14,0,14,0,,,,,,,,,,,,,,,,,1021.1872851999997,1021.8533123999996,1021.8533123999996,1022.4526966999997,1022.4526966999997,0.6154376999998021,1024.4675241,2.6302599000000555,None,1,decreament,0.6,21,standard,None,100,,,,,,,m,35,235,fr,r,0,raw,2023-04-13_08h56.58.722,oddball,2022.2.5,59.96210395029002,
10,,,,,0,0,0,2,8,0,8,0,15,0,15,0,,,,,,,,,,,,,,,,,1024.4843716999999,1025.2003197999998,1025.2003197999998,1025.7998571999997,1025.7998571999997,0.6151593000004141,1027.8146872999996,2.6299849000001814,None,1,decreament,0.6,21,standard,None,100,,,,,,,m,35,235,fr,r,0,raw,2023-04-13_08h56.58.722,oddball,2022.2.5,59.96210395029002,
10,,,,,0,0,0,2,8,0,8,0,16,0,16,0,,,,,,,,,,,,,,,,,1027.8314560999997,1028.3809844999996,1028.3809844999996,1028.9805093999998,1028.9805093999998,0.6151684000001296,1030.995617,2.6302796999998463,j,0,decreament,0.6,21,standard,None,100,0.891185200000109,,,,,,m,35,235,fr,r,0,raw,2023-04-13_08h56.58.722,oddball,2022.2.5,59.96210395029002,
10,,,,,0,0,0,2,8,0,8,0,17,0,17,0,,,,,,,,,,,,,,,,,1031.0120376999998,1031.6615614999996,1031.6615614999996,1032.2611067999997,1032.2611067999997,0.5991232000001219,1034.2760045999999,2.6139766000001146,None,1,decreament,0.6,21,standard,None,100,,,,,,,m,35,235,fr,r,0,raw,2023-04-13_08h56.58.722,oddball,2022.2.5,59.96210395029002,
10,,,,,0,0,0,2,8,0,8,0,18,0,18,0,,,,,,,,,,,,,,,,,1034.2760045999999,1034.8923270999999,1034.8923270999999,1035.4916481,1035.4916481,0.6152587999999923,1037.5065926999996,2.6301996999995936,j,0,decreament,0.6,21,standard,None,100,0.4495117000001301,,,,,,m,35,235,fr,r,0,raw,2023-04-13_08h56.58.722,oddball,2022.2.5,59.96210395029002,
10,,,,,0,0,0,2,8,0,8,0,19,0,19,0,,,,,,,,,,,,,,,,,1037.5232229999997,1038.1062697999996,1038.1062697999996,1038.705696,1038.705696,0.615300599999955,1040.7206013999999,2.630169300000034,None,1,decreament,0.6,21,standard,None,100,,,,,,,m,35,235,fr,r,0,raw,2023-04-13_08h56.58.722,oddball,2022.2.5,59.96210395029002,
10,,,,,0,0,0,2,8,0,8,0,20,0,20,0,,,,,,,,,,,,,,,,,1040.7372960999996,1041.4036806,1041.4036806,1042.0029482,1042.0029482,0.6151909999998679,1044.0179408,2.630171000000246,None,1,decreament,0.6,21,standard,None,100,,,,,,,m,35,235,fr,r,0,raw,2023-04-13_08h56.58.722,oddball,2022.2.5,59.96210395029002,
10,,,,,0,0,0,2,8,0,8,0,21,0,21,0,,,,,,,,,,,,,,,,,1044.0344694,1044.8005965999996,1044.8005965999996,1045.3999405,1045.3999405,0.6154021000002103,1047.4148725,2.6303186999998616,j,0,decreament,0.6,21,standard,None,100,0.4794043000001693,,,,,,m,35,235,fr,r,0,raw,2023-04-13_08h56.58.722,oddball,2022.2.5,59.96210395029002,
10,,,,,0,0,0,2,8,0,8,0,22,0,22,0,,,,,,,,,,,,,,,,,1047.4316030999998,1048.1311944,1048.1311944,1048.7304725,1048.7304725,0.6151629999999386,1050.7454940999996,2.6301934000002802,None,1,decreament,0.6,21,standard,None,100,,,,,,,m,35,235,fr,r,0,raw,2023-04-13_08h56.58.722,oddball,2022.2.5,59.96210395029002,
10,,,,,0,0,0,2,8,0,8,0,23,0,23,0,,,,,,,,,,,,,,,,,1050.7622033999996,1051.5284763999998,1051.5284763999998,1052.1277484999996,1052.1277484999996,0.61525359999996,1054.1426809,2.630196000000069,j,0,decreament,0.6,21,standard,None,100,0.8290657000002284,,,,,,m,35,235,fr,r,0,raw,2023-04-13_08h56.58.722,oddball,2022.2.5,59.96210395029002,
10,,,,,0,0,0,2,8,0,8,0,24,0,24,0,,,,,,,,,,,,,,,,,1054.1593429,1054.6921336,1054.6921336,1055.2915138999997,1055.2915138999997,0.6149774000000434,1057.3066885999997,2.6301422000001367,None,1,decreament,0.6,21,standard,None,100,,,,,,,m,35,235,fr,r,0,raw,2023-04-13_08h56.58.722,oddball,2022.2.5,59.96210395029002,
10,,,,,0,0,0,2,8,0,8,0,25,0,25,0,,,,,,,,,,,,,,,,,1057.3232734999997,1057.9729361,1057.9729361,1058.5723647,1058.5723647,0.6155172999997376,1060.5870989,2.630252500000097,None,1,decreament,0.6,21,standard,None,100,,,,,,,m,35,235,fr,r,0,raw,2023-04-13_08h56.58.722,oddball,2022.2.5,59.96210395029002,
10,,,,,0,0,0,2,8,0,8,0,26,0,26,0,,,,,,,,,,,,,,,,,1060.6038531,1061.3033563999998,1061.3033563999998,1061.6530982,1061.669817,0.36586239999996906,1063.6679897,2.380750299999818,j,1,decreament,0.36,23,oddball,j,60,0.46124630000031175,,,,,,m,35,235,fr,r,0,raw,2023-04-13_08h56.58.722,oddball,2022.2.5,59.96210395029002,
10,,,,,0,0,0,2,8,0,8,0,27,0,27,0,,,,,,,,,,,,,,,,,1063.6847281,1064.3507624,1064.3507624,1064.9504840999998,1064.9504840999998,0.6157834000000548,1066.9653288,2.630626399999983,None,1,decreament,0.6,21,standard,None,100,,,,,,,m,35,235,fr,r,0,raw,2023-04-13_08h56.58.722,oddball,2022.2.5,59.96210395029002,
10,,,,,0,0,0,2,8,0,8,0,28,0,28,0,,,,,,,,,,,,,,,,,1066.9817368,1067.6813414999997,1067.6813414999997,1068.2806259999998,1068.2806259999998,0.6153437000002668,1070.2958088999999,2.6305371000003106,None,1,decreament,0.6,21,standard,None,100,,,,,,,m,35,235,fr,r,0,raw,2023-04-13_08h56.58.722,oddball,2022.2.5,59.96210395029002,
10,,,,,0,0,0,2,8,0,8,0,29,0,29,0,,,,,,,,,,,,,,,,,1070.3123324999997,1070.9787769999998,1070.9787769999998,1071.5779656,1071.5779656,0.6150051999998141,1073.5930248999998,2.6300600999998096,j,0,decreament,0.6,21,standard,None,100,0.8223753000002034,,,,,,m,35,235,fr,r,0,raw,2023-04-13_08h56.58.722,oddball,2022.2.5,59.96210395029002,
10,,,,,0,0,0,2,9,0,9,0,0,0,0,0,,,,,,,,,,,,,,,1092.3604848,1092.3604848,1098.4719200999998,1099.1215333,1099.1215333,1099.7211373,1099.7211373,0.6155805000003056,1101.7360884,2.630520400000023,None,1,increament,0.6,25,standard,None,100,,1073.6096125,0.0011180000001331791,,,,m,35,235,fr,r,0,raw,2023-04-13_08h56.58.722,oddball,2022.2.5,59.96210395029002,
10,,,,,0,0,0,2,9,0,9,0,1,0,1,0,,,,,,,,,,,,,,,,,1101.7525299999998,1102.4023414999997,1102.4023414999997,1103.0014652,1103.0014652,0.6152297999997245,1105.0164385999997,2.6301885999996557,None,1,increament,0.6,25,standard,None,100,,,,,,,m,35,235,fr,r,0,raw,2023-04-13_08h56.58.722,oddball,2022.2.5,59.96210395029002,
10,,,,,0,0,0,2,9,0,9,0,2,0,2,0,,,,,,,,,,,,,,,,,1105.0332684,1105.5993307999997,1105.5993307999997,1106.1987704999997,1106.1987704999997,0.6152514000000338,1108.2138995,2.630360699999983,None,1,increament,0.6,25,standard,None,100,,,,,,,m,35,235,fr,r,0,raw,2023-04-13_08h56.58.722,oddball,2022.2.5,59.96210395029002,
10,,,,,0,0,0,2,9,0,9,0,3,0,3,0,,,,,,,,,,,,,,,,,1108.2305150999996,1108.9132505999996,1108.9132505999996,1109.5127092999996,1109.5127092999996,0.5991487000001143,1111.5277026999997,2.6138248000002022,None,1,increament,0.6,25,standard,None,100,,,,,,,m,35,235,fr,r,0,raw,2023-04-13_08h56.58.722,oddball,2022.2.5,59.96210395029002,
10,,,,,0,0,0,2,9,0,9,0,4,0,4,0,,,,,,,,,,,,,,,,,1111.5277026999997,1112.0940120999999,1112.0940120999999,1112.6934179999998,1112.6934179999998,0.6153463000000556,1114.7082302,2.6301134000000275,None,1,increament,0.6,25,standard,None,100,,,,,,,m,35,235,fr,r,0,raw,2023-04-13_08h56.58.722,oddball,2022.2.5,59.96210395029002,
10,,,,,0,0,0,2,9,0,9,0,5,0,5,0,,,,,,,,,,,,,,,,,1114.7251198,1115.3578782,1115.3578782,1115.9407220999997,1115.9573234999998,0.5991053000002466,1117.9555247999997,2.613837400000193,None,1,increament,0.6,25,standard,None,100,,,,,,,m,35,235,fr,r,0,raw,2023-04-13_08h56.58.722,oddball,2022.2.5,59.96210395029002,
10,,,,,0,0,0,2,9,0,9,0,6,0,6,0,,,,,,,,,,,,,,,,,1117.9721897,1118.5885080999997,1118.5885080999997,1119.5375973,1119.5543668999999,0.964737100000093,1121.5526955999999,2.979844999999841,j,1,increament,0.96,28,oddball,j,160,0.2229176999999254,,,,,,m,35,235,fr,r,0,raw,2023-04-13_08h56.58.722,oddball,2022.2.5,59.96210395029002,
10,,,,,0,0,0,2,9,0,9,0,7,0,7,0,,,,,,,,,,,,,,,,,1121.5693474999998,1122.1688497999999,1122.1688497999999,1122.7683518999997,1122.7683518999997,0.615346099999897,1124.7832104999998,2.630178899999919,None,1,increament,0.6,25,standard,None,100,,,,,,,m,35,235,fr,r,0,raw,2023-04-13_08h56.58.722,oddball,2022.2.5,59.96210395029002,
10,,,,,0,0,0,2,9,0,9,0,8,0,8,0,,,,,,,,,,,,,,,,,1124.7999268999997,1125.3829423999996,1125.3829423999996,1125.9821389999997,1125.9821389999997,0.6149959999997918,1127.9972850999998,2.630182800000057,None,1,increament,0.6,25,standard,None,100,,,,,,,m,35,235,fr,r,0,raw,2023-04-13_08h56.58.722,oddball,2022.2.5,59.96210395029002,
10,,,,,0,0,0,2,9,0,9,0,9,0,9,0,,,,,,,,,,,,,,,,,1128.0138135999996,1128.6634525,1128.6634525,1129.2629651999996,1129.2629651999996,0.615402300000369,1131.2777185,2.6301210999999967,None,1,increament,0.6,25,standard,None,100,,,,,,,m,35,235,fr,r,0,raw,2023-04-13_08h56.58.722,oddball,2022.2.5,59.96210395029002,
10,,,,,0,0,0,2,9,0,9,0,10,0,10,0,,,,,,,,,,,,,,,,,1131.2943089,1132.0108105999998,1132.0108105999998,1132.6098952999996,1132.6098952999996,0.6151277999997546,1134.624907,2.6301393999997345,None,1,increament,0.6,25,standard,None,100,,,,,,,m,35,235,fr,r,0,raw,2023-04-13_08h56.58.722,oddball,2022.2.5,59.96210395029002,
10,,,,,0,0,0,2,9,0,9,0,11,0,11,0,,,,,,,,,,,,,,,,,1134.6416025999997,1135.3078327999997,1135.3078327999997,1135.9072788999997,1135.9072788999997,0.6153223000001162,1137.9221487,2.630196900000101,None,1,increament,0.6,25,standard,None,100,,,,,,,m,35,235,fr,r,0,raw,2023-04-13_08h56.58.722,oddball,2022.2.5,59.96210395029002,
10,,,,,0,0,0,2,9,0,9,0,12,0,12,0,,,,,,,,,,,,,,,,,1137.9387869999996,1138.5715013,1138.5715013,1139.1710761,1139.1710761,0.615338999999949,1141.1862001999998,2.6304520999997294,None,1,increament,0.6,25,standard,None,100,,,,,,,m,35,235,fr,r,0,raw,2023-04-13_08h56.58.722,oddball,2022.2.5,59.96210395029002,
10,,,,,0,0,0,2,9,0,9,0,13,0,13,0,,,,,,,,,,,,,,,,,1141.202808,1141.9025957999997,1141.9025957999997,1142.5016942999996,1142.5016942999996,0.6151310999998714,1144.5165794999998,2.629989200000182,j,0,increament,0.6,25,standard,None,100,0.8465467999999419,,,,,,m,35,235,fr,r,0,raw,2023-04-13_08h56.58.722,oddball,2022.2.5,59.96210395029002,
10,,,,,0,0,0,2,9,0,9,0,14,0,14,0,,,,,,,,,,,,,,,,,1144.5332033,1145.1827666999998,1145.1827666999998,1145.8989594,1145.9156291,0.7321056000000681,1147.9136353999997,2.746746300000268,j,1,increament,0.72,26,oddball,j,120,1.7500403999997616,,,,,,m,35,235,fr,r,0,raw,2023-04-13_08h56.58.722,oddball,2022.2.5,59.96210395029002,
10,,,,,0,0,0,2,9,0,9,0,15,0,15,0,,,,,,,,,,,,,,,,,1147.9305722,1148.5299384,1148.5299384,1149.1294086999997,1149.1294086999997,0.615389900000082,1151.1445586999998,2.6305670000001555,None,1,increament,0.6,25,standard,None,100,,,,,,,m,35,235,fr,r,0,raw,2023-04-13_08h56.58.722,oddball,2022.2.5,59.96210395029002,
10,,,,,0,0,0,2,9,0,9,0,16,0,16,0,,,,,,,,,,,,,,,,,1151.1610813999996,1151.7272288999998,1151.7272288999998,1152.3266294,1152.3266294,0.5992393000001357,1154.3416086999996,2.613864100000228,None,1,increament,0.6,25,standard,None,100,,,,,,,m,35,235,fr,r,0,raw,2023-04-13_08h56.58.722,oddball,2022.2.5,59.96210395029002,
10,,,,,0,0,0,2,9,0,9,0,17,0,17,0,,,,,,,,,,,,,,,,,1154.3416086999996,1155.1243851,1155.1243851,1155.7239651,1155.7239651,0.6154627000000801,1157.7388223999997,2.63030660000004,None,1,increament,0.6,25,standard,None,100,,,,,,,m,35,235,fr,r,0,raw,2023-04-13_08h56.58.722,oddball,2022.2.5,59.96210395029002,
10,,,,,0,0,0,2,9,0,9,0,18,0,18,0,,,,,,,,,,,,,,,,,1157.7555608999996,1158.4050135999996,1158.4050135999996,1159.0043704,1159.0043704,0.6149502999996912,1161.0192588999998,2.6298204999998234,None,1,increament,0.6,25,standard,None,100,,,,,,,m,35,235,fr,r,0,raw,2023-04-13_08h56.58.722,oddball,2022.2.5,59.96210395029002,
10,,,,,0,0,0,2,9,0,9,0,19,0,19,0,,,,,,,,,,,,,,,,,1161.0360813999996,1161.6189676999998,1161.6189676999998,1162.2184088,1162.2184088,0.6151017999995929,1164.233319,2.6300019000000248,j,0,increament,0.6,25,standard,None,100,0.6940500000000611,,,,,,m,35,235,fr,r,0,raw,2023-04-13_08h56.58.722,oddball,2022.2.5,59.96210395029002,
10,,,,,0,0,0,2,9,0,9,0,20,0,20,0,,,,,,,,,,,,,,,,,1164.2499411999997,1164.9993507999998,1164.9993507999998,1165.5987806999997,1165.5987806999997,0.6153203000003487,1167.6139641,2.6304892000002837,None,1,increament,0.6,25,standard,None,100,,,,,,,m,35,235,fr,r,0,raw,2023-04-13_08h56.58.722,oddball,2022.2.5,59.96210395029002,
10,,,,,0,0,0,2,9,0,9,0,21,0,21,0,,,,,,,,,,,,,,,,,1167.6305522999996,1168.1800065999996,1168.1800065999996,1168.7795149999997,1168.7795149999997,0.6150637999999162,1170.7945836999997,2.630134300000009,None,1,increament,0.6,25,standard,None,100,,,,,,,m,35,235,fr,r,0,raw,2023-04-13_08h56.58.722,oddball,2022.2.5,59.96210395029002,
10,,,,,0,0,0,2,9,0,9,0,22,0,22,0,,,,,,,,,,,,,,,,,1170.8112847999996,1171.4440209,1171.4440209,1172.0433543999998,1172.0433543999998,0.614979299999959,1174.0585655,2.6302138000000923,None,1,increament,0.6,25,standard,None,100,,,,,,,m,35,235,fr,r,0,raw,2023-04-13_08h56.58.722,oddball,2022.2.5,59.96210395029002,
10,,,,,0,0,0,2,9,0,9,0,23,0,23,0,,,,,,,,,,,,,,,,,1174.0750835,1174.6416258999998,1174.6416258999998,1175.2407524999999,1175.2407524999999,0.6148874999998952,1177.2557626999997,2.6298765000001367,None,1,increament,0.6,25,standard,None,100,,,,,,,m,35,235,fr,r,0,raw,2023-04-13_08h56.58.722,oddball,2022.2.5,59.96210395029002,
10,,,,,0,0,0,2,9,0,9,0,24,0,24,0,,,,,,,,,,,,,,,,,1177.2723862999997,1177.8884847,1177.8884847,1178.7213709999996,1178.7377760999998,0.8483683999997993,1180.7360646999996,2.8630389999998442,j,1,increament,0.84,27,oddball,j,140,0.37105120000023817,,,,,,m,35,235,fr,r,0,raw,2023-04-13_08h56.58.722,oddball,2022.2.5,59.96210395029002,
10,,,,,0,0,0,2,9,0,9,0,25,0,25,0,,,,,,,,,,,,,,,,,1180.7529071,1181.5354568999996,1181.5354568999996,1182.1350098999997,1182.1350098999997,0.6152127999998811,1184.1497694,2.6299536000001353,None,1,increament,0.6,25,standard,None,100,,,,,,,m,35,235,fr,r,0,raw,2023-04-13_08h56.58.722,oddball,2022.2.5,59.96210395029002,
10,,,,,0,0,0,2,9,0,9,0,26,0,26,0,,,,,,,,,,,,,,,,,1184.1666523,1184.8327517999996,1184.8327517999996,1185.4321268999997,1185.4321268999997,0.6150222999999642,1187.4472719999999,2.6301750000002357,None,1,increament,0.6,25,standard,None,100,,,,,,,m,35,235,fr,r,0,raw,2023-04-13_08h56.58.722,oddball,2022.2.5,59.96210395029002,
10,,,,,0,0,0,2,9,0,9,0,27,0,27,0,,,,,,,,,,,,,,,,,1187.4639118,1188.1131897999999,1188.1131897999999,1188.6961023999997,1188.7128515999998,0.5990674999998191,1190.7113003,2.6142714999996315,None,1,increament,0.6,25,standard,None,100,,,,,,,m,35,235,fr,r,0,raw,2023-04-13_08h56.58.722,oddball,2022.2.5,59.96210395029002,
10,,,,,0,0,0,2,9,0,9,0,28,0,28,0,,,,,,,,,,,,,,,,,1190.7277199999999,1191.3772709,1191.3772709,1191.9767063999998,1191.9767063999998,0.6150504000002002,1193.9917453999997,2.6300630000000638,None,1,increament,0.6,25,standard,None,100,,,,,,,m,35,235,fr,r,0,raw,2023-04-13_08h56.58.722,oddball,2022.2.5,59.96210395029002,
10,,,,,0,0,0,2,9,0,9,0,29,0,29,0,,,,,,,,,,,,,,,,,1194.0084052999996,1194.6745317999998,1194.6745317999998,1195.2572885999998,1195.2739960999997,0.6156800999997358,1197.2721966,2.630615399999897,None,1,increament,0.6,25,standard,None,100,,,,,,,m,35,235,fr,r,0,raw,2023-04-13_08h56.58.722,oddball,2022.2.5,59.96210395029002,
0,,,,,0,1,1,0,0,0,0,0,0,0,0,0,,,,,,,,,,,,,,,1379.2690552,1379.2690552,1381.0842678,1381.7504977999997,1381.7504977999997,1382.3498516999998,1382.3498516999998,0.6153131999999459,1384.3649238999997,2.6303844999997636,None,1,decreament,0.6,1,standard,None,100,,1377.3208102999997,0.0010815999999067571,1197.3092502999998,1377.3208102999997,,m,35,235,fr,r,0,raw,2023-04-13_08h56.58.722,oddball,2022.2.5,59.96210395029002,
0,,,,,0,1,1,0,0,0,0,0,1,0,1,0,,,,,,,,,,,,,,,,,1384.3814642999996,1385.0810124,1385.0810124,1385.6804399999996,1385.6804399999996,0.6154340000002776,1387.6953595999998,2.6303603999999723,None,1,decreament,0.6,1,standard,None,100,,,,,,,m,35,235,fr,r,0,raw,2023-04-13_08h56.58.722,oddball,2022.2.5,59.96210395029002,
0,,,,,0,1,1,0,0,0,0,0,2,0,2,0,,,,,,,,,,,,,,,,,1387.7121141999996,1388.4614496,1388.4614496,1389.0607019,1389.0607019,0.6149771000000328,1391.0758591999997,2.630119100000229,j,0,decreament,0.6,1,standard,None,100,1.7294381000001522,,,,,,m,35,235,fr,r,0,raw,2023-04-13_08h56.58.722,oddball,2022.2.5,59.96210395029002,
0,,,,,0,1,1,0,0,0,0,0,3,0,3,0,,,,,,,,,,,,,,,,,1391.0925301999996,1392.008492,1392.008492,1392.6078245999997,1392.6078245999997,0.6150080000002163,1394.6229037999997,2.6301054000000477,None,1,decreament,0.6,1,standard,None,100,,,,,,,m,35,235,fr,r,0,raw,2023-04-13_08h56.58.722,oddball,2022.2.5,59.96210395029002,
0,,,,,0,1,1,0,0,0,0,0,4,0,4,0,,,,,,,,,,,,,,,,,1394.6395834,1395.2389995999997,1395.2389995999997,1395.8219078999996,1395.8385958,0.5990345000000161,1397.8369635999998,2.614068999999745,None,1,decreament,0.6,1,standard,None,100,,,,,,,m,35,235,fr,r,0,raw,2023-04-13_08h56.58.722,oddball,2022.2.5,59.96210395029002,
