grating_freq,blocks_prac.thisRepN,blocks_prac.thisTrialN,blocks_prac.thisN,blocks_prac.thisIndex,blocks.thisRepN,blocks.thisTrialN,blocks.thisN,blocks.thisIndex,repeat_freq.thisRepN,repeat_freq.thisTrialN,repeat_freq.thisN,repeat_freq.thisIndex,trials.thisRepN,trials.thisTrialN,trials.thisN,trials.thisIndex,break_loop.thisRepN,break_loop.thisTrialN,break_loop.thisN,break_loop.thisIndex,rest_loop.thisRepN,rest_loop.thisTrialN,rest_loop.thisN,rest_loop.thisIndex,instruct_prac_text.started,instruct_prac_resp.started,b_instruct_text_2_.started,b_instruct_resp_2_.started,prac_done_text.started,prac_done_resp.started,instruct_text.started,instruct_resp.started,fixation.started,fixation.stopped,grating.started,blank.started,resp.started,grating.stopped,blank.stopped,resp.stopped,resp.keys,resp.corr,direction,duration,trigger,stim_type,corr_ans,scaling,resp.rt,rest_text.started,rest_resp.started,text_2.started,text_2.stopped,thx_txt.started,gender,age,participant,language,main_hand,nBlock_prac,file_suffix,date,expName,psychopyVersion,frameRate,
20,,,,,0,0,0,3,0,0,0,0,0,0,0,0,,,,,,,,,21.26402020000387,21.26402020000387,38.91181810002308,38.91181810002308,78.94995979999658,78.94995979999658,90.3428437000257,90.3428437000257,96.39757089997875,97.13550069998018,97.13550069998018,97.6798593000276,0.6149795999517664,97.746319900034,99.69473500002641,2.6298623000038788,None,1,increament,0.6,45,standard,None,100,,,,,,,f,21,236,fr,r,0,raw,2023-04-17_09h27.50.228,oddball,2022.2.5,60.098501424270474,
20,,,,,0,0,0,3,0,0,0,0,1,0,1,0,,,,,,,,,,,,,,,,,99.71152260003146,100.27768340002513,100.27768340002513,100.87716680002632,0.6150849999976344,100.87716680002632,102.892382799997,2.6302971999975853,None,1,increament,0.6,45,standard,None,100,,,,,,,f,21,236,fr,r,0,raw,2023-04-17_09h27.50.228,oddball,2022.2.5,60.098501424270474,
20,,,,,0,0,0,3,0,0,0,0,2,0,2,0,,,,,,,,,,,,,,,,,102.90941070002737,103.54192940000212,103.54192940000212,104.14167340000859,0.6152413000236265,104.14167340000859,106.15630969998892,2.6298583000316285,None,1,increament,0.6,45,standard,None,100,,,,,,,f,21,236,fr,r,0,raw,2023-04-17_09h27.50.228,oddball,2022.2.5,60.098501424270474,
20,,,,,0,0,0,3,0,0,0,0,3,0,3,0,,,,,,,,,,,,,,,,,106.17334229999688,106.75604270002805,106.75604270002805,107.35548859997652,0.6155416999827139,107.35548859997652,109.37069270003121,2.630739199987147,None,1,increament,0.6,45,standard,None,100,,,,,,,f,21,236,fr,r,0,raw,2023-04-17_09h27.50.228,oddball,2022.2.5,60.098501424270474,
20,,,,,0,0,0,3,0,0,0,0,4,0,4,0,,,,,,,,,,,,,,,,,109.38708529999712,110.05345040000975,110.05345040000975,110.65299660002347,0.615377499954775,110.65299660002347,112.6676024000044,2.6299448999925517,None,1,increament,0.6,45,standard,None,100,,,,,,,f,21,236,fr,r,0,raw,2023-04-17_09h27.50.228,oddball,2022.2.5,60.098501424270474,
20,,,,,0,0,0,3,0,0,0,0,5,0,5,0,,,,,,,,,,,,,,,,,112.68442609999329,113.45076289999997,113.45076289999997,114.39959129999625,0.9648934999713674,114.4163882000139,116.41488609998487,2.980192899995018,None,0,increament,0.96,48,oddball,j,160,,,,,,,f,21,236,fr,r,0,raw,2023-04-17_09h27.50.228,oddball,2022.2.5,60.098501424270474,
20,,,,,0,0,0,3,0,0,0,0,6,0,6,0,,,,,,,,,,,,,,,,,116.43113989999983,117.01440739998361,117.01440739998361,117.6139560000156,0.6154895999934524,117.6139560000156,119.62846869998612,2.6299879999714904,None,1,increament,0.6,45,standard,None,100,,,,,,,f,21,236,fr,r,0,raw,2023-04-17_09h27.50.228,oddball,2022.2.5,60.098501424270474,
20,,,,,0,0,0,3,0,0,0,0,7,0,7,0,,,,,,,,,,,,,,,,,119.64535369997611,120.31130350002786,120.31130350002786,120.91100999998162,0.5990996999898925,120.91100999998162,122.92591420002282,2.6140269999741577,None,1,increament,0.6,45,standard,None,100,,,,,,,f,21,236,fr,r,0,raw,2023-04-17_09h27.50.228,oddball,2022.2.5,60.098501424270474,
20,,,,,0,0,0,3,0,0,0,0,8,0,8,0,,,,,,,,,,,,,,,,,122.92591420002282,123.57516649999889,123.57516649999889,124.17509259999497,0.6153463000082411,124.17509259999497,126.19007389998296,2.630319599993527,None,1,increament,0.6,45,standard,None,100,,,,,,,f,21,236,fr,r,0,raw,2023-04-17_09h27.50.228,oddball,2022.2.5,60.098501424270474,
20,,,,,0,0,0,3,0,0,0,0,9,0,9,0,,,,,,,,,,,,,,,,,126.2070892000338,126.9061302000191,126.9061302000191,127.50530660001095,0.614646999980323,127.50530660001095,129.5202381000272,2.6295924999867566,None,1,increament,0.6,45,standard,None,100,,,,,,,f,21,236,fr,r,0,raw,2023-04-17_09h27.50.228,oddball,2022.2.5,60.098501424270474,
20,,,,,0,0,0,3,0,0,0,0,10,0,10,0,,,,,,,,,,,,,,,,,129.53737710003043,130.16998340003192,130.16998340003192,130.76954900001874,0.6153908999986015,130.76954900001874,132.78430880000815,2.630105399992317,None,1,increament,0.6,45,standard,None,100,,,,,,,f,21,236,fr,r,0,raw,2023-04-17_09h27.50.228,oddball,2022.2.5,60.098501424270474,
20,,,,,0,0,0,3,0,0,0,0,11,0,11,0,,,,,,,,,,,,,,,,,132.8012247000006,133.38405150000472,133.38405150000472,133.98376610002015,0.6155910000088625,133.98376610002015,135.99856340000406,2.630374500004109,None,1,increament,0.6,45,standard,None,100,,,,,,,f,21,236,fr,r,0,raw,2023-04-17_09h27.50.228,oddball,2022.2.5,60.098501424270474,
20,,,,,0,0,0,3,0,0,0,0,12,0,12,0,,,,,,,,,,,,,,,,,136.01546610001242,136.69834569998784,136.69834569998784,137.2978036000277,0.6152338999672793,137.2978036000277,139.31233639997663,2.6297235999954864,None,1,increament,0.6,45,standard,None,100,,,,,,,f,21,236,fr,r,0,raw,2023-04-17_09h27.50.228,oddball,2022.2.5,60.098501424270474,
20,,,,,0,0,0,3,0,0,0,0,13,0,13,0,,,,,,,,,,,,,,,,,139.32898799999384,139.89565510000102,139.89565510000102,140.61124320002273,0.7315104000153951,140.62797059997683,142.62621449999278,2.7464768000063486,j,1,increament,0.72,46,oddball,j,120,1.2225386000354774,,,,,,f,21,236,fr,r,0,raw,2023-04-17_09h27.50.228,oddball,2022.2.5,60.098501424270474,
20,,,,,0,0,0,3,0,0,0,0,14,0,14,0,,,,,,,,,,,,,,,,,142.6432027000119,143.32609360001516,143.32609360001516,143.92522380000446,0.6151249999529682,143.94211170001654,145.9404360000044,2.6303342999890447,None,1,increament,0.6,45,standard,None,100,,,,,,,f,21,236,fr,r,0,raw,2023-04-17_09h27.50.228,oddball,2022.2.5,60.098501424270474,
20,,,,,0,0,0,3,0,0,0,0,15,0,15,0,,,,,,,,,,,,,,,,,145.95703109999886,146.53970840002876,146.53970840002876,147.13959169998998,0.6149989999830723,147.13959169998998,149.15429410000797,2.629683399980422,None,1,increament,0.6,45,standard,None,100,,,,,,,f,21,236,fr,r,0,raw,2023-04-17_09h27.50.228,oddball,2022.2.5,60.098501424270474,
20,,,,,0,0,0,3,0,0,0,0,16,0,16,0,,,,,,,,,,,,,,,,,149.170915100025,149.80376159999287,149.80376159999287,150.4029952000128,0.614822399977129,150.4029952000128,152.4019442999852,2.630259900004603,None,1,increament,0.6,45,standard,None,100,,,,,,,f,21,236,fr,r,0,raw,2023-04-17_09h27.50.228,oddball,2022.2.5,60.098501424270474,
20,,,,,0,0,0,3,0,0,0,0,17,0,17,0,,,,,,,,,,,,,,,,,152.43504060001578,153.06783479999285,153.06783479999285,153.6676776999957,0.6157701999763958,153.6676776999957,155.68272799998522,2.630801099992823,None,1,increament,0.6,45,standard,None,100,,,,,,,f,21,236,fr,r,0,raw,2023-04-17_09h27.50.228,oddball,2022.2.5,60.098501424270474,
20,,,,,0,0,0,3,0,0,0,0,18,0,18,0,,,,,,,,,,,,,,,,,155.69919980003033,156.34851999999955,156.34851999999955,156.94785380002577,0.6154765999526717,156.94785380002577,158.96310530003393,2.6306887999526225,None,1,increament,0.6,45,standard,None,100,,,,,,,f,21,236,fr,r,0,raw,2023-04-17_09h27.50.228,oddball,2022.2.5,60.098501424270474,
20,,,,,0,0,0,3,0,0,0,0,19,0,19,0,,,,,,,,,,,,,,,,,158.97989790001884,159.6458214999875,159.6458214999875,160.24496729997918,0.6145175999845378,160.24496729997918,162.25994590000482,2.6294925999827683,None,1,increament,0.6,45,standard,None,100,,,,,,,f,21,236,fr,r,0,raw,2023-04-17_09h27.50.228,oddball,2022.2.5,60.098501424270474,
20,,,,,0,0,0,3,0,0,0,0,20,0,20,0,,,,,,,,,,,,,,,,,162.2768836999894,162.87634760001674,162.87634760001674,163.45908489997964,0.6154779000207782,163.47592930000974,165.47448610002175,2.6305364000145346,None,1,increament,0.6,45,standard,None,100,,,,,,,f,21,236,fr,r,0,raw,2023-04-17_09h27.50.228,oddball,2022.2.5,60.098501424270474,
20,,,,,0,0,0,3,0,0,0,0,21,0,21,0,,,,,,,,,,,,,,,,,165.5075644000317,166.22352400003,166.22352400003,166.82316670002183,0.6147190000046976,166.82316670002183,168.83835229999386,2.6299132999847643,None,1,increament,0.6,45,standard,None,100,,,,,,,f,21,236,fr,r,0,raw,2023-04-17_09h27.50.228,oddball,2022.2.5,60.098501424270474,
20,,,,,0,0,0,3,0,0,0,0,22,0,22,0,,,,,,,,,,,,,,,,,168.85484540002653,169.57136220001848,169.57136220001848,170.17064510000637,0.6151495999656618,170.17064510000637,172.18530800001463,2.629791599989403,None,1,increament,0.6,45,standard,None,100,,,,,,,f,21,236,fr,r,0,raw,2023-04-17_09h27.50.228,oddball,2022.2.5,60.098501424270474,
20,,,,,0,0,0,3,0,0,0,0,23,0,23,0,,,,,,,,,,,,,,,,,172.20195439999225,172.80168570001842,172.80168570001842,173.40122870000778,0.6149405000032857,173.40122870000778,175.4160764000262,2.629695800016634,None,1,increament,0.6,45,standard,None,100,,,,,,,f,21,236,fr,r,0,raw,2023-04-17_09h27.50.228,oddball,2022.2.5,60.098501424270474,
20,,,,,0,0,0,3,0,0,0,0,24,0,24,0,,,,,,,,,,,,,,,,,175.43250739999348,176.04908409999916,176.04908409999916,176.64843609998934,0.6148683999781497,176.64843609998934,178.66323549998924,2.629604899964761,None,1,increament,0.6,45,standard,None,100,,,,,,,f,21,236,fr,r,0,raw,2023-04-17_09h27.50.228,oddball,2022.2.5,60.098501424270474,
20,,,,,0,0,0,3,0,0,0,0,25,0,25,0,,,,,,,,,,,,,,,,,178.68018289998872,179.4127693999908,179.4127693999908,180.0125537000131,0.6152820999850519,180.0125537000131,182.0270834999974,2.6297694999957457,None,1,increament,0.6,45,standard,None,100,,,,,,,f,21,236,fr,r,0,raw,2023-04-17_09h27.50.228,oddball,2022.2.5,60.098501424270474,
20,,,,,0,0,0,3,0,0,0,0,26,0,26,0,,,,,,,,,,,,,,,,,182.04415279999375,182.62687560002087,182.62687560002087,183.2259936000337,0.6140516000450589,183.2259936000337,185.24112269998295,2.6291681000147946,None,1,increament,0.6,45,standard,None,100,,,,,,,f,21,236,fr,r,0,raw,2023-04-17_09h27.50.228,oddball,2022.2.5,60.098501424270474,
20,,,,,0,0,0,3,0,0,0,0,27,0,27,0,,,,,,,,,,,,,,,,,185.25843460002216,185.9574331000331,185.9574331000331,186.79022269998677,0.8487479999894276,186.80691909999587,188.80508949997602,2.863532099989243,j,1,increament,0.84,47,oddball,j,140,0.713396199978888,,,,,,f,21,236,fr,r,0,raw,2023-04-17_09h27.50.228,oddball,2022.2.5,60.098501424270474,
20,,,,,0,0,0,3,0,0,0,0,28,0,28,0,,,,,,,,,,,,,,,,,188.82156030001352,189.40499220002675,189.40499220002675,190.0041316000279,0.6152624000096694,190.0041316000279,192.01911510003265,2.630226599983871,None,1,increament,0.6,45,standard,None,100,,,,,,,f,21,236,fr,r,0,raw,2023-04-17_09h27.50.228,oddball,2022.2.5,60.098501424270474,
20,,,,,0,0,0,3,0,0,0,0,29,0,29,0,,,,,,,,,,,,,,,,,192.03600160003407,192.55234470003052,192.55234470003052,193.15146060002735,0.6149117000168189,193.15146060002735,195.1667066999944,2.630194199969992,None,1,increament,0.6,45,standard,None,100,,,,,,,f,21,236,fr,r,0,raw,2023-04-17_09h27.50.228,oddball,2022.2.5,60.098501424270474,
20,,,,,0,0,0,3,1,0,1,0,0,0,0,0,,,,,,,,,,,,,,,203.62098080001306,203.62098080001306,214.58363100001588,215.21650500001851,215.21650500001851,215.81621930003166,0.6156697999686003,215.81621930003166,217.8309828999918,2.6304342999937944,None,1,decreament,0.6,41,standard,None,100,,195.1834917999804,0.0015500999870710075,,,,f,21,236,fr,r,0,raw,2023-04-17_09h27.50.228,oddball,2022.2.5,60.098501424270474,
20,,,,,0,0,0,3,1,0,1,0,1,0,1,0,,,,,,,,,,,,,,,,,217.84747919999063,218.497059300018,218.497059300018,219.09652939997613,0.6154330000281334,219.09652939997613,221.11162699997658,2.630522400024347,None,1,decreament,0.6,41,standard,None,100,,,,,,,f,21,236,fr,r,0,raw,2023-04-17_09h27.50.228,oddball,2022.2.5,60.098501424270474,
20,,,,,0,0,0,3,1,0,1,0,2,0,2,0,,,,,,,,,,,,,,,,,221.12843039998552,221.79433050000807,221.79433050000807,222.37770329997875,0.5994053000467829,222.39421649998985,224.39259150001453,2.6143212000024505,None,1,decreament,0.6,41,standard,None,100,,,,,,,f,21,236,fr,r,0,raw,2023-04-17_09h27.50.228,oddball,2022.2.5,60.098501424270474,
20,,,,,0,0,0,3,1,0,1,0,3,0,3,0,,,,,,,,,,,,,,,,,224.40900909999618,225.0588601999916,225.0588601999916,225.65793230000418,0.6152302999980748,225.65793230000418,227.6731857000268,2.6304674000130035,None,1,decreament,0.6,41,standard,None,100,,,,,,,f,21,236,fr,r,0,raw,2023-04-17_09h27.50.228,oddball,2022.2.5,60.098501424270474,
20,,,,,0,0,0,3,1,0,1,0,4,0,4,0,,,,,,,,,,,,,,,,,227.6901117999805,228.42235559999244,228.42235559999244,229.02180190000217,0.599102700012736,229.02180190000217,231.03726010001265,2.6139982999884523,None,1,decreament,0.6,41,standard,None,100,,,,,,,f,21,236,fr,r,0,raw,2023-04-17_09h27.50.228,oddball,2022.2.5,60.098501424270474,
20,,,,,0,0,0,3,1,0,1,0,5,0,5,0,,,,,,,,,,,,,,,,,231.03726010001265,231.68669699999737,231.68669699999737,232.28589250001824,0.6150065999827348,232.28589250001824,234.30125620000763,2.6303700999706052,None,1,decreament,0.6,41,standard,None,100,,,,,,,f,21,236,fr,r,0,raw,2023-04-17_09h27.50.228,oddball,2022.2.5,60.098501424270474,
20,,,,,0,0,0,3,1,0,1,0,6,0,6,0,,,,,,,,,,,,,,,,,234.31806750001851,234.91749720001826,234.91749720001826,235.15031290001934,0.24893830000655726,235.16719020000892,237.1652919999906,2.263933500042185,j,1,decreament,0.24,42,oddball,j,40,0.43730049999430776,,,,,,f,21,236,fr,r,0,raw,2023-04-17_09h27.50.228,oddball,2022.2.5,60.098501424270474,
20,,,,,0,0,0,3,1,0,1,0,7,0,7,0,,,,,,,,,,,,,,,,,237.18223769997712,237.76520600001095,237.76520600001095,238.36442489997717,0.6153224000008777,238.36442489997717,240.37952239997685,2.614037699997425,None,1,decreament,0.6,41,standard,None,100,,,,,,,f,21,236,fr,r,0,raw,2023-04-17_09h27.50.228,oddball,2022.2.5,60.098501424270474,
20,,,,,0,0,0,3,1,0,1,0,8,0,8,0,,,,,,,,,,,,,,,,,240.37952239997685,241.01232560002245,241.01232560002245,241.61193990003085,0.6153733999817632,241.61193990003085,243.62656419997802,2.630020599986892,None,1,decreament,0.6,41,standard,None,100,,,,,,,f,21,236,fr,r,0,raw,2023-04-17_09h27.50.228,oddball,2022.2.5,60.098501424270474,
20,,,,,0,0,0,3,1,0,1,0,9,0,9,0,,,,,,,,,,,,,,,,,243.6438622000278,244.29296869999962,244.29296869999962,244.89232889999403,0.6152819999842905,244.89232889999403,246.90741570002865,2.63038129999768,None,1,decreament,0.6,41,standard,None,100,,,,,,,f,21,236,fr,r,0,raw,2023-04-17_09h27.50.228,oddball,2022.2.5,60.098501424270474,
20,,,,,0,0,0,3,1,0,1,0,10,0,10,0,,,,,,,,,,,,,,,,,246.92389189999085,247.54016360000242,247.54016360000242,248.12354559998494,0.5994136999943294,248.1395262000151,250.13808850001078,2.613937199988868,None,1,decreament,0.6,41,standard,None,100,,,,,,,f,21,236,fr,r,0,raw,2023-04-17_09h27.50.228,oddball,2022.2.5,60.098501424270474,
20,,,,,0,0,0,3,1,0,1,0,11,0,11,0,,,,,,,,,,,,,,,,,250.15459350001765,250.82051980000688,250.82051980000688,251.4034162000171,0.6151467000017874,251.41995930002304,253.41850060003344,2.6303315000259317,None,1,decreament,0.6,41,standard,None,100,,,,,,,f,21,236,fr,r,0,raw,2023-04-17_09h27.50.228,oddball,2022.2.5,60.098501424270474,
20,,,,,0,0,0,3,1,0,1,0,12,0,12,0,,,,,,,,,,,,,,,,,253.45174609997775,254.08468979998725,254.08468979998725,254.68433850002475,0.6150807000230998,254.68433850002475,256.69960829999764,2.6303599000093527,None,1,decreament,0.6,41,standard,None,100,,,,,,,f,21,236,fr,r,0,raw,2023-04-17_09h27.50.228,oddball,2022.2.5,60.098501424270474,
20,,,,,0,0,0,3,1,0,1,0,13,0,13,0,,,,,,,,,,,,,,,,,256.7161369000096,257.2989339000196,257.2989339000196,257.7649201999884,0.4818215999985114,257.7819499000325,259.7801477999892,2.497072300000582,None,0,decreament,0.48,44,oddball,j,80,,,,,,,f,21,236,fr,r,0,raw,2023-04-17_09h27.50.228,oddball,2022.2.5,60.098501424270474,
20,,,,,0,0,0,3,1,0,1,0,14,0,14,0,,,,,,,,,,,,,,,,,259.79696150001837,260.429510499991,260.429510499991,261.0289734000107,0.6149871000088751,261.0289734000107,263.0440825999831,2.6300912000006065,None,1,decreament,0.6,41,standard,None,100,,,,,,,f,21,236,fr,r,0,raw,2023-04-17_09h27.50.228,oddball,2022.2.5,60.098501424270474,
20,,,,,0,0,0,3,1,0,1,0,15,0,15,0,,,,,,,,,,,,,,,,,263.06083580001723,263.77671130001545,263.77671130001545,264.37614340003347,0.6151886999723502,264.37614340003347,266.39111830003094,2.6301885999855585,None,1,decreament,0.6,41,standard,None,100,,,,,,,f,21,236,fr,r,0,raw,2023-04-17_09h27.50.228,oddball,2022.2.5,60.098501424270474,
20,,,,,0,0,0,3,1,0,1,0,16,0,16,0,,,,,,,,,,,,,,,,,266.4082538000075,267.17392010003095,267.17392010003095,267.77325309999287,0.6142389999586158,267.77325309999287,269.78846890002023,2.6295391999883577,None,1,decreament,0.6,41,standard,None,100,,,,,,,f,21,236,fr,r,0,raw,2023-04-17_09h27.50.228,oddball,2022.2.5,60.098501424270474,
20,,,,,0,0,0,3,1,0,1,0,17,0,17,0,,,,,,,,,,,,,,,,,269.80529899999965,270.3886063999962,270.3886063999962,270.98752299998887,0.6150085999979638,271.00409010000294,273.0024237000034,2.629882799985353,None,1,decreament,0.6,41,standard,None,100,,,,,,,f,21,236,fr,r,0,raw,2023-04-17_09h27.50.228,oddball,2022.2.5,60.098501424270474,
20,,,,,0,0,0,3,1,0,1,0,18,0,18,0,,,,,,,,,,,,,,,,,273.0193980000331,273.7852534999838,273.7852534999838,274.3847344000242,0.6151207000366412,274.3847344000242,276.39949689997593,2.62986169999931,None,1,decreament,0.6,41,standard,None,100,,,,,,,f,21,236,fr,r,0,raw,2023-04-17_09h27.50.228,oddball,2022.2.5,60.098501424270474,
20,,,,,0,0,0,3,1,0,1,0,19,0,19,0,,,,,,,,,,,,,,,,,276.41623179998714,277.0827938999864,277.0827938999864,277.68276880000485,0.6156364000053145,277.68276880000485,279.69687590003014,2.6297267000190914,None,1,decreament,0.6,41,standard,None,100,,,,,,,f,21,236,fr,r,0,raw,2023-04-17_09h27.50.228,oddball,2022.2.5,60.098501424270474,
20,,,,,0,0,0,3,1,0,1,0,20,0,20,0,,,,,,,,,,,,,,,,,279.713859600015,280.2964240000001,280.2964240000001,280.8961107999785,0.6156043999944814,280.8961107999785,282.911330300034,2.6308044000179507,None,1,decreament,0.6,41,standard,None,100,,,,,,,f,21,236,fr,r,0,raw,2023-04-17_09h27.50.228,oddball,2022.2.5,60.098501424270474,
20,,,,,0,0,0,3,1,0,1,0,21,0,21,0,,,,,,,,,,,,,,,,,282.927598499984,283.59378870000364,283.59378870000364,284.19376440002816,0.5990193000179715,284.19376440002816,286.2087561999797,2.613276100018993,j,0,decreament,0.6,41,standard,None,100,0.7974856999935582,,,,,,f,21,236,fr,r,0,raw,2023-04-17_09h27.50.228,oddball,2022.2.5,60.098501424270474,
20,,,,,0,0,0,3,1,0,1,0,22,0,22,0,,,,,,,,,,,,,,,,,286.2087561999797,286.89149650000036,286.89149650000036,287.4906232000212,0.6152971999836154,287.4906232000212,289.5059289999772,2.630546599975787,None,1,decreament,0.6,41,standard,None,100,,,,,,,f,21,236,fr,r,0,raw,2023-04-17_09h27.50.228,oddball,2022.2.5,60.098501424270474,
20,,,,,0,0,0,3,1,0,1,0,23,0,23,0,,,,,,,,,,,,,,,,,289.5227372000227,290.42163380002603,290.42163380002603,291.02144570002565,0.6156924999668263,291.02144570002565,293.0361802999978,2.6304250999819487,None,1,decreament,0.6,41,standard,None,100,,,,,,,f,21,236,fr,r,0,raw,2023-04-17_09h27.50.228,oddball,2022.2.5,60.098501424270474,
20,,,,,0,0,0,3,1,0,1,0,24,0,24,0,,,,,,,,,,,,,,,,,293.05307989998255,293.6688530999818,293.6688530999818,294.26838989998214,0.6153908999986015,294.26838989998214,296.2834353999933,2.6304242000333034,None,1,decreament,0.6,41,standard,None,100,,,,,,,f,21,236,fr,r,0,raw,2023-04-17_09h27.50.228,oddball,2022.2.5,60.098501424270474,
20,,,,,0,0,0,3,1,0,1,0,25,0,25,0,,,,,,,,,,,,,,,,,296.30058500001905,296.9165662000305,296.9165662000305,297.5156713000033,0.6151795000187121,297.5156713000033,299.5305360999773,2.630025500024203,None,1,decreament,0.6,41,standard,None,100,,,,,,,f,21,236,fr,r,0,raw,2023-04-17_09h27.50.228,oddball,2022.2.5,60.098501424270474,
20,,,,,0,0,0,3,1,0,1,0,26,0,26,0,,,,,,,,,,,,,,,,,299.5476246000035,300.1971683999873,300.1971683999873,300.54665209999075,0.36550489999353886,300.5632912000292,302.5615186999785,2.38033950002864,j,1,decreament,0.36,43,oddball,j,60,0.5614327999646775,,,,,,f,21,236,fr,r,0,raw,2023-04-17_09h27.50.228,oddball,2022.2.5,60.098501424270474,
20,,,,,0,0,0,3,1,0,1,0,27,0,27,0,,,,,,,,,,,,,,,,,302.5784158000024,303.2609373999876,303.2609373999876,303.86046330002137,0.6154797000344843,303.86046330002137,305.8755923000281,2.630583700025454,None,1,decreament,0.6,41,standard,None,100,,,,,,,f,21,236,fr,r,0,raw,2023-04-17_09h27.50.228,oddball,2022.2.5,60.098501424270474,
20,,,,,0,0,0,3,1,0,1,0,28,0,28,0,,,,,,,,,,,,,,,,,305.8921987999929,306.5081903000246,306.5081903000246,307.10786420002114,0.6146188999991864,307.10786420002114,309.122646600008,2.629394100047648,None,1,decreament,0.6,41,standard,None,100,,,,,,,f,21,236,fr,r,0,raw,2023-04-17_09h27.50.228,oddball,2022.2.5,60.098501424270474,
20,,,,,0,0,0,3,1,0,1,0,29,0,29,0,,,,,,,,,,,,,,,,,309.1394999999902,309.9223661000142,309.9223661000142,310.52176029997645,0.5990321999997832,310.52176029997645,312.53694680001354,2.6136170999961905,None,1,decreament,0.6,41,standard,None,100,,,,,,,f,21,236,fr,r,0,raw,2023-04-17_09h27.50.228,oddball,2022.2.5,60.098501424270474,
20,,,,,0,0,0,3,2,0,2,0,0,0,0,0,,,,,,,,,,,,,,,319.9077779999934,319.9077779999934,342.54543070000364,343.19467130000703,343.19467130000703,343.79479259997606,0.6148884000140242,343.79479259997606,345.80952060001437,2.629600099986419,None,1,increament,0.6,45,standard,None,100,,312.53694680001354,0.0017240999732166529,,,,f,21,236,fr,r,0,raw,2023-04-17_09h27.50.228,oddball,2022.2.5,60.098501424270474,
20,,,,,0,0,0,3,2,0,2,0,1,0,1,0,,,,,,,,,,,,,,,,,345.82644630002324,346.50880690000486,346.50880690000486,347.10797050001565,0.6146750999614596,347.10797050001565,349.12376059999224,2.630426499992609,None,1,increament,0.6,45,standard,None,100,,,,,,,f,21,236,fr,r,0,raw,2023-04-17_09h27.50.228,oddball,2022.2.5,60.098501424270474,
20,,,,,0,0,0,3,2,0,2,0,2,0,2,0,,,,,,,,,,,,,,,,,349.1401005000225,349.88915659999475,349.88915659999475,350.4885554999928,0.6151453999918886,350.4885554999928,352.5039367999998,2.6305166999809444,None,1,increament,0.6,45,standard,None,100,,,,,,,f,21,236,fr,r,0,raw,2023-04-17_09h27.50.228,oddball,2022.2.5,60.098501424270474,
20,,,,,0,0,0,3,2,0,2,0,3,0,3,0,,,,,,,,,,,,,,,,,352.5209971999866,353.3366241999902,353.3366241999902,353.9360303999856,0.6156341999885626,353.9360303999856,355.95101750001777,2.6305046000052243,None,1,increament,0.6,45,standard,None,100,,,,,,,f,21,236,fr,r,0,raw,2023-04-17_09h27.50.228,oddball,2022.2.5,60.098501424270474,
20,,,,,0,0,0,3,2,0,2,0,4,0,4,0,,,,,,,,,,,,,,,,,355.96764490002533,356.5673103000154,356.5673103000154,357.1668525999994,0.6153693000087515,357.1668525999994,359.1816209999961,2.630142500041984,None,1,increament,0.6,45,standard,None,100,,,,,,,f,21,236,fr,r,0,raw,2023-04-17_09h27.50.228,oddball,2022.2.5,60.098501424270474,
20,,,,,0,0,0,3,2,0,2,0,5,0,5,0,,,,,,,,,,,,,,,,,359.1983109000139,359.7316467000055,359.7316467000055,360.330560100032,0.599051299970597,360.330560100032,362.34581450000405,2.6136148999794386,None,1,increament,0.6,45,standard,None,100,,,,,,,f,21,236,fr,r,0,raw,2023-04-17_09h27.50.228,oddball,2022.2.5,60.098501424270474,
20,,,,,0,0,0,3,2,0,2,0,6,0,6,0,,,,,,,,,,,,,,,,,362.34581450000405,362.91226419998566,362.91226419998566,363.51142599998275,0.6149422000162303,363.51142599998275,365.5268146999879,2.630386700038798,None,1,increament,0.6,45,standard,None,100,,,,,,,f,21,236,fr,r,0,raw,2023-04-17_09h27.50.228,oddball,2022.2.5,60.098501424270474,
20,,,,,0,0,0,3,2,0,2,0,7,0,7,0,,,,,,,,,,,,,,,,,365.5433860999765,366.1763119000243,366.1763119000243,366.7755267000175,0.6149376999819651,366.7755267000175,368.79050479998114,2.6299119999748655,None,1,increament,0.6,45,standard,None,100,,,,,,,f,21,236,fr,r,0,raw,2023-04-17_09h27.50.228,oddball,2022.2.5,60.098501424270474,
20,,,,,0,0,0,3,2,0,2,0,8,0,8,0,,,,,,,,,,,,,,,,,368.80743270000676,369.49019099998986,369.49019099998986,370.0893185000168,0.6149155999883078,370.0893185000168,372.10431890003383,2.62996429996565,None,1,increament,0.6,45,standard,None,100,,,,,,,f,21,236,fr,r,0,raw,2023-04-17_09h27.50.228,oddball,2022.2.5,60.098501424270474,
20,,,,,0,0,0,3,2,0,2,0,9,0,9,0,,,,,,,,,,,,,,,,,372.12153030000627,372.87076920003165,372.87076920003165,373.470034900005,0.6146676000207663,373.470034900005,375.48488840000937,2.629526500008069,None,1,increament,0.6,45,standard,None,100,,,,,,,f,21,236,fr,r,0,raw,2023-04-17_09h27.50.228,oddball,2022.2.5,60.098501424270474,
20,,,,,0,0,0,3,2,0,2,0,10,0,10,0,,,,,,,,,,,,,,,,,375.5015462000156,376.1511486999807,376.1511486999807,376.7507658000104,0.5992709999554791,376.7507658000104,378.76576360000763,2.614131499954965,None,1,increament,0.6,45,standard,None,100,,,,,,,f,21,236,fr,r,0,raw,2023-04-17_09h27.50.228,oddball,2022.2.5,60.098501424270474,
20,,,,,0,0,0,3,2,0,2,0,11,0,11,0,,,,,,,,,,,,,,,,,378.76576360000763,379.3649110000115,379.3649110000115,379.9483580000233,0.5991371999843977,379.9649441000074,381.96288740000455,2.613657300011255,None,1,increament,0.6,45,standard,None,100,,,,,,,f,21,236,fr,r,0,raw,2023-04-17_09h27.50.228,oddball,2022.2.5,60.098501424270474,
20,,,,,0,0,0,3,2,0,2,0,12,0,12,0,,,,,,,,,,,,,,,,,381.98011579999,382.6295848999871,382.6295848999871,383.2288810000173,0.6153257000260055,383.24559579999186,385.24358320003375,2.6300401000189595,None,1,increament,0.6,45,standard,None,100,,,,,,,f,21,236,fr,r,0,raw,2023-04-17_09h27.50.228,oddball,2022.2.5,60.098501424270474,
20,,,,,0,0,0,3,2,0,2,0,13,0,13,0,,,,,,,,,,,,,,,,,385.26014660001965,385.89273239998147,385.89273239998147,386.4760349999997,0.599412499985192,386.4926344000269,388.49094320001313,2.6142955999821424,None,1,increament,0.6,45,standard,None,100,,,,,,,f,21,236,fr,r,0,raw,2023-04-17_09h27.50.228,oddball,2022.2.5,60.098501424270474,
20,,,,,0,0,0,3,2,0,2,0,14,0,14,0,,,,,,,,,,,,,,,,,388.5075639000279,389.12395149999065,389.12395149999065,389.7231025000219,0.5990617999923415,389.7231025000219,391.73850959999254,2.6137355000246316,None,1,increament,0.6,45,standard,None,100,,,,,,,f,21,236,fr,r,0,raw,2023-04-17_09h27.50.228,oddball,2022.2.5,60.098501424270474,
20,,,,,0,0,0,3,2,0,2,0,15,0,15,0,,,,,,,,,,,,,,,,,391.73850959999254,392.33798419998493,392.33798419998493,392.93730320001487,0.6152250000159256,392.93730320001487,394.95220790000167,2.6301488999743015,None,1,increament,0.6,45,standard,None,100,,,,,,,f,21,236,fr,r,0,raw,2023-04-17_09h27.50.228,oddball,2022.2.5,60.098501424270474,
20,,,,,0,0,0,3,2,0,2,0,16,0,16,0,,,,,,,,,,,,,,,,,394.96907900000224,395.6181857000338,395.6181857000338,396.21815919998335,0.6155750000034459,396.21815919998335,398.23285099997884,2.6302576000452973,None,1,increament,0.6,45,standard,None,100,,,,,,,f,21,236,fr,r,0,raw,2023-04-17_09h27.50.228,oddball,2022.2.5,60.098501424270474,
20,,,,,0,0,0,3,2,0,2,0,17,0,17,0,,,,,,,,,,,,,,,,,398.2499249000102,398.78241960000014,398.78241960000014,399.38205660000676,0.6155666999984533,399.38205660000676,401.39685289998306,2.6303500999929383,None,1,increament,0.6,45,standard,None,100,,,,,,,f,21,236,fr,r,0,raw,2023-04-17_09h27.50.228,oddball,2022.2.5,60.098501424270474,
20,,,,,0,0,0,3,2,0,2,0,18,0,18,0,,,,,,,,,,,,,,,,,401.41383340000175,402.096403500007,402.096403500007,402.92886360001285,0.8483244000235572,402.9457422000123,404.94402440002887,2.8635666000191122,j,1,increament,0.84,47,oddball,j,140,0.9294711999827996,,,,,,f,21,236,fr,r,0,raw,2023-04-17_09h27.50.228,oddball,2022.2.5,60.098501424270474,
20,,,,,0,0,0,3,2,0,2,0,19,0,19,0,,,,,,,,,,,,,,,,,404.96071260003373,405.67712340003345,405.67712340003345,406.2761991000152,0.6149601999786682,406.2761991000152,408.29118469997775,2.6298976999823935,None,1,increament,0.6,45,standard,None,100,,,,,,,f,21,236,fr,r,0,raw,2023-04-17_09h27.50.228,oddball,2022.2.5,60.098501424270474,
20,,,,,0,0,0,3,2,0,2,0,20,0,20,0,,,,,,,,,,,,,,,,,408.3079585999949,409.124298300012,409.124298300012,409.72390959999757,0.6152671999880113,409.72390959999757,411.7386840999825,2.6136855999939144,None,1,increament,0.6,45,standard,None,100,,,,,,,f,21,236,fr,r,0,raw,2023-04-17_09h27.50.228,oddball,2022.2.5,60.098501424270474,
20,,,,,0,0,0,3,2,0,2,0,21,0,21,0,,,,,,,,,,,,,,,,,411.7386840999825,412.35461430001305,412.35461430001305,412.95407079998404,0.6153123999829404,412.95407079998404,414.9692569000181,2.6305168999824673,None,1,increament,0.6,45,standard,None,100,,,,,,,f,21,236,fr,r,0,raw,2023-04-17_09h27.50.228,oddball,2022.2.5,60.098501424270474,
20,,,,,0,0,0,3,2,0,2,0,22,0,22,0,,,,,,,,,,,,,,,,,414.985724600032,415.7856404000195,415.7856404000195,416.50125680002384,0.7317825999925844,416.51780149998376,418.5165220000199,2.747035500011407,None,0,increament,0.72,46,oddball,j,120,,,,,,,f,21,236,fr,r,0,raw,2023-04-17_09h27.50.228,oddball,2022.2.5,60.098501424270474,
20,,,,,0,0,0,3,2,0,2,0,23,0,23,0,,,,,,,,,,,,,,,,,418.53320920001715,419.1826869000215,419.1826869000215,419.78210750001017,0.6154311999562196,419.78210750001017,421.7969892999972,2.6302088999655098,None,1,increament,0.6,45,standard,None,100,,,,,,,f,21,236,fr,r,0,raw,2023-04-17_09h27.50.228,oddball,2022.2.5,60.098501424270474,
20,,,,,0,0,0,3,2,0,2,0,24,0,24,0,,,,,,,,,,,,,,,,,421.8136167000048,422.4796658999985,422.4796658999985,423.078954000026,0.6150336999562569,423.078954000026,425.09416739997687,2.630235699994955,None,1,increament,0.6,45,standard,None,100,,,,,,,f,21,236,fr,r,0,raw,2023-04-17_09h27.50.228,oddball,2022.2.5,60.098501424270474,
20,,,,,0,0,0,3,2,0,2,0,25,0,25,0,,,,,,,,,,,,,,,,,425.11089770001126,425.84409289999167,425.84409289999167,426.44309459999204,0.6152655999758281,426.44309459999204,428.4579427000135,2.6301016000215895,None,1,increament,0.6,45,standard,None,100,,,,,,,f,21,236,fr,r,0,raw,2023-04-17_09h27.50.228,oddball,2022.2.5,60.098501424270474,
20,,,,,0,0,0,3,2,0,2,0,26,0,26,0,,,,,,,,,,,,,,,,,428.47486200003186,429.1907199000125,429.1907199000125,430.1400548000238,0.9652839000336826,430.15689230000135,432.1548609000165,2.9800732000148855,j,1,increament,0.96,48,oddball,j,160,0.38394750002771616,,,,,,f,21,236,fr,r,0,raw,2023-04-17_09h27.50.228,oddball,2022.2.5,60.098501424270474,
20,,,,,0,0,0,3,2,0,2,0,27,0,27,0,,,,,,,,,,,,,,,,,432.17181999998866,432.83826180000324,432.83826180000324,433.4373572000186,0.6152492000255734,433.45406100002583,435.4523944000248,2.6302717999788,None,1,increament,0.6,45,standard,None,100,,,,,,,f,21,236,fr,r,0,raw,2023-04-17_09h27.50.228,oddball,2022.2.5,60.098501424270474,
20,,,,,0,0,0,3,2,0,2,0,28,0,28,0,,,,,,,,,,,,,,,,,435.4691860000021,436.1019970999914,436.1019970999914,436.7016387000331,0.6150688999914564,436.7016387000331,438.71644410002045,2.629885900008958,None,1,increament,0.6,45,standard,None,100,,,,,,,f,21,236,fr,r,0,raw,2023-04-17_09h27.50.228,oddball,2022.2.5,60.098501424270474,
20,,,,,0,0,0,3,2,0,2,0,29,0,29,0,,,,,,,,,,,,,,,,,438.73319639998954,439.46588909998536,439.46588909998536,440.06544500001473,0.6151029999600723,440.06544500001473,442.0802155000274,2.6298877999652177,None,1,increament,0.6,45,standard,None,100,,,,,,,f,21,236,fr,r,0,raw,2023-04-17_09h27.50.228,oddball,2022.2.5,60.098501424270474,
20,,,,,0,0,0,3,3,0,3,0,0,0,0,0,,,,,,,,,,,,,,,444.4033283999888,444.4033283999888,459.1166781000211,459.865579299978,459.865579299978,460.4649759000167,0.615059400035534,460.4649759000167,462.480320200033,2.6303941000369377,None,1,decreament,0.6,41,standard,None,100,,442.0973619000288,0.0016206000000238419,,,,f,21,236,fr,r,0,raw,2023-04-17_09h27.50.228,oddball,2022.2.5,60.098501424270474,
20,,,,,0,0,0,3,3,0,3,0,1,0,1,0,,,,,,,,,,,,,,,,,462.49680199997965,463.1131548000267,463.1131548000267,463.71244879998267,0.6148138000280596,463.71244879998267,465.727420900017,2.6297671000356786,None,1,decreament,0.6,41,standard,None,100,,,,,,,f,21,236,fr,r,0,raw,2023-04-17_09h27.50.228,oddball,2022.2.5,60.098501424270474,
20,,,,,0,0,0,3,3,0,3,0,2,0,2,0,,,,,,,,,,,,,,,,,465.74391080002533,466.3273586999858,466.3273586999858,466.92694590002066,0.6155246999696828,466.92694590002066,468.9413020000211,2.62981780001428,None,1,decreament,0.6,41,standard,None,100,,,,,,,f,21,236,fr,r,0,raw,2023-04-17_09h27.50.228,oddball,2022.2.5,60.098501424270474,
20,,,,,0,0,0,3,3,0,3,0,3,0,3,0,,,,,,,,,,,,,,,,,468.9579481999972,469.69115899997996,469.69115899997996,470.2902156999917,0.6144607000169344,470.2902156999917,472.305589399999,2.629927200032398,None,1,decreament,0.6,41,standard,None,100,,,,,,,f,21,236,fr,r,0,raw,2023-04-17_09h27.50.228,oddball,2022.2.5,60.098501424270474,
20,,,,,0,0,0,3,3,0,3,0,4,0,4,0,,,,,,,,,,,,,,,,,472.32227479998255,473.03796540002804,473.03796540002804,473.62091350002447,0.6157894000061788,473.63776100001996,475.6360454999958,2.6305123000056483,None,1,decreament,0.6,41,standard,None,100,,,,,,,f,21,236,fr,r,0,raw,2023-04-17_09h27.50.228,oddball,2022.2.5,60.098501424270474,
20,,,,,0,0,0,3,3,0,3,0,5,0,5,0,,,,,,,,,,,,,,,,,475.66949539998313,476.38526770001044,476.38526770001044,476.98510160000296,0.6152424999745563,476.98510160000296,478.9998896000325,2.630000300006941,None,1,decreament,0.6,41,standard,None,100,,,,,,,f,21,236,fr,r,0,raw,2023-04-17_09h27.50.228,oddball,2022.2.5,60.098501424270474,
20,,,,,0,0,0,3,3,0,3,0,6,0,6,0,,,,,,,,,,,,,,,,,479.0164980000118,479.6495542000048,479.6495542000048,480.2488031000248,0.6153159000095911,480.2488031000248,482.2642777999863,2.630778899998404,None,1,decreament,0.6,41,standard,None,100,,,,,,,f,21,236,fr,r,0,raw,2023-04-17_09h27.50.228,oddball,2022.2.5,60.098501424270474,
20,,,,,0,0,0,3,3,0,3,0,7,0,7,0,,,,,,,,,,,,,,,,,482.2805706000072,483.09674509998877,483.09674509998877,483.5627605000045,0.481903100037016,483.57924719998846,485.57788400002755,2.4807702000252903,None,0,decreament,0.48,44,oddball,j,80,,,,,,,f,21,236,fr,r,0,raw,2023-04-17_09h27.50.228,oddball,2022.2.5,60.098501424270474,
20,,,,,0,0,0,3,3,0,3,0,8,0,8,0,,,,,,,,,,,,,,,,,485.57788400002755,486.1605678999913,486.1605678999913,486.7439447999932,0.5994886999833398,486.7605063000228,488.7585413000197,2.6139358999789692,None,1,decreament,0.6,41,standard,None,100,,,,,,,f,21,236,fr,r,0,raw,2023-04-17_09h27.50.228,oddball,2022.2.5,60.098501424270474,
20,,,,,0,0,0,3,3,0,3,0,9,0,9,0,,,,,,,,,,,,,,,,,488.775043200003,489.52447070000926,489.52447070000926,490.12418179999804,0.6149920999887399,490.12418179999804,492.139419300016,2.6302438999991864,None,1,decreament,0.6,41,standard,None,100,,,,,,,f,21,236,fr,r,0,raw,2023-04-17_09h27.50.228,oddball,2022.2.5,60.098501424270474,
20,,,,,0,0,0,3,3,0,3,0,10,0,10,0,,,,,,,,,,,,,,,,,492.1556857000105,492.7054908000282,492.7054908000282,493.30531349999364,0.6154527000035159,493.30531349999364,495.31959420000203,2.6136641000048257,None,1,decreament,0.6,41,standard,None,100,,,,,,,f,21,236,fr,r,0,raw,2023-04-17_09h27.50.228,oddball,2022.2.5,60.098501424270474,
20,,,,,0,0,0,3,3,0,3,0,11,0,11,0,,,,,,,,,,,,,,,,,495.31959420000203,495.9691682999837,495.9691682999837,496.5687055999879,0.5990074999863282,496.5687055999879,498.58379330002936,2.6139466000022367,None,1,decreament,0.6,41,standard,None,100,,,,,,,f,21,236,fr,r,0,raw,2023-04-17_09h27.50.228,oddball,2022.2.5,60.098501424270474,
20,,,,,0,0,0,3,3,0,3,0,12,0,12,0,,,,,,,,,,,,,,,,,498.58379330002936,499.1665400000056,499.1665400000056,499.7662738999934,0.6146130000124685,499.7662738999934,501.7814286000212,2.6298010000027716,None,1,decreament,0.6,41,standard,None,100,,,,,,,f,21,236,fr,r,0,raw,2023-04-17_09h27.50.228,oddball,2022.2.5,60.098501424270474,
20,,,,,0,0,0,3,3,0,3,0,13,0,13,0,,,,,,,,,,,,,,,,,501.79811109998263,502.3805240999791,502.3805240999791,502.7305003000074,0.36531809996813536,502.7470564999967,504.7454130999977,2.3802532000117935,j,1,decreament,0.36,43,oddball,j,60,0.6959119999664836,,,,,,f,21,236,fr,r,0,raw,2023-04-17_09h27.50.228,oddball,2022.2.5,60.098501424270474,
20,,,,,0,0,0,3,3,0,3,0,14,0,14,0,,,,,,,,,,,,,,,,,504.761919600016,505.4115235999925,505.4115235999925,506.01112380000995,0.6149976999731734,506.01112380000995,508.02585029997863,2.629697899974417,None,1,decreament,0.6,41,standard,None,100,,,,,,,f,21,236,fr,r,0,raw,2023-04-17_09h27.50.228,oddball,2022.2.5,60.098501424270474,
20,,,,,0,0,0,3,3,0,3,0,15,0,15,0,,,,,,,,,,,,,,,,,508.0431320000207,508.60907240002416,508.60907240002416,509.2082938000094,0.615182499983348,509.2082938000094,511.22362060000887,2.6304922999697737,None,1,decreament,0.6,41,standard,None,100,,,,,,,f,21,236,fr,r,0,raw,2023-04-17_09h27.50.228,oddball,2022.2.5,60.098501424270474,
20,,,,,0,0,0,3,3,0,3,0,16,0,16,0,,,,,,,,,,,,,,,,,511.2399818000267,511.95619799999986,511.95619799999986,512.5552776000113,0.6149745999719016,512.5552776000113,514.5703990000184,2.6300829999963753,None,1,decreament,0.6,41,standard,None,100,,,,,,,f,21,236,fr,r,0,raw,2023-04-17_09h27.50.228,oddball,2022.2.5,60.098501424270474,
20,,,,,0,0,0,3,3,0,3,0,17,0,17,0,,,,,,,,,,,,,,,,,514.587218300032,515.186679699982,515.186679699982,515.4201207000297,0.24954990000696853,515.4363448999939,517.4349874000181,2.2644426000188105,j,1,decreament,0.24,42,oddball,j,40,0.5491581999813206,,,,,,f,21,236,fr,r,0,raw,2023-04-17_09h27.50.228,oddball,2022.2.5,60.098501424270474,
20,,,,,0,0,0,3,3,0,3,0,18,0,18,0,,,,,,,,,,,,,,,,,517.4513228000142,518.0840081999777,518.0840081999777,518.6838728000293,0.6157446000142954,518.6838728000293,520.6987263999763,2.6305713999900036,None,1,decreament,0.6,41,standard,None,100,,,,,,,f,21,236,fr,r,0,raw,2023-04-17_09h27.50.228,oddball,2022.2.5,60.098501424270474,
20,,,,,0,0,0,3,3,0,3,0,19,0,19,0,,,,,,,,,,,,,,,,,520.715670000005,521.2650217000046,521.2650217000046,521.8645988000208,0.614774200017564,521.8645988000208,523.8796908999793,2.6298699000035413,None,1,decreament,0.6,41,standard,None,100,,,,,,,f,21,236,fr,r,0,raw,2023-04-17_09h27.50.228,oddball,2022.2.5,60.098501424270474,
20,,,,,0,0,0,3,3,0,3,0,20,0,20,0,,,,,,,,,,,,,,,,,523.8967751000309,524.5625954000279,524.5625954000279,525.1621012000251,0.5991869000135921,525.1621012000251,527.1772575000068,2.6136453000362962,None,1,decreament,0.6,41,standard,None,100,,,,,,,f,21,236,fr,r,0,raw,2023-04-17_09h27.50.228,oddball,2022.2.5,60.098501424270474,
20,,,,,0,0,0,3,3,0,3,0,21,0,21,0,,,,,,,,,,,,,,,,,527.1772575000068,527.7597843999974,527.7597843999974,528.3592255000258,0.615389899990987,528.3592255000258,530.3744465999771,2.6306034000008367,None,1,decreament,0.6,41,standard,None,100,,,,,,,f,21,236,fr,r,0,raw,2023-04-17_09h27.50.228,oddball,2022.2.5,60.098501424270474,
20,,,,,0,0,0,3,3,0,3,0,22,0,22,0,,,,,,,,,,,,,,,,,530.3912522000028,530.9907638999866,530.9907638999866,531.5900800999952,0.6148066999739967,531.5900800999952,533.6047539000283,2.629426700004842,None,1,decreament,0.6,41,standard,None,100,,,,,,,f,21,236,fr,r,0,raw,2023-04-17_09h27.50.228,oddball,2022.2.5,60.098501424270474,
20,,,,,0,0,0,3,3,0,3,0,23,0,23,0,,,,,,,,,,,,,,,,,533.6217044999939,534.3375560999848,534.3375560999848,534.9374689999968,0.6154684000066482,534.9374689999968,536.952063100005,2.6300562000251375,None,1,decreament,0.6,41,standard,None,100,,,,,,,f,21,236,fr,r,0,raw,2023-04-17_09h27.50.228,oddball,2022.2.5,60.098501424270474,
20,,,,,0,0,0,3,3,0,3,0,24,0,24,0,,,,,,,,,,,,,,,,,536.9689145000302,537.6848211000324,537.6848211000324,538.2846742999973,0.615519100043457,538.2846742999973,540.2994728999911,2.6303070000139996,None,1,decreament,0.6,41,standard,None,100,,,,,,,f,21,236,fr,r,0,raw,2023-04-17_09h27.50.228,oddball,2022.2.5,60.098501424270474,
20,,,,,0,0,0,3,3,0,3,0,25,0,25,0,,,,,,,,,,,,,,,,,540.3161955000251,541.0820280000335,541.0820280000335,541.6655128999846,0.5991682999883778,541.681454000005,543.6799156999914,2.6135698999860324,None,1,decreament,0.6,41,standard,None,100,,,,,,,f,21,236,fr,r,0,raw,2023-04-17_09h27.50.228,oddball,2022.2.5,60.098501424270474,
20,,,,,0,0,0,3,3,0,3,0,26,0,26,0,,,,,,,,,,,,,,,,,543.6968986000284,544.2462905999855,544.2462905999855,544.8294411000097,0.5990297999815084,544.8456874000258,546.8442965000286,2.6138653999660164,None,1,decreament,0.6,41,standard,None,100,,,,,,,f,21,236,fr,r,0,raw,2023-04-17_09h27.50.228,oddball,2022.2.5,60.098501424270474,
20,,,,,0,0,0,3,3,0,3,0,27,0,27,0,,,,,,,,,,,,,,,,,546.8609217000194,547.7435190000106,547.7435190000106,548.3427927999874,0.6151741999783553,548.3427927999874,550.3578215999878,2.630223299958743,None,1,decreament,0.6,41,standard,None,100,,,,,,,f,21,236,fr,r,0,raw,2023-04-17_09h27.50.228,oddball,2022.2.5,60.098501424270474,
20,,,,,0,0,0,3,3,0,3,0,28,0,28,0,,,,,,,,,,,,,,,,,550.3746748000267,550.9576407999848,550.9576407999848,551.5571894000168,0.59919970005285,551.5571894000168,553.5722630000091,2.6136687000398524,None,1,decreament,0.6,41,standard,None,100,,,,,,,f,21,236,fr,r,0,raw,2023-04-17_09h27.50.228,oddball,2022.2.5,60.098501424270474,
20,,,,,0,0,0,3,3,0,3,0,29,0,29,0,,,,,,,,,,,,,,,,,553.5722630000091,554.2547064999817,554.2547064999817,554.8541560000158,0.5990122000221163,554.8541560000158,556.8696382999769,2.614070100011304,None,1,decreament,0.6,41,standard,None,100,,,,,,,f,21,236,fr,r,0,raw,2023-04-17_09h27.50.228,oddball,2022.2.5,60.098501424270474,
20,,,,,0,0,0,3,4,0,4,0,0,0,0,0,,,,,,,,,,,,,,,558.5253347000107,558.5253347000107,590.7417042999878,591.4075903000194,591.4075903000194,592.0071450999822,0.6152475000126287,592.0071450999822,594.021935900033,2.6300472000148147,None,1,increament,0.6,45,standard,None,100,,556.8696382999769,0.0018054000101983547,,,,f,21,236,fr,r,0,raw,2023-04-17_09h27.50.228,oddball,2022.2.5,60.098501424270474,
20,,,,,0,0,0,3,4,0,4,0,1,0,1,0,,,,,,,,,,,,,,,,,594.0385649999953,594.6880383000243,594.6880383000243,595.2876017999952,0.6151089000049978,595.2876017999952,597.3025218999828,2.6300499999779277,None,1,increament,0.6,45,standard,None,100,,,,,,,f,21,236,fr,r,0,raw,2023-04-17_09h27.50.228,oddball,2022.2.5,60.098501424270474,
20,,,,,0,0,0,3,4,0,4,0,2,0,2,0,,,,,,,,,,,,,,,,,597.3198310000007,598.0685777000035,598.0685777000035,598.668109500024,0.6145417999941856,598.668109500024,600.6830491999863,2.629467599967029,None,1,increament,0.6,45,standard,None,100,,,,,,,f,21,236,fr,r,0,raw,2023-04-17_09h27.50.228,oddball,2022.2.5,60.098501424270474,
20,,,,,0,0,0,3,4,0,4,0,3,0,3,0,,,,,,,,,,,,,,,,,600.7000942000304,601.2662225000095,601.2662225000095,601.8660244999919,0.5990746999741532,601.8660244999919,603.8808429000201,2.6139680999913253,None,1,increament,0.6,45,standard,None,100,,,,,,,f,21,236,fr,r,0,raw,2023-04-17_09h27.50.228,oddball,2022.2.5,60.098501424270474,
20,,,,,0,0,0,3,4,0,4,0,4,0,4,0,,,,,,,,,,,,,,,,,603.8808429000201,604.5802127000061,604.5802127000061,605.1796965000103,0.6147060999646783,605.1796965000103,607.1944177999976,2.6294000999769196,None,1,increament,0.6,45,standard,None,100,,,,,,,f,21,236,fr,r,0,raw,2023-04-17_09h27.50.228,oddball,2022.2.5,60.098501424270474,
20,,,,,0,0,0,3,4,0,4,0,5,0,5,0,,,,,,,,,,,,,,,,,607.211404200003,607.8771295000333,607.8771295000333,608.4767225999967,0.6150649999617599,608.4767225999967,610.4924050000263,2.630775099969469,None,1,increament,0.6,45,standard,None,100,,,,,,,f,21,236,fr,r,0,raw,2023-04-17_09h27.50.228,oddball,2022.2.5,60.098501424270474,
20,,,,,0,0,0,3,4,0,4,0,6,0,6,0,,,,,,,,,,,,,,,,,610.5084879000206,611.1912489000242,611.1912489000242,611.7911097999895,0.6155524000059813,611.7911097999895,613.8057978000143,2.6302863000310026,None,1,increament,0.6,45,standard,None,100,,,,,,,f,21,236,fr,r,0,raw,2023-04-17_09h27.50.228,oddball,2022.2.5,60.098501424270474,
20,,,,,0,0,0,3,4,0,4,0,7,0,7,0,,,,,,,,,,,,,,,,,613.8227646999876,614.5055895000114,614.5055895000114,615.1046171999769,0.6152644999674521,615.1046171999769,617.1197707999963,2.6303836000151932,None,1,increament,0.6,45,standard,None,100,,,,,,,f,21,236,fr,r,0,raw,2023-04-17_09h27.50.228,oddball,2022.2.5,60.098501424270474,
20,,,,,0,0,0,3,4,0,4,0,8,0,8,0,,,,,,,,,,,,,,,,,617.1363737999927,617.6858174999943,617.6858174999943,618.2853350000223,0.6151593999820761,618.2853350000223,620.3004657999845,2.630263500032015,None,1,increament,0.6,45,standard,None,100,,,,,,,f,21,236,fr,r,0,raw,2023-04-17_09h27.50.228,oddball,2022.2.5,60.098501424270474,
20,,,,,0,0,0,3,4,0,4,0,9,0,9,0,,,,,,,,,,,,,,,,,620.3169787999941,620.8664936000132,620.8664936000132,621.6996961000259,0.8490065000369214,621.7162488999893,623.7140858999919,2.863347700040322,j,1,increament,0.84,47,oddball,j,140,0.5653159000212327,,,,,,f,21,236,fr,r,0,raw,2023-04-17_09h27.50.228,oddball,2022.2.5,60.098501424270474,
20,,,,,0,0,0,3,4,0,4,0,10,0,10,0,,,,,,,,,,,,,,,,,623.7307311000186,624.2475224999944,624.2475224999944,624.8467230999959,0.6155771000194363,624.8467230999959,626.8617998000118,2.630618199997116,None,1,increament,0.6,45,standard,None,100,,,,,,,f,21,236,fr,r,0,raw,2023-04-17_09h27.50.228,oddball,2022.2.5,60.098501424270474,
20,,,,,0,0,0,3,4,0,4,0,11,0,11,0,,,,,,,,,,,,,,,,,626.8786562000168,627.6109319999814,627.6109319999814,628.1940712999785,0.5992370000458322,628.2108338000253,630.2090484999935,2.614296500047203,None,1,increament,0.6,45,standard,None,100,,,,,,,f,21,236,fr,r,0,raw,2023-04-17_09h27.50.228,oddball,2022.2.5,60.098501424270474,
20,,,,,0,0,0,3,4,0,4,0,12,0,12,0,,,,,,,,,,,,,,,,,630.2258777000243,630.8750802000286,630.8750802000286,631.4746597000048,0.6152915999991819,631.4746597000048,633.489785999991,2.630371200037189,None,1,increament,0.6,45,standard,None,100,,,,,,,f,21,236,fr,r,0,raw,2023-04-17_09h27.50.228,oddball,2022.2.5,60.098501424270474,
20,,,,,0,0,0,3,4,0,4,0,13,0,13,0,,,,,,,,,,,,,,,,,633.5060220999876,634.1060676000197,634.1060676000197,635.0548202000209,0.9644225999945775,635.0715753000113,637.0702763000154,2.9798978000180796,j,1,increament,0.96,48,oddball,j,160,0.5153438000124879,,,,,,f,21,236,fr,r,0,raw,2023-04-17_09h27.50.228,oddball,2022.2.5,60.098501424270474,
20,,,,,0,0,0,3,4,0,4,0,14,0,14,0,,,,,,,,,,,,,,,,,637.087033400021,637.8029997000122,637.8029997000122,638.4020061999909,0.6151060000411235,638.4020061999909,640.4173331999918,2.6304401000379585,None,1,increament,0.6,45,standard,None,100,,,,,,,f,21,236,fr,r,0,raw,2023-04-17_09h27.50.228,oddball,2022.2.5,60.098501424270474,
20,,,,,0,0,0,3,4,0,4,0,15,0,15,0,,,,,,,,,,,,,,,,,640.4344851999776,641.1170053000096,641.1170053000096,641.6996947000152,0.5990353999659419,641.7164791999967,643.7142622999963,2.6135022999951616,None,1,increament,0.6,45,standard,None,100,,,,,,,f,21,236,fr,r,0,raw,2023-04-17_09h27.50.228,oddball,2022.2.5,60.098501424270474,
20,,,,,0,0,0,3,4,0,4,0,16,0,16,0,,,,,,,,,,,,,,,,,643.7318386000115,644.3805555999861,644.3805555999861,644.9803876000224,0.6152542000054382,644.9803876000224,646.9953027000302,2.6301887999870814,None,1,increament,0.6,45,standard,None,100,,,,,,,f,21,236,fr,r,0,raw,2023-04-17_09h27.50.228,oddball,2022.2.5,60.098501424270474,
20,,,,,0,0,0,3,4,0,4,0,17,0,17,0,,,,,,,,,,,,,,,,,647.0119276000187,647.72834099998,647.72834099998,648.3281706999987,0.6160044000134803,648.3438457000302,650.3422709000297,2.630044200050179,None,1,increament,0.6,45,standard,None,100,,,,,,,f,21,236,fr,r,0,raw,2023-04-17_09h27.50.228,oddball,2022.2.5,60.098501424270474,
20,,,,,0,0,0,3,4,0,4,0,18,0,18,0,,,,,,,,,,,,,,,,,650.3588906999794,650.9586407000315,650.9586407000315,651.5414345000172,0.5990081999916583,651.5580479999771,653.5565715000266,2.614097199984826,None,1,increament,0.6,45,standard,None,100,,,,,,,f,21,236,fr,r,0,raw,2023-04-17_09h27.50.228,oddball,2022.2.5,60.098501424270474,
20,,,,,0,0,0,3,4,0,4,0,19,0,19,0,,,,,,,,,,,,,,,,,653.573472100019,654.2728800000041,654.2728800000041,654.8722413000069,0.6155330999754369,654.8722413000069,656.8868330999976,2.6301063999999315,None,1,increament,0.6,45,standard,None,100,,,,,,,f,21,236,fr,r,0,raw,2023-04-17_09h27.50.228,oddball,2022.2.5,60.098501424270474,
20,,,,,0,0,0,3,4,0,4,0,20,0,20,0,,,,,,,,,,,,,,,,,656.9041475999984,657.7030842999811,657.7030842999811,658.3023168999935,0.6150015000021085,658.3023168999935,660.3175863000215,2.6302450000075623,None,1,increament,0.6,45,standard,None,100,,,,,,,f,21,236,fr,r,0,raw,2023-04-17_09h27.50.228,oddball,2022.2.5,60.098501424270474,
20,,,,,0,0,0,3,4,0,4,0,21,0,21,0,,,,,,,,,,,,,,,,,660.3341581000132,660.9333827000228,660.9333827000228,661.5330407000147,0.6150564000126906,661.5330407000147,663.5481512999977,2.630161400011275,None,1,increament,0.6,45,standard,None,100,,,,,,,f,21,236,fr,r,0,raw,2023-04-17_09h27.50.228,oddball,2022.2.5,60.098501424270474,
20,,,,,0,0,0,3,4,0,4,0,22,0,22,0,,,,,,,,,,,,,,,,,663.5647874000133,664.3141608000151,664.3141608000151,664.9137685000314,0.6150453999871388,664.9137685000314,666.9287652000203,2.630031800013967,None,1,increament,0.6,45,standard,None,100,,,,,,,f,21,236,fr,r,0,raw,2023-04-17_09h27.50.228,oddball,2022.2.5,60.098501424270474,
20,,,,,0,0,0,3,4,0,4,0,23,0,23,0,,,,,,,,,,,,,,,,,666.9455686000292,667.6616448999848,667.6616448999848,668.2613686000113,0.6152472000103444,668.2613686000113,670.2761419999879,2.6300287000485696,None,1,increament,0.6,45,standard,None,100,,,,,,,f,21,236,fr,r,0,raw,2023-04-17_09h27.50.228,oddball,2022.2.5,60.098501424270474,
20,,,,,0,0,0,3,4,0,4,0,24,0,24,0,,,,,,,,,,,,,,,,,670.2928087000037,671.0251570999972,671.0251570999972,671.7414821999846,0.7319227000116371,671.7583321999991,673.7562517999904,2.7466803999850526,None,0,increament,0.72,46,oddball,j,120,,,,,,,f,21,236,fr,r,0,raw,2023-04-17_09h27.50.228,oddball,2022.2.5,60.098501424270474,
20,,,,,0,0,0,3,4,0,4,0,25,0,25,0,,,,,,,,,,,,,,,,,673.7729358000215,674.5223348999862,674.5223348999862,675.1218412999879,0.614865799958352,675.1218412999879,677.1370370999794,2.630059299990535,None,1,increament,0.6,45,standard,None,100,,,,,,,f,21,236,fr,r,0,raw,2023-04-17_09h27.50.228,oddball,2022.2.5,60.098501424270474,
20,,,,,0,0,0,3,4,0,4,0,26,0,26,0,,,,,,,,,,,,,,,,,677.153867200017,677.8536670000176,677.8536670000176,678.4524786000256,0.6150805000215769,678.4524786000256,680.4674770000274,2.6300721000297926,None,1,increament,0.6,45,standard,None,100,,,,,,,f,21,236,fr,r,0,raw,2023-04-17_09h27.50.228,oddball,2022.2.5,60.098501424270474,
20,,,,,0,0,0,3,4,0,4,0,27,0,27,0,,,,,,,,,,,,,,,,,680.4843124999898,681.2340062999865,681.2340062999865,681.8333442999865,0.6151925000012852,681.8333442999865,683.8481814999832,2.6300283999880776,None,1,increament,0.6,45,standard,None,100,,,,,,,f,21,236,fr,r,0,raw,2023-04-17_09h27.50.228,oddball,2022.2.5,60.098501424270474,
20,,,,,0,0,0,3,4,0,4,0,28,0,28,0,,,,,,,,,,,,,,,,,683.8650125000277,684.7812602000195,684.7812602000195,685.3800174000207,0.6148719000048004,685.3968001999892,687.395222000021,2.6300743000465445,None,1,increament,0.6,45,standard,None,100,,,,,,,f,21,236,fr,r,0,raw,2023-04-17_09h27.50.228,oddball,2022.2.5,60.098501424270474,
20,,,,,0,0,0,3,4,0,4,0,29,0,29,0,,,,,,,,,,,,,,,,,687.411642000021,688.0945928000147,688.0945928000147,688.6945766999852,0.5992450999910943,688.6945766999852,690.7091786999954,2.613933000015095,None,1,increament,0.6,45,standard,None,100,,,,,,,f,21,236,fr,r,0,raw,2023-04-17_09h27.50.228,oddball,2022.2.5,60.098501424270474,
20,,,,,0,0,0,3,5,0,5,0,0,0,0,0,,,,,,,,,,,,,,,701.19056800002,701.19056800002,725.0309894999955,725.6138120000251,725.6138120000251,726.2132581000333,0.6149482999462634,726.2132581000333,728.2284782999777,2.6301751999999397,None,1,decreament,0.6,41,standard,None,100,,690.7091786999954,0.0021219999762251973,,,,f,21,236,fr,r,0,raw,2023-04-17_09h27.50.228,oddball,2022.2.5,60.098501424270474,
20,,,,,0,0,0,3,5,0,5,0,1,0,1,0,,,,,,,,,,,,,,,,,728.2448872000095,728.79501110001,728.79501110001,729.3939980000141,0.615461899957154,729.3939980000141,731.4090261000092,2.6305548999807797,None,1,decreament,0.6,41,standard,None,100,,,,,,,f,21,236,fr,r,0,raw,2023-04-17_09h27.50.228,oddball,2022.2.5,60.098501424270474,
20,,,,,0,0,0,3,5,0,5,0,2,0,2,0,,,,,,,,,,,,,,,,,731.4255642999779,732.0584869000013,732.0584869000013,732.6581273000338,0.6153518999926746,732.6581273000338,734.6731781000271,2.6303476000321098,None,1,decreament,0.6,41,standard,None,100,,,,,,,f,21,236,fr,r,0,raw,2023-04-17_09h27.50.228,oddball,2022.2.5,60.098501424270474,
20,,,,,0,0,0,3,5,0,5,0,3,0,3,0,,,,,,,,,,,,,,,,,734.6896946000052,735.3063003999996,735.3063003999996,735.9059466000181,0.6156494000460953,735.9059466000181,737.920462900016,2.630126800038852,None,1,decreament,0.6,41,standard,None,100,,,,,,,f,21,236,fr,r,0,raw,2023-04-17_09h27.50.228,oddball,2022.2.5,60.098501424270474,
20,,,,,0,0,0,3,5,0,5,0,4,0,4,0,,,,,,,,,,,,,,,,,737.9370484999963,738.5198352999869,738.5198352999869,739.1191995000117,0.6150949000148103,739.1191995000117,741.1343048000126,2.6302448000060394,None,1,decreament,0.6,41,standard,None,100,,,,,,,f,21,236,fr,r,0,raw,2023-04-17_09h27.50.228,oddball,2022.2.5,60.098501424270474,
20,,,,,0,0,0,3,5,0,5,0,5,0,5,0,,,,,,,,,,,,,,,,,741.1511824000045,741.9334936999949,741.9334936999949,742.1666839999962,0.24891020002542064,742.1831760000205,744.1815996000078,2.26385869999649,j,1,decreament,0.24,42,oddball,j,40,0.5211386000155471,,,,,,f,21,236,fr,r,0,raw,2023-04-17_09h27.50.228,oddball,2022.2.5,60.098501424270474,
20,,,,,0,0,0,3,5,0,5,0,6,0,6,0,,,,,,,,,,,,,,,,,744.1983383999905,744.8144069000264,744.8144069000264,745.4140536999912,0.5991429000278004,745.4140536999912,747.429271400033,2.613739699998405,None,1,decreament,0.6,41,standard,None,100,,,,,,,f,21,236,fr,r,0,raw,2023-04-17_09h27.50.228,oddball,2022.2.5,60.098501424270474,
20,,,,,0,0,0,3,5,0,5,0,7,0,7,0,,,,,,,,,,,,,,,,,747.429271400033,748.0618713999866,748.0618713999866,748.6448621000163,0.5991494999616407,748.6614831000334,750.6597636999795,2.614066099980846,None,1,decreament,0.6,41,standard,None,100,,,,,,,f,21,236,fr,r,0,raw,2023-04-17_09h27.50.228,oddball,2022.2.5,60.098501424270474,
20,,,,,0,0,0,3,5,0,5,0,8,0,8,0,,,,,,,,,,,,,,,,,750.6764844999998,751.3089846000075,751.3089846000075,751.8926585000008,0.5996878999867477,751.908772499999,753.907102200028,2.614118800032884,None,1,decreament,0.6,41,standard,None,100,,,,,,,f,21,236,fr,r,0,raw,2023-04-17_09h27.50.228,oddball,2022.2.5,60.098501424270474,
20,,,,,0,0,0,3,5,0,5,0,9,0,9,0,,,,,,,,,,,,,,,,,753.9237541999901,754.6232229000307,754.6232229000307,754.9732585999882,0.3662435000296682,754.9893491999828,756.9877046000329,2.3806728000054136,j,1,decreament,0.36,43,oddball,j,60,0.6433828999870457,,,,,,f,21,236,fr,r,0,raw,2023-04-17_09h27.50.228,oddball,2022.2.5,60.098501424270474,
20,,,,,0,0,0,3,5,0,5,0,10,0,10,0,,,,,,,,,,,,,,,,,757.0046058000298,757.63741570001,757.63741570001,758.2368686000118,0.599213499983307,758.2368686000118,760.2518852999783,2.6140450999955647,None,1,decreament,0.6,41,standard,None,100,,,,,,,f,21,236,fr,r,0,raw,2023-04-17_09h27.50.228,oddball,2022.2.5,60.098501424270474,
20,,,,,0,0,0,3,5,0,5,0,11,0,11,0,,,,,,,,,,,,,,,,,760.2518852999783,760.8680441000033,760.8680441000033,761.4676603000262,0.6154169000219554,761.4676603000262,763.4827178000123,2.6302023000316694,None,1,decreament,0.6,41,standard,None,100,,,,,,,f,21,236,fr,r,0,raw,2023-04-17_09h27.50.228,oddball,2022.2.5,60.098501424270474,
20,,,,,0,0,0,3,5,0,5,0,12,0,12,0,,,,,,,,,,,,,,,,,763.4993600000162,764.215403500013,764.215403500013,764.8149336000206,0.6157827000133693,764.8149336000206,766.8299316000193,2.6307733000139706,None,1,decreament,0.6,41,standard,None,100,,,,,,,f,21,236,fr,r,0,raw,2023-04-17_09h27.50.228,oddball,2022.2.5,60.098501424270474,
20,,,,,0,0,0,3,5,0,5,0,13,0,13,0,,,,,,,,,,,,,,,,,766.8466355000273,767.4960688999854,767.4960688999854,768.0788803999894,0.5992246000096202,768.0953569000121,770.0935375000117,2.6138789000106044,None,1,decreament,0.6,41,standard,None,100,,,,,,,f,21,236,fr,r,0,raw,2023-04-17_09h27.50.228,oddball,2022.2.5,60.098501424270474,
20,,,,,0,0,0,3,5,0,5,0,14,0,14,0,,,,,,,,,,,,,,,,,770.1105561000295,770.8597853999818,770.8597853999818,771.4426000000094,0.5992730000289157,771.4594019000069,773.4576385000255,2.614310100034345,None,1,decreament,0.6,41,standard,None,100,,,,,,,f,21,236,fr,r,0,raw,2023-04-17_09h27.50.228,oddball,2022.2.5,60.098501424270474,
20,,,,,0,0,0,3,5,0,5,0,15,0,15,0,,,,,,,,,,,,,,,,,773.4743967999821,774.1237412000191,774.1237412000191,774.7066730000079,0.6154916000086814,774.7232494999771,776.72187020001,2.630360200011637,None,1,decreament,0.6,41,standard,None,100,,,,,,,f,21,236,fr,r,0,raw,2023-04-17_09h27.50.228,oddball,2022.2.5,60.098501424270474,
20,,,,,0,0,0,3,5,0,5,0,16,0,16,0,,,,,,,,,,,,,,,,,776.7551109999768,777.2877883000183,777.2877883000183,777.8874415000319,0.5990152999875136,777.8874415000319,779.9023419999867,2.613888899970334,None,1,decreament,0.6,41,standard,None,100,,,,,,,f,21,236,fr,r,0,raw,2023-04-17_09h27.50.228,oddball,2022.2.5,60.098501424270474,
20,,,,,0,0,0,3,5,0,5,0,17,0,17,0,,,,,,,,,,,,,,,,,779.9023419999867,780.4521090000053,780.4521090000053,781.0345557000255,0.6156743000028655,781.0512618999928,783.0504445999977,2.6149045000202022,None,1,decreament,0.6,41,standard,None,100,,,,,,,f,21,236,fr,r,0,raw,2023-04-17_09h27.50.228,oddball,2022.2.5,60.098501424270474,
20,,,,,0,0,0,3,5,0,5,0,18,0,18,0,,,,,,,,,,,,,,,,,783.0669772999827,783.7165261000046,783.7165261000046,784.3156633999897,0.6149046000209637,784.3156633999897,786.3304343000054,2.6296436000266112,None,1,decreament,0.6,41,standard,None,100,,,,,,,f,21,236,fr,r,0,raw,2023-04-17_09h27.50.228,oddball,2022.2.5,60.098501424270474,
20,,,,,0,0,0,3,5,0,5,0,19,0,19,0,,,,,,,,,,,,,,,,,786.3468538000016,787.063409800001,787.063409800001,787.6629565000185,0.6155841000145301,787.6629565000185,789.6776325000101,2.6302146000089124,None,1,decreament,0.6,41,standard,None,100,,,,,,,f,21,236,fr,r,0,raw,2023-04-17_09h27.50.228,oddball,2022.2.5,60.098501424270474,
20,,,,,0,0,0,3,5,0,5,0,20,0,20,0,,,,,,,,,,,,,,,,,789.6944726000074,790.2771570000332,790.2771570000332,790.8600722000119,0.5992722000228241,790.8767607000191,792.8747837999836,2.613946500001475,None,1,decreament,0.6,41,standard,None,100,,,,,,,f,21,236,fr,r,0,raw,2023-04-17_09h27.50.228,oddball,2022.2.5,60.098501424270474,
20,,,,,0,0,0,3,5,0,5,0,21,0,21,0,,,,,,,,,,,,,,,,,792.8917694999836,793.45802369999,793.45802369999,794.0407560000313,0.59915289998753,794.0573909999803,796.0557719999924,2.6141757000004873,None,1,decreament,0.6,41,standard,None,100,,,,,,,f,21,236,fr,r,0,raw,2023-04-17_09h27.50.228,oddball,2022.2.5,60.098501424270474,
20,,,,,0,0,0,3,5,0,5,0,22,0,22,0,,,,,,,,,,,,,,,,,796.0725338999764,796.6552856999915,796.6552856999915,797.2546279000235,0.5992034000228159,797.2546279000235,799.2697316000122,2.61392800003523,None,1,decreament,0.6,41,standard,None,100,,,,,,,f,21,236,fr,r,0,raw,2023-04-17_09h27.50.228,oddball,2022.2.5,60.098501424270474,
20,,,,,0,0,0,3,5,0,5,0,23,0,23,0,,,,,,,,,,,,,,,,,799.2697316000122,799.9359638000024,799.9359638000024,800.5186143000028,0.5991434000316076,800.5353440000326,802.5336443000124,2.6141473000170663,None,1,decreament,0.6,41,standard,None,100,,,,,,,f,21,236,fr,r,0,raw,2023-04-17_09h27.50.228,oddball,2022.2.5,60.098501424270474,
20,,,,,0,0,0,3,5,0,5,0,24,0,24,0,,,,,,,,,,,,,,,,,802.5504158000113,803.2496014999924,803.2496014999924,803.8495338999783,0.6157841000240296,803.8495338999783,805.864209100022,2.6304554999805987,None,1,decreament,0.6,41,standard,None,100,,,,,,,f,21,236,fr,r,0,raw,2023-04-17_09h27.50.228,oddball,2022.2.5,60.098501424270474,
20,,,,,0,0,0,3,5,0,5,0,25,0,25,0,,,,,,,,,,,,,,,,,805.8815016000299,806.4305507999961,806.4305507999961,806.8969011000008,0.48270120000233874,806.9133183999802,808.9116383999935,2.497421999985818,None,0,decreament,0.48,44,oddball,j,80,,,,,,,f,21,236,fr,r,0,raw,2023-04-17_09h27.50.228,oddball,2022.2.5,60.098501424270474,
20,,,,,0,0,0,3,5,0,5,0,26,0,26,0,,,,,,,,,,,,,,,,,808.9283586000092,809.5781823000289,809.5781823000289,810.177517300006,0.5990435000276193,810.177517300006,812.1924925000058,2.6141260000295006,None,1,decreament,0.6,41,standard,None,100,,,,,,,f,21,236,fr,r,0,raw,2023-04-17_09h27.50.228,oddball,2022.2.5,60.098501424270474,
20,,,,,0,0,0,3,5,0,5,0,27,0,27,0,,,,,,,,,,,,,,,,,812.1924925000058,812.7584551000036,812.7584551000036,813.3579536000034,0.5991520000388846,813.3579536000034,815.3733939999947,2.6139045000309125,None,1,decreament,0.6,41,standard,None,100,,,,,,,f,21,236,fr,r,0,raw,2023-04-17_09h27.50.228,oddball,2022.2.5,60.098501424270474,
20,,,,,0,0,0,3,5,0,5,0,28,0,28,0,,,,,,,,,,,,,,,,,815.3733939999947,815.956064100028,815.956064100028,816.5558797999984,0.6152893000398763,816.5558797999984,818.5706380999763,2.6300857000169344,None,1,decreament,0.6,41,standard,None,100,,,,,,,f,21,236,fr,r,0,raw,2023-04-17_09h27.50.228,oddball,2022.2.5,60.098501424270474,
20,,,,,0,0,0,3,5,0,5,0,29,0,29,0,,,,,,,,,,,,,,,,,818.5877178999945,819.1534351999871,819.1534351999871,819.7529869999853,0.6155668999999762,819.7529869999853,821.7678967000102,2.6304701999761164,None,1,decreament,0.6,41,standard,None,100,,,,,,,f,21,236,fr,r,0,raw,2023-04-17_09h27.50.228,oddball,2022.2.5,60.098501424270474,
20,,,,,0,0,0,3,6,0,6,0,0,0,0,0,,,,,,,,,,,,,,,839.4266948000295,839.4266948000295,877.3721878000069,877.9388093000161,877.9388093000161,878.5379762999946,0.6109851999790408,878.5379762999946,880.553125699982,2.626130299991928,None,1,increament,0.6,45,standard,None,100,,821.7846205999958,0.0005098000401630998,,,,f,21,236,fr,r,0,raw,2023-04-17_09h27.50.228,oddball,2022.2.5,60.098501424270474,
20,,,,,0,0,0,3,6,0,6,0,1,0,1,0,,,,,,,,,,,,,,,,,880.5694460999803,881.2356706000282,881.2356706000282,881.8186319000088,0.5991315999999642,881.8351931999787,883.8335659999866,2.614072699972894,None,1,increament,0.6,45,standard,None,100,,,,,,,f,21,236,fr,r,0,raw,2023-04-17_09h27.50.228,oddball,2022.2.5,60.098501424270474,
20,,,,,0,0,0,3,6,0,6,0,2,0,2,0,,,,,,,,,,,,,,,,,883.8503256000113,884.566309100017,884.566309100017,885.14908990002,0.5990040000178851,885.1660452000215,887.1642038000282,2.614129800000228,None,1,increament,0.6,45,standard,None,100,,,,,,,f,21,236,fr,r,0,raw,2023-04-17_09h27.50.228,oddball,2022.2.5,60.098501424270474,
20,,,,,0,0,0,3,6,0,6,0,3,0,3,0,,,,,,,,,,,,,,,,,887.1807998000295,887.8136876000208,887.8136876000208,888.3963586000027,0.6159022999927402,888.4132261000341,890.411419800017,2.63089279999258,None,1,increament,0.6,45,standard,None,100,,,,,,,f,21,236,fr,r,0,raw,2023-04-17_09h27.50.228,oddball,2022.2.5,60.098501424270474,
20,,,,,0,0,0,3,6,0,6,0,4,0,4,0,,,,,,,,,,,,,,,,,890.444706499984,891.1612103999942,891.1612103999942,891.7440774000133,0.5990070000407286,891.7610131999827,893.7588513999945,2.613751500030048,None,1,increament,0.6,45,standard,None,100,,,,,,,f,21,236,fr,r,0,raw,2023-04-17_09h27.50.228,oddball,2022.2.5,60.098501424270474,
20,,,,,0,0,0,3,6,0,6,0,5,0,5,0,,,,,,,,,,,,,,,,,893.7758721000282,894.4587693000212,894.4587693000212,895.0578235000139,0.6151665999786928,895.0578235000139,897.07320600003,2.6305437000119127,None,1,increament,0.6,45,standard,None,100,,,,,,,f,21,236,fr,r,0,raw,2023-04-17_09h27.50.228,oddball,2022.2.5,60.098501424270474,
20,,,,,0,0,0,3,6,0,6,0,6,0,6,0,,,,,,,,,,,,,,,,,897.0897012000205,897.9221856999793,897.9221856999793,898.5219565000152,0.5990579000208527,898.5219565000152,900.5367951000226,2.6137201000237837,j,0,increament,0.6,45,standard,None,100,0.9322642000042833,,,,,,f,21,236,fr,r,0,raw,2023-04-17_09h27.50.228,oddball,2022.2.5,60.098501424270474,
20,,,,,0,0,0,3,6,0,6,0,7,0,7,0,,,,,,,,,,,,,,,,,900.5367951000226,901.136399400013,901.136399400013,901.7355095000239,0.6147488999995403,901.7355095000239,903.734282999998,2.6302044999902137,None,1,increament,0.6,45,standard,None,100,,,,,,,f,21,236,fr,r,0,raw,2023-04-17_09h27.50.228,oddball,2022.2.5,60.098501424270474,
20,,,,,0,0,0,3,6,0,6,0,8,0,8,0,,,,,,,,,,,,,,,,,903.7676899000071,904.483752500033,904.483752500033,905.0827892000088,0.5990264000138268,905.0827892000088,907.0984480000334,2.6138660999713466,None,1,increament,0.6,45,standard,None,100,,,,,,,f,21,236,fr,r,0,raw,2023-04-17_09h27.50.228,oddball,2022.2.5,60.098501424270474,
20,,,,,0,0,0,3,6,0,6,0,9,0,9,0,,,,,,,,,,,,,,,,,907.0984480000334,907.8308960000286,907.8308960000286,908.5467743999907,0.7311681999708526,908.5633811000152,910.5618225000217,2.7462008000002243,j,1,increament,0.72,46,oddball,j,120,0.6783008000347763,,,,,,f,21,236,fr,r,0,raw,2023-04-17_09h27.50.228,oddball,2022.2.5,60.098501424270474,
20,,,,,0,0,0,3,6,0,6,0,10,0,10,0,,,,,,,,,,,,,,,,,910.5787352999905,911.2947941999882,911.2947941999882,911.8940435000113,0.6152708999579772,911.8940435000113,913.9095054999925,2.63074129994493,None,1,increament,0.6,45,standard,None,100,,,,,,,f,21,236,fr,r,0,raw,2023-04-17_09h27.50.228,oddball,2022.2.5,60.098501424270474,
20,,,,,0,0,0,3,6,0,6,0,11,0,11,0,,,,,,,,,,,,,,,,,913.9259473999846,914.6750565000111,914.6750565000111,915.2583388999919,0.5990500000189058,915.2747909000027,917.2729271000135,2.6135515000205487,None,1,increament,0.6,45,standard,None,100,,,,,,,f,21,236,fr,r,0,raw,2023-04-17_09h27.50.228,oddball,2022.2.5,60.098501424270474,
20,,,,,0,0,0,3,6,0,6,0,12,0,12,0,,,,,,,,,,,,,,,,,917.289754300029,917.9058994000079,917.9058994000079,918.5056694999803,0.6161025000037625,918.5056694999803,920.5202004000312,2.6305942999897525,None,1,increament,0.6,45,standard,None,100,,,,,,,f,21,236,fr,r,0,raw,2023-04-17_09h27.50.228,oddball,2022.2.5,60.098501424270474,
20,,,,,0,0,0,3,6,0,6,0,13,0,13,0,,,,,,,,,,,,,,,,,920.5372751000104,921.219654400018,921.219654400018,922.1689860000042,0.9643083999981172,922.1857468999806,924.183842700033,2.9791555000119843,j,1,increament,0.96,48,oddball,j,160,0.9342565999832004,,,,,,f,21,236,fr,r,0,raw,2023-04-17_09h27.50.228,oddball,2022.2.5,60.098501424270474,
20,,,,,0,0,0,3,6,0,6,0,14,0,14,0,,,,,,,,,,,,,,,,,924.2007930999971,924.8504618000006,924.8504618000006,925.4501247000298,0.6149358000257052,925.4501247000298,927.4644684999948,2.629281700006686,None,1,increament,0.6,45,standard,None,100,,,,,,,f,21,236,fr,r,0,raw,2023-04-17_09h27.50.228,oddball,2022.2.5,60.098501424270474,
20,,,,,0,0,0,3,6,0,6,0,15,0,15,0,,,,,,,,,,,,,,,,,927.4817035000306,928.0973858999787,928.0973858999787,928.6969104000018,0.6147293000249192,928.6969104000018,930.7120481000165,2.629877100000158,None,1,increament,0.6,45,standard,None,100,,,,,,,f,21,236,fr,r,0,raw,2023-04-17_09h27.50.228,oddball,2022.2.5,60.098501424270474,
20,,,,,0,0,0,3,6,0,6,0,16,0,16,0,,,,,,,,,,,,,,,,,930.728630800033,931.4282392000314,931.4282392000314,932.0281085000024,0.6156067999545485,932.0281085000024,934.0424233999802,2.6299190999707207,None,1,increament,0.6,45,standard,None,100,,,,,,,f,21,236,fr,r,0,raw,2023-04-17_09h27.50.228,oddball,2022.2.5,60.098501424270474,
20,,,,,0,0,0,3,6,0,6,0,17,0,17,0,,,,,,,,,,,,,,,,,934.0593370000133,934.8422204999952,934.8422204999952,935.4416038999916,0.615679899987299,935.4416038999916,937.4561555000255,2.6301662999903783,None,1,increament,0.6,45,standard,None,100,,,,,,,f,21,236,fr,r,0,raw,2023-04-17_09h27.50.228,oddball,2022.2.5,60.098501424270474,
20,,,,,0,0,0,3,6,0,6,0,18,0,18,0,,,,,,,,,,,,,,,,,937.4734240000253,938.0891895000241,938.0891895000241,938.6886667999788,0.6147301000310108,938.6886667999788,940.7040863999864,2.613635100016836,None,1,increament,0.6,45,standard,None,100,,,,,,,f,21,236,fr,r,0,raw,2023-04-17_09h27.50.228,oddball,2022.2.5,60.098501424270474,
20,,,,,0,0,0,3,6,0,6,0,19,0,19,0,,,,,,,,,,,,,,,,,940.7040863999864,941.3202749000047,941.3202749000047,941.919725899992,0.61500160000287,941.919725899992,943.9347164999926,2.6298888999735937,None,1,increament,0.6,45,standard,None,100,,,,,,,f,21,236,fr,r,0,raw,2023-04-17_09h27.50.228,oddball,2022.2.5,60.098501424270474,
20,,,,,0,0,0,3,6,0,6,0,20,0,20,0,,,,,,,,,,,,,,,,,943.9513318000245,944.7173750000075,944.7173750000075,945.3165687000146,0.6149747000308707,945.3165687000146,947.3314361000084,2.6298250000108965,None,1,increament,0.6,45,standard,None,100,,,,,,,f,21,236,fr,r,0,raw,2023-04-17_09h27.50.228,oddball,2022.2.5,60.098501424270474,
20,,,,,0,0,0,3,6,0,6,0,21,0,21,0,,,,,,,,,,,,,,,,,947.3485137000098,947.9814736000262,947.9814736000262,948.5806940000039,0.615111600025557,948.5806940000039,950.5956825999892,2.6301093000220135,None,1,increament,0.6,45,standard,None,100,,,,,,,f,21,236,fr,r,0,raw,2023-04-17_09h27.50.228,oddball,2022.2.5,60.098501424270474,
20,,,,,0,0,0,3,6,0,6,0,22,0,22,0,,,,,,,,,,,,,,,,,950.6127165000071,951.1950392000144,951.1950392000144,951.7947972000111,0.5992655999725685,951.7947972000111,953.809386399982,2.6140335999662057,None,1,increament,0.6,45,standard,None,100,,,,,,,f,21,236,fr,r,0,raw,2023-04-17_09h27.50.228,oddball,2022.2.5,60.098501424270474,
20,,,,,0,0,0,3,6,0,6,0,23,0,23,0,,,,,,,,,,,,,,,,,953.809386399982,954.525738700002,954.525738700002,955.1252713000285,0.615127399971243,955.1252713000285,957.1402051000041,2.6300576999783516,None,1,increament,0.6,45,standard,None,100,,,,,,,f,21,236,fr,r,0,raw,2023-04-17_09h27.50.228,oddball,2022.2.5,60.098501424270474,
20,,,,,0,0,0,3,6,0,6,0,24,0,24,0,,,,,,,,,,,,,,,,,957.1569531999994,957.7732782000094,957.7732782000094,958.3727110000327,0.6148898000246845,958.3727110000327,960.3877670000074,2.6299639000208117,None,1,increament,0.6,45,standard,None,100,,,,,,,f,21,236,fr,r,0,raw,2023-04-17_09h27.50.228,oddball,2022.2.5,60.098501424270474,
20,,,,,0,0,0,3,6,0,6,0,25,0,25,0,,,,,,,,,,,,,,,,,960.4041393999942,961.0702908000094,961.0702908000094,961.6697418999975,0.6150137000367977,961.6697418999975,963.6847499000141,2.6300381000037305,None,1,increament,0.6,45,standard,None,100,,,,,,,f,21,236,fr,r,0,raw,2023-04-17_09h27.50.228,oddball,2022.2.5,60.098501424270474,
20,,,,,0,0,0,3,6,0,6,0,26,0,26,0,,,,,,,,,,,,,,,,,963.7018970000208,964.2847254999797,964.2847254999797,964.8837419999763,0.6146319999825209,964.8837419999763,966.8987195999944,2.6296203999663703,None,1,increament,0.6,45,standard,None,100,,,,,,,f,21,236,fr,r,0,raw,2023-04-17_09h27.50.228,oddball,2022.2.5,60.098501424270474,
20,,,,,0,0,0,3,6,0,6,0,27,0,27,0,,,,,,,,,,,,,,,,,966.9158553000307,967.5320741999894,967.5320741999894,968.1314769000164,0.6150917999912053,968.1314769000164,970.146336500009,2.629935499979183,None,1,increament,0.6,45,standard,None,100,,,,,,,f,21,236,fr,r,0,raw,2023-04-17_09h27.50.228,oddball,2022.2.5,60.098501424270474,
20,,,,,0,0,0,3,6,0,6,0,28,0,28,0,,,,,,,,,,,,,,,,,970.163660500024,970.8960412000306,970.8960412000306,971.728438900027,0.8481775000109337,971.7450584000326,973.7430752000073,2.862807800003793,j,1,increament,0.84,47,oddball,j,140,0.6877656999859028,,,,,,f,21,236,fr,r,0,raw,2023-04-17_09h27.50.228,oddball,2022.2.5,60.098501424270474,
20,,,,,0,0,0,3,6,0,6,0,29,0,29,0,,,,,,,,,,,,,,,,,973.7597488000174,974.3764204999898,974.3764204999898,974.975623300008,0.6152985999942757,974.975623300008,976.9904341999791,2.6301143000018783,None,1,increament,0.6,45,standard,None,100,,,,,,,f,21,236,fr,r,0,raw,2023-04-17_09h27.50.228,oddball,2022.2.5,60.098501424270474,
20,,,,,0,0,0,3,7,0,7,0,0,0,0,0,,,,,,,,,,,,,,,1003.2926148999832,1003.2926148999832,1024.4182713000337,1025.101115700032,1025.101115700032,1025.7002506999997,0.6149730000179261,1025.7002506999997,1027.7156656000298,2.630430300021544,None,1,decreament,0.6,41,standard,None,100,,977.0076874999795,0.0015928000211715698,,,,f,21,236,fr,r,0,raw,2023-04-17_09h27.50.228,oddball,2022.2.5,60.098501424270474,
20,,,,,0,0,0,3,7,0,7,0,1,0,1,0,,,,,,,,,,,,,,,,,1027.7324385999818,1028.498230600031,1028.498230600031,1029.0979548000032,0.6149457999854349,1029.0979548000032,1031.1128165000118,2.62983940000413,None,1,decreament,0.6,41,standard,None,100,,,,,,,f,21,236,fr,r,0,raw,2023-04-17_09h27.50.228,oddball,2022.2.5,60.098501424270474,
20,,,,,0,0,0,3,7,0,7,0,2,0,2,0,,,,,,,,,,,,,,,,,1031.1291877999902,1031.9292421999853,1031.9292421999853,1032.528220999986,0.6150535000488162,1032.528220999986,1034.5433212000062,2.6301477000233717,None,1,decreament,0.6,41,standard,None,100,,,,,,,f,21,236,fr,r,0,raw,2023-04-17_09h27.50.228,oddball,2022.2.5,60.098501424270474,
20,,,,,0,0,0,3,7,0,7,0,3,0,3,0,,,,,,,,,,,,,,,,,1034.560363400029,1035.3425188999972,1035.3425188999972,1035.9421678999788,0.6149878000142053,1035.9421678999788,1037.9575642999844,2.630430899967905,None,1,decreament,0.6,41,standard,None,100,,,,,,,f,21,236,fr,r,0,raw,2023-04-17_09h27.50.228,oddball,2022.2.5,60.098501424270474,
20,,,,,0,0,0,3,7,0,7,0,4,0,4,0,,,,,,,,,,,,,,,,,1037.9740015999996,1038.623341700004,1038.623341700004,1039.2228577000205,0.6145421999972314,1039.2228577000205,1041.237638199993,2.6292723000515252,None,1,decreament,0.6,41,standard,None,100,,,,,,,f,21,236,fr,r,0,raw,2023-04-17_09h27.50.228,oddball,2022.2.5,60.098501424270474,
20,,,,,0,0,0,3,7,0,7,0,5,0,5,0,,,,,,,,,,,,,,,,,1041.25434829999,1041.8704578999896,1041.8704578999896,1042.4700334999943,0.6150566000142135,1042.4700334999943,1044.4851613999926,2.6301600000006147,None,1,decreament,0.6,41,standard,None,100,,,,,,,f,21,236,fr,r,0,raw,2023-04-17_09h27.50.228,oddball,2022.2.5,60.098501424270474,
20,,,,,0,0,0,3,7,0,7,0,6,0,6,0,,,,,,,,,,,,,,,,,1044.5021943000029,1045.0844978999812,1045.0844978999812,1045.4346267000074,0.36530710000079125,1045.4513388000196,1047.4494449999765,2.380108100012876,j,1,decreament,0.36,43,oddball,j,60,0.6232338999980129,,,,,,f,21,236,fr,r,0,raw,2023-04-17_09h27.50.228,oddball,2022.2.5,60.098501424270474,
20,,,,,0,0,0,3,7,0,7,0,7,0,7,0,,,,,,,,,,,,,,,,,1047.466423099977,1048.0824030999793,1048.0824030999793,1048.6814867000212,0.6147901000222191,1048.6814867000212,1050.696861799981,2.6301739999908023,None,1,decreament,0.6,41,standard,None,100,,,,,,,f,21,236,fr,r,0,raw,2023-04-17_09h27.50.228,oddball,2022.2.5,60.098501424270474,
20,,,,,0,0,0,3,7,0,7,0,8,0,8,0,,,,,,,,,,,,,,,,,1050.7131348000257,1051.3628352999804,1051.3628352999804,1051.9625775000313,0.6153653000365011,1051.9625775000313,1053.9773812000058,2.6302114000427537,None,1,decreament,0.6,41,standard,None,100,,,,,,,f,21,236,fr,r,0,raw,2023-04-17_09h27.50.228,oddball,2022.2.5,60.098501424270474,
20,,,,,0,0,0,3,7,0,7,0,9,0,9,0,,,,,,,,,,,,,,,,,1053.9940006000106,1054.7597804000252,1054.7597804000252,1055.3426727000042,0.6154584999894723,1055.3591992000001,1057.3409807999851,2.63074960000813,None,1,decreament,0.6,41,standard,None,100,,,,,,,f,21,236,fr,r,0,raw,2023-04-17_09h27.50.228,oddball,2022.2.5,60.098501424270474,
20,,,,,0,0,0,3,7,0,7,0,10,0,10,0,,,,,,,,,,,,,,,,,1057.3910537000047,1058.040357400023,1058.040357400023,1058.2736399000278,0.2493864000425674,1058.2901683999808,1060.2887373000267,2.264486300002318,j,1,decreament,0.24,42,oddball,j,40,0.4883181999903172,,,,,,f,21,236,fr,r,0,raw,2023-04-17_09h27.50.228,oddball,2022.2.5,60.098501424270474,
20,,,,,0,0,0,3,7,0,7,0,11,0,11,0,,,,,,,,,,,,,,,,,1060.3052070999984,1061.054486899986,1061.054486899986,1061.6377101999824,0.5993802999728359,1061.654789799999,1063.6523667000001,2.6139733999734744,None,1,decreament,0.6,41,standard,None,100,,,,,,,f,21,236,fr,r,0,raw,2023-04-17_09h27.50.228,oddball,2022.2.5,60.098501424270474,
20,,,,,0,0,0,3,7,0,7,0,12,0,12,0,,,,,,,,,,,,,,,,,1063.6691764999996,1064.2522949000122,1064.2522949000122,1064.8516933000064,0.6148775999899954,1064.8516933000064,1066.8670086999773,2.630202099971939,None,1,decreament,0.6,41,standard,None,100,,,,,,,f,21,236,fr,r,0,raw,2023-04-17_09h27.50.228,oddball,2022.2.5,60.098501424270474,
20,,,,,0,0,0,3,7,0,7,0,13,0,13,0,,,,,,,,,,,,,,,,,1066.8836652000318,1067.466851199977,1067.466851199977,1068.0661087000044,0.6157423999975435,1068.082653600024,1070.0810406000237,2.630651100014802,None,1,decreament,0.6,41,standard,None,100,,,,,,,f,21,236,fr,r,0,raw,2023-04-17_09h27.50.228,oddball,2022.2.5,60.098501424270474,
20,,,,,0,0,0,3,7,0,7,0,14,0,14,0,,,,,,,,,,,,,,,,,1070.0974075000267,1070.6807833000203,1070.6807833000203,1071.2796995000099,0.6151157999993302,1071.2796995000099,1073.2947861999855,2.6302631000289693,None,1,decreament,0.6,41,standard,None,100,,,,,,,f,21,236,fr,r,0,raw,2023-04-17_09h27.50.228,oddball,2022.2.5,60.098501424270474,
20,,,,,0,0,0,3,7,0,7,0,15,0,15,0,,,,,,,,,,,,,,,,,1073.311368099996,1073.911187299993,1073.911187299993,1074.5105151000316,0.615500699961558,1074.5105151000316,1076.5257620000048,2.6307482999982312,None,1,decreament,0.6,41,standard,None,100,,,,,,,f,21,236,fr,r,0,raw,2023-04-17_09h27.50.228,oddball,2022.2.5,60.098501424270474,
20,,,,,0,0,0,3,7,0,7,0,16,0,16,0,,,,,,,,,,,,,,,,,1076.5422347999993,1077.2415937000187,1077.2415937000187,1077.8409604000044,0.6147749999654479,1077.8409604000044,1079.8559827000136,2.62969879998127,None,1,decreament,0.6,41,standard,None,100,,,,,,,f,21,236,fr,r,0,raw,2023-04-17_09h27.50.228,oddball,2022.2.5,60.098501424270474,
20,,,,,0,0,0,3,7,0,7,0,17,0,17,0,,,,,,,,,,,,,,,,,1079.872600600007,1080.5555084000225,1080.5555084000225,1081.0219613999943,0.48213619994930923,1081.0385100999847,1083.0365293999785,2.496692799963057,None,0,decreament,0.48,44,oddball,j,80,,,,,,,f,21,236,fr,r,0,raw,2023-04-17_09h27.50.228,oddball,2022.2.5,60.098501424270474,
20,,,,,0,0,0,3,7,0,7,0,18,0,18,0,,,,,,,,,,,,,,,,,1083.053560899978,1083.7027310000267,1083.7027310000267,1084.3025373999844,0.6154422999825329,1084.3025373999844,1086.3173417000216,2.6302593000000343,None,1,decreament,0.6,41,standard,None,100,,,,,,,f,21,236,fr,r,0,raw,2023-04-17_09h27.50.228,oddball,2022.2.5,60.098501424270474,
20,,,,,0,0,0,3,7,0,7,0,19,0,19,0,,,,,,,,,,,,,,,,,1086.3341124000144,1087.0672182000126,1087.0672182000126,1087.6661879000021,0.5992237000027671,1087.6661879000021,1089.6811997999903,2.6140062999911606,None,1,decreament,0.6,41,standard,None,100,,,,,,,f,21,236,fr,r,0,raw,2023-04-17_09h27.50.228,oddball,2022.2.5,60.098501424270474,
20,,,,,0,0,0,3,7,0,7,0,20,0,20,0,,,,,,,,,,,,,,,,,1089.6811997999903,1090.3309334000223,1090.3309334000223,1090.930129299988,0.6151684999931604,1090.930129299988,1092.9454766000272,2.6306793999974616,None,1,decreament,0.6,41,standard,None,100,,,,,,,f,21,236,fr,r,0,raw,2023-04-17_09h27.50.228,oddball,2022.2.5,60.098501424270474,
20,,,,,0,0,0,3,7,0,7,0,21,0,21,0,,,,,,,,,,,,,,,,,1092.962218999979,1093.511806500028,1093.511806500028,1094.1109421,0.6154052999918349,1094.1109421,1096.1260208000313,2.630494399985764,None,1,decreament,0.6,41,standard,None,100,,,,,,,f,21,236,fr,r,0,raw,2023-04-17_09h27.50.228,oddball,2022.2.5,60.098501424270474,
20,,,,,0,0,0,3,7,0,7,0,22,0,22,0,,,,,,,,,,,,,,,,,1096.142913400021,1096.7922693000291,1096.7922693000291,1097.3916035000002,0.6146971000125632,1097.3916035000002,1099.406499499979,2.629541500005871,None,1,decreament,0.6,41,standard,None,100,,,,,,,f,21,236,fr,r,0,raw,2023-04-17_09h27.50.228,oddball,2022.2.5,60.098501424270474,
20,,,,,0,0,0,3,7,0,7,0,23,0,23,0,,,,,,,,,,,,,,,,,1099.4230899999966,1100.189398800023,1100.189398800023,1100.7888335000025,0.6153405000222847,1100.7888335000025,1102.8041992000071,2.630755299993325,None,1,decreament,0.6,41,standard,None,100,,,,,,,f,21,236,fr,r,0,raw,2023-04-17_09h27.50.228,oddball,2022.2.5,60.098501424270474,
20,,,,,0,0,0,3,7,0,7,0,24,0,24,0,,,,,,,,,,,,,,,,,1102.8205643999972,1103.5035139999818,1103.5035139999818,1104.1028453999897,0.6152588999830186,1104.1028453999897,1106.1178234000108,2.6302109999815,None,1,decreament,0.6,41,standard,None,100,,,,,,,f,21,236,fr,r,0,raw,2023-04-17_09h27.50.228,oddball,2022.2.5,60.098501424270474,
20,,,,,0,0,0,3,7,0,7,0,25,0,25,0,,,,,,,,,,,,,,,,,1106.1345507000224,1106.667442200007,1106.667442200007,1107.2666920999764,0.6148710999987088,1107.2666920999764,1109.281739099999,2.6299169000121765,None,1,decreament,0.6,41,standard,None,100,,,,,,,f,21,236,fr,r,0,raw,2023-04-17_09h27.50.228,oddball,2022.2.5,60.098501424270474,
20,,,,,0,0,0,3,7,0,7,0,26,0,26,0,,,,,,,,,,,,,,,,,1109.2989400000079,1109.848466800002,1109.848466800002,1110.4474564000266,0.6143760000122711,1110.4474564000266,1112.4628152999794,2.629749800020363,None,1,decreament,0.6,41,standard,None,100,,,,,,,f,21,236,fr,r,0,raw,2023-04-17_09h27.50.228,oddball,2022.2.5,60.098501424270474,
20,,,,,0,0,0,3,7,0,7,0,27,0,27,0,,,,,,,,,,,,,,,,,1112.4796199999982,1113.1619257000275,1113.1619257000275,1113.7615189999924,0.6152814999804832,1113.7615189999924,1115.7768001999939,2.6305845999740995,None,1,decreament,0.6,41,standard,None,100,,,,,,,f,21,236,fr,r,0,raw,2023-04-17_09h27.50.228,oddball,2022.2.5,60.098501424270474,
20,,,,,0,0,0,3,7,0,7,0,28,0,28,0,,,,,,,,,,,,,,,,,1115.7931919000112,1116.5262246999773,1116.5262246999773,1117.12544730003,0.6151190999662504,1117.12544730003,1119.1404105999973,2.6299976999871433,None,1,decreament,0.6,41,standard,None,100,,,,,,,f,21,236,fr,r,0,raw,2023-04-17_09h27.50.228,oddball,2022.2.5,60.098501424270474,
20,,,,,0,0,0,3,7,0,7,0,29,0,29,0,,,,,,,,,,,,,,,,,1119.15695959999,1119.7566591000068,1119.7566591000068,1120.339396800031,0.6152962999767624,1120.356112700014,1122.35438720003,2.6305949999950826,None,1,decreament,0.6,41,standard,None,100,,,,,,,f,21,236,fr,r,0,raw,2023-04-17_09h27.50.228,oddball,2022.2.5,60.098501424270474,
20,,,,,0,0,0,3,8,0,8,0,0,0,0,0,,,,,,,,,,,,,,,1161.3981230999925,1161.3981230999925,1172.92944789998,1173.5460109999985,1173.5460109999985,1174.1454928999883,0.6156159999663942,1174.1454928999883,1176.160328100028,2.6304177999845706,None,1,increament,0.6,45,standard,None,100,,1122.3881093999953,0.0017349999980069697,,,,f,21,236,fr,r,0,raw,2023-04-17_09h27.50.228,oddball,2022.2.5,60.098501424270474,
20,,,,,0,0,0,3,8,0,8,0,1,0,1,0,,,,,,,,,,,,,,,,,1176.1766191999777,1176.8267869999981,1176.8267869999981,1177.425798900018,0.6150334000121802,1177.425798900018,1179.440739099984,2.629955100012012,None,1,increament,0.6,45,standard,None,100,,,,,,,f,21,236,fr,r,0,raw,2023-04-17_09h27.50.228,oddball,2022.2.5,60.098501424270474,
20,,,,,0,0,0,3,8,0,8,0,2,0,2,0,,,,,,,,,,,,,,,,,1179.4574107999797,1180.1402970000054,1180.1402970000054,1180.7396953999996,0.614873299957253,1180.7396953999996,1182.7548653000267,2.6300358999869786,None,1,increament,0.6,45,standard,None,100,,,,,,,f,21,236,fr,r,0,raw,2023-04-17_09h27.50.228,oddball,2022.2.5,60.098501424270474,
20,,,,,0,0,0,3,8,0,8,0,3,0,3,0,,,,,,,,,,,,,,,,,1182.7718400000012,1183.5040192999877,1183.5040192999877,1184.1035340999952,0.6150512000313029,1184.1035340999952,1186.119078400021,2.6306021999916993,None,1,increament,0.6,45,standard,None,100,,,,,,,f,21,236,fr,r,0,raw,2023-04-17_09h27.50.228,oddball,2022.2.5,60.098501424270474,
20,,,,,0,0,0,3,8,0,8,0,4,0,4,0,,,,,,,,,,,,,,,,,1186.1352147000143,1186.851484599989,1186.851484599989,1187.4508305999916,0.61457320000045,1187.4508305999916,1189.465928199992,2.629673100018408,None,1,increament,0.6,45,standard,None,100,,,,,,,f,21,236,fr,r,0,raw,2023-04-17_09h27.50.228,oddball,2022.2.5,60.098501424270474,
20,,,,,0,0,0,3,8,0,8,0,5,0,5,0,,,,,,,,,,,,,,,,,1189.4826808000216,1190.0658014999935,1190.0658014999935,1190.6650312999845,0.6149985000374727,1190.6650312999845,1192.6801507999771,2.63007590000052,None,1,increament,0.6,45,standard,None,100,,,,,,,f,21,236,fr,r,0,raw,2023-04-17_09h27.50.228,oddball,2022.2.5,60.098501424270474,
20,,,,,0,0,0,3,8,0,8,0,6,0,6,0,,,,,,,,,,,,,,,,,1192.6968313999823,1193.479376800009,1193.479376800009,1194.0789731999976,0.6156948000425473,1194.0789731999976,1196.0938041000045,2.630516200035345,None,1,increament,0.6,45,standard,None,100,,,,,,,f,21,236,fr,r,0,raw,2023-04-17_09h27.50.228,oddball,2022.2.5,60.098501424270474,
20,,,,,0,0,0,3,8,0,8,0,7,0,7,0,,,,,,,,,,,,,,,,,1196.1105817999924,1196.7770667999866,1196.7770667999866,1197.6093255000305,0.8479521000408567,1197.625848900003,1199.6244174999883,2.863029500003904,j,1,increament,0.84,47,oddball,j,140,0.46745080000255257,,,,,,f,21,236,fr,r,0,raw,2023-04-17_09h27.50.228,oddball,2022.2.5,60.098501424270474,
20,,,,,0,0,0,3,8,0,8,0,8,0,8,0,,,,,,,,,,,,,,,,,1199.6417322999914,1200.1740155000007,1200.1740155000007,1200.7731214999803,0.6151185000198893,1200.7731214999803,1202.7882621000172,2.6302609000122175,None,1,increament,0.6,45,standard,None,100,,,,,,,f,21,236,fr,r,0,raw,2023-04-17_09h27.50.228,oddball,2022.2.5,60.098501424270474,
20,,,,,0,0,0,3,8,0,8,0,9,0,9,0,,,,,,,,,,,,,,,,,1202.8048991999822,1203.4379831000115,1203.4379831000115,1204.0375416000024,0.6148331000003964,1204.0375416000024,1206.0522602000274,2.629549900011625,None,1,increament,0.6,45,standard,None,100,,,,,,,f,21,236,fr,r,0,raw,2023-04-17_09h27.50.228,oddball,2022.2.5,60.098501424270474,
20,,,,,0,0,0,3,8,0,8,0,10,0,10,0,,,,,,,,,,,,,,,,,1206.069059500005,1206.6354902000166,1206.6354902000166,1207.2346988000209,0.6152692000032403,1207.2346988000209,1209.2494042000035,2.629958199977409,None,1,increament,0.6,45,standard,None,100,,,,,,,f,21,236,fr,r,0,raw,2023-04-17_09h27.50.228,oddball,2022.2.5,60.098501424270474,
20,,,,,0,0,0,3,8,0,8,0,11,0,11,0,,,,,,,,,,,,,,,,,1209.26665830001,1209.916170499986,1209.916170499986,1210.498493399995,0.6160225999774411,1210.5158478000085,1212.5138634000323,2.6310805999673903,None,1,increament,0.6,45,standard,None,100,,,,,,,f,21,236,fr,r,0,raw,2023-04-17_09h27.50.228,oddball,2022.2.5,60.098501424270474,
20,,,,,0,0,0,3,8,0,8,0,12,0,12,0,,,,,,,,,,,,,,,,,1212.54696170002,1213.113376000023,1213.113376000023,1213.7128896000213,0.6151548000052571,1213.7128896000213,1215.7278209999786,2.6300351000390947,None,1,increament,0.6,45,standard,None,100,,,,,,,f,21,236,fr,r,0,raw,2023-04-17_09h27.50.228,oddball,2022.2.5,60.098501424270474,
20,,,,,0,0,0,3,8,0,8,0,13,0,13,0,,,,,,,,,,,,,,,,,1215.744364699989,1216.4271979000187,1216.4271979000187,1217.0265010999865,0.6148548999917693,1217.0265010999865,1219.041363700002,2.6138251000083983,None,1,increament,0.6,45,standard,None,100,,,,,,,f,21,236,fr,r,0,raw,2023-04-17_09h27.50.228,oddball,2022.2.5,60.098501424270474,
20,,,,,0,0,0,3,8,0,8,0,14,0,14,0,,,,,,,,,,,,,,,,,1219.041363700002,1219.658014799992,1219.658014799992,1220.257795499987,0.5990810999646783,1220.257795499987,1222.2729666000232,2.613998699991498,None,1,increament,0.6,45,standard,None,100,,,,,,,f,21,236,fr,r,0,raw,2023-04-17_09h27.50.228,oddball,2022.2.5,60.098501424270474,
20,,,,,0,0,0,3,8,0,8,0,15,0,15,0,,,,,,,,,,,,,,,,,1222.2729666000232,1222.922214900027,1222.922214900027,1223.8711388999945,0.9649314000271261,1223.8875063000014,1225.8861551000155,2.9799708999926224,j,1,increament,0.96,48,oddball,j,160,0.4663528999662958,,,,,,f,21,236,fr,r,0,raw,2023-04-17_09h27.50.228,oddball,2022.2.5,60.098501424270474,
20,,,,,0,0,0,3,8,0,8,0,16,0,16,0,,,,,,,,,,,,,,,,,1225.9025438000099,1226.4688551999861,1226.4688551999861,1227.0684878000175,0.6153230000054464,1227.0684878000175,1229.0833405000158,2.630191400006879,None,1,increament,0.6,45,standard,None,100,,,,,,,f,21,236,fr,r,0,raw,2023-04-17_09h27.50.228,oddball,2022.2.5,60.098501424270474,
20,,,,,0,0,0,3,8,0,8,0,17,0,17,0,,,,,,,,,,,,,,,,,1229.0999901000177,1229.6164494000259,1229.6164494000259,1230.2157655999763,0.6151220999890938,1230.2157655999763,1232.2309196999995,2.6302990000112914,None,1,increament,0.6,45,standard,None,100,,,,,,,f,21,236,fr,r,0,raw,2023-04-17_09h27.50.228,oddball,2022.2.5,60.098501424270474,
20,,,,,0,0,0,3,8,0,8,0,18,0,18,0,,,,,,,,,,,,,,,,,1232.247815300012,1232.9135895000072,1232.9135895000072,1233.5133646000177,0.6152889999793842,1233.5133646000177,1235.528166199976,2.6300308000063524,None,1,increament,0.6,45,standard,None,100,,,,,,,f,21,236,fr,r,0,raw,2023-04-17_09h27.50.228,oddball,2022.2.5,60.098501424270474,
20,,,,,0,0,0,3,8,0,8,0,19,0,19,0,,,,,,,,,,,,,,,,,1235.5447476999834,1236.1773148999782,1236.1773148999782,1236.7769326000125,0.6152803999721073,1236.7769326000125,1238.7917476000148,2.630063499964308,None,1,increament,0.6,45,standard,None,100,,,,,,,f,21,236,fr,r,0,raw,2023-04-17_09h27.50.228,oddball,2022.2.5,60.098501424270474,
20,,,,,0,0,0,3,8,0,8,0,20,0,20,0,,,,,,,,,,,,,,,,,1238.8092113999883,1239.4584172000177,1239.4584172000177,1240.0578176000272,0.615376700006891,1240.0578176000272,1242.072518400033,2.6300362000474706,None,1,increament,0.6,45,standard,None,100,,,,,,,f,21,236,fr,r,0,raw,2023-04-17_09h27.50.228,oddball,2022.2.5,60.098501424270474,
20,,,,,0,0,0,3,8,0,8,0,21,0,21,0,,,,,,,,,,,,,,,,,1242.0895956000313,1242.6891029999824,1242.6891029999824,1243.4052631999948,0.731759799993597,1243.4216139999917,1245.4200514000258,2.7465310999541543,None,0,increament,0.72,46,oddball,j,120,,,,,,,f,21,236,fr,r,0,raw,2023-04-17_09h27.50.228,oddball,2022.2.5,60.098501424270474,
20,,,,,0,0,0,3,8,0,8,0,22,0,22,0,,,,,,,,,,,,,,,,,1245.4368205000064,1246.019392999995,1246.019392999995,1246.6192383000161,0.6149291000328958,1246.6192383000161,1248.6337517999928,2.62945230002515,None,1,increament,0.6,45,standard,None,100,,,,,,,f,21,236,fr,r,0,raw,2023-04-17_09h27.50.228,oddball,2022.2.5,60.098501424270474,
20,,,,,0,0,0,3,8,0,8,0,23,0,23,0,,,,,,,,,,,,,,,,,1248.6504811000195,1249.250479099981,1249.250479099981,1249.8497655999963,0.6153923000092618,1249.8497655999963,1251.864938099985,2.6306002999772318,None,1,increament,0.6,45,standard,None,100,,,,,,,f,21,236,fr,r,0,raw,2023-04-17_09h27.50.228,oddball,2022.2.5,60.098501424270474,
20,,,,,0,0,0,3,8,0,8,0,24,0,24,0,,,,,,,,,,,,,,,,,1251.8813488000305,1252.4308625999838,1252.4308625999838,1253.0307896999875,0.6157296000164934,1253.0307896999875,1255.045602200029,2.6305093999835663,None,1,increament,0.6,45,standard,None,100,,,,,,,f,21,236,fr,r,0,raw,2023-04-17_09h27.50.228,oddball,2022.2.5,60.098501424270474,
20,,,,,0,0,0,3,8,0,8,0,25,0,25,0,,,,,,,,,,,,,,,,,1255.0622105000075,1255.7113198000006,1255.7113198000006,1256.3110413000104,0.6152197999763303,1256.3110413000104,1258.3258691999945,2.6299201999790967,None,1,increament,0.6,45,standard,None,100,,,,,,,f,21,236,fr,r,0,raw,2023-04-17_09h27.50.228,oddball,2022.2.5,60.098501424270474,
20,,,,,0,0,0,3,8,0,8,0,26,0,26,0,,,,,,,,,,,,,,,,,1258.3426176999928,1258.9086632999824,1258.9086632999824,1259.5085873000207,0.6157682000193745,1259.5085873000207,1261.5234593999921,2.630567600019276,None,1,increament,0.6,45,standard,None,100,,,,,,,f,21,236,fr,r,0,raw,2023-04-17_09h27.50.228,oddball,2022.2.5,60.098501424270474,
20,,,,,0,0,0,3,8,0,8,0,27,0,27,0,,,,,,,,,,,,,,,,,1261.540098700032,1262.1727227999945,1262.1727227999945,1262.7557158999844,0.6155077999574132,1262.7723135999986,1264.7705606999807,2.630757100007031,None,1,increament,0.6,45,standard,None,100,,,,,,,f,21,236,fr,r,0,raw,2023-04-17_09h27.50.228,oddball,2022.2.5,60.098501424270474,
20,,,,,0,0,0,3,8,0,8,0,28,0,28,0,,,,,,,,,,,,,,,,,1264.80391409999,1265.3872998000006,1265.3872998000006,1265.9863244000007,0.6150283999741077,1265.9863244000007,1268.0013165000128,2.630001200013794,None,1,increament,0.6,45,standard,None,100,,,,,,,f,21,236,fr,r,0,raw,2023-04-17_09h27.50.228,oddball,2022.2.5,60.098501424270474,
20,,,,,0,0,0,3,8,0,8,0,29,0,29,0,,,,,,,,,,,,,,,,,1268.0185689000064,1268.667674300028,1268.667674300028,1269.2669481000048,0.6146154999732971,1269.2669481000048,1271.2824832000188,2.630159199994523,None,1,increament,0.6,45,standard,None,100,,,,,,,f,21,236,fr,r,0,raw,2023-04-17_09h27.50.228,oddball,2022.2.5,60.098501424270474,
20,,,,,0,0,0,3,9,0,9,0,0,0,0,0,,,,,,,,,,,,,,,1329.47087010002,1329.47087010002,1335.0629454000155,1335.7623708000174,1335.7623708000174,1336.362142500002,0.6148997000418603,1336.362142500002,1338.3769241999835,2.629547199991066,None,1,decreament,0.6,41,standard,None,100,,1271.2986705999938,0.0019117000047117472,,,,f,21,236,fr,r,0,raw,2023-04-17_09h27.50.228,oddball,2022.2.5,60.098501424270474,
20,,,,,0,0,0,3,9,0,9,0,1,0,1,0,,,,,,,,,,,,,,,,,1338.393610899977,1339.1261213999824,1339.1261213999824,1339.725686700025,0.6153180000255816,1339.725686700025,1341.740582600003,2.6301944000297226,None,1,decreament,0.6,41,standard,None,100,,,,,,,f,21,236,fr,r,0,raw,2023-04-17_09h27.50.228,oddball,2022.2.5,60.098501424270474,
20,,,,,0,0,0,3,9,0,9,0,2,0,2,0,,,,,,,,,,,,,,,,,1341.7575491000316,1342.3237361999927,1342.3237361999927,1342.9234740000102,0.6154383000102825,1342.9234740000102,1344.9382223000284,2.6301499000401236,None,1,decreament,0.6,41,standard,None,100,,,,,,,f,21,236,fr,r,0,raw,2023-04-17_09h27.50.228,oddball,2022.2.5,60.098501424270474,
20,,,,,0,0,0,3,9,0,9,0,3,0,3,0,,,,,,,,,,,,,,,,,1344.9552516000113,1345.571087600023,1345.571087600023,1346.170587300032,0.6155916000134312,1346.170587300032,1348.1853716000332,2.630370899976697,None,1,decreament,0.6,41,standard,None,100,,,,,,,f,21,236,fr,r,0,raw,2023-04-17_09h27.50.228,oddball,2022.2.5,60.098501424270474,
20,,,,,0,0,0,3,9,0,9,0,4,0,4,0,,,,,,,,,,,,,,,,,1348.2025950999814,1348.835011999996,1348.835011999996,1349.4342336999835,0.6146786999888718,1349.4342336999835,1351.4491806000005,2.629591899982188,None,1,decreament,0.6,41,standard,None,100,,,,,,,f,21,236,fr,r,0,raw,2023-04-17_09h27.50.228,oddball,2022.2.5,60.098501424270474,
20,,,,,0,0,0,3,9,0,9,0,5,0,5,0,,,,,,,,,,,,,,,,,1351.4664099999936,1352.0827072000247,1352.0827072000247,1352.6813713000156,0.614766700018663,1352.6813713000156,1354.680314600002,2.630171600030735,None,1,decreament,0.6,41,standard,None,100,,,,,,,f,21,236,fr,r,0,raw,2023-04-17_09h27.50.228,oddball,2022.2.5,60.098501424270474,
20,,,,,0,0,0,3,9,0,9,0,6,0,6,0,,,,,,,,,,,,,,,,,1354.7136349999928,1355.4631093000062,1355.4631093000062,1355.812676600006,0.365747400035616,1355.829626700026,1357.8279679000261,2.3808994000428356,j,1,decreament,0.36,43,oddball,j,60,0.9648165000253357,,,,,,f,21,236,fr,r,0,raw,2023-04-17_09h27.50.228,oddball,2022.2.5,60.098501424270474,
20,,,,,0,0,0,3,9,0,9,0,7,0,7,0,,,,,,,,,,,,,,,,,1357.844605099992,1358.5934750000015,1358.5934750000015,1359.1931383999763,0.6149796999525279,1359.1931383999763,1361.2085285999929,2.630483299959451,None,1,decreament,0.6,41,standard,None,100,,,,,,,f,21,236,fr,r,0,raw,2023-04-17_09h27.50.228,oddball,2022.2.5,60.098501424270474,
20,,,,,0,0,0,3,9,0,9,0,8,0,8,0,,,,,,,,,,,,,,,,,1361.2250898000202,1361.9078349000192,1361.9078349000192,1362.5070048000198,0.6147091999882832,1362.5070048000198,1364.5219348000246,2.629635099961888,None,1,decreament,0.6,41,standard,None,100,,,,,,,f,21,236,fr,r,0,raw,2023-04-17_09h27.50.228,oddball,2022.2.5,60.098501424270474,
20,,,,,0,0,0,3,9,0,9,0,9,0,9,0,,,,,,,,,,,,,,,,,1364.5388223000336,1365.1049732000101,1365.1049732000101,1365.7043798000086,0.6152984999935143,1365.7043798000086,1367.7197103999788,2.6306071000290103,None,1,decreament,0.6,41,standard,None,100,,,,,,,f,21,236,fr,r,0,raw,2023-04-17_09h27.50.228,oddball,2022.2.5,60.098501424270474,
20,,,,,0,0,0,3,9,0,9,0,10,0,10,0,,,,,,,,,,,,,,,,,1367.7366050999844,1368.4187833000324,1368.4187833000324,1369.0187388000195,0.6147938999929465,1369.0187388000195,1371.033368000004,2.629390300018713,None,1,decreament,0.6,41,standard,None,100,,,,,,,f,21,236,fr,r,0,raw,2023-04-17_09h27.50.228,oddball,2022.2.5,60.098501424270474,
20,,,,,0,0,0,3,9,0,9,0,11,0,11,0,,,,,,,,,,,,,,,,,1371.0505481000291,1371.6664455999853,1371.6664455999853,1372.2659932000097,0.6151650000247173,1372.2659932000097,1374.2806973999832,2.6298109000199474,None,1,decreament,0.6,41,standard,None,100,,,,,,,f,21,236,fr,r,0,raw,2023-04-17_09h27.50.228,oddball,2022.2.5,60.098501424270474,
20,,,,,0,0,0,3,9,0,9,0,12,0,12,0,,,,,,,,,,,,,,,,,1374.2976775999996,1374.9804507999797,1374.9804507999797,1375.5799600000028,0.6157410999876447,1375.5965662000235,1377.5946409000317,2.6304406999843195,None,1,decreament,0.6,41,standard,None,100,,,,,,,f,21,236,fr,r,0,raw,2023-04-17_09h27.50.228,oddball,2022.2.5,60.098501424270474,
20,,,,,0,0,0,3,9,0,9,0,13,0,13,0,,,,,,,,,,,,,,,,,1377.6116203999845,1378.2445875999983,1378.2445875999983,1378.4775057000224,0.24904199998127297,1378.4942063000053,1380.4926174000138,2.2641491999966092,j,1,decreament,0.24,42,oddball,j,40,0.4571334000211209,,,,,,f,21,236,fr,r,0,raw,2023-04-17_09h27.50.228,oddball,2022.2.5,60.098501424270474,
20,,,,,0,0,0,3,9,0,9,0,14,0,14,0,,,,,,,,,,,,,,,,,1380.509092900029,1381.0918568000197,1381.0918568000197,1381.6916545000277,0.6157337999902666,1381.6916545000277,1383.7063912000158,2.630354799970519,None,1,decreament,0.6,41,standard,None,100,,,,,,,f,21,236,fr,r,0,raw,2023-04-17_09h27.50.228,oddball,2022.2.5,60.098501424270474,
20,,,,,0,0,0,3,9,0,9,0,15,0,15,0,,,,,,,,,,,,,,,,,1383.722890199977,1384.4889530999935,1384.4889530999935,1385.0718761000317,0.5991382999927737,1385.0884875000338,1387.0870186000247,2.6142445000004955,None,1,decreament,0.6,41,standard,None,100,,,,,,,f,21,236,fr,r,0,raw,2023-04-17_09h27.50.228,oddball,2022.2.5,60.098501424270474,
20,,,,,0,0,0,3,9,0,9,0,16,0,16,0,,,,,,,,,,,,,,,,,1387.1035180999897,1387.7694194000214,1387.7694194000214,1388.3523139000172,0.6155934000271372,1388.3690323000192,1390.3676119000302,2.630652400024701,None,1,decreament,0.6,41,standard,None,100,,,,,,,f,21,236,fr,r,0,raw,2023-04-17_09h27.50.228,oddball,2022.2.5,60.098501424270474,
20,,,,,0,0,0,3,9,0,9,0,17,0,17,0,,,,,,,,,,,,,,,,,1390.4007975999848,1391.150285599986,1391.150285599986,1391.6165804999764,0.48211070004617795,1391.6332810000167,1393.6313470000168,2.4968245000345632,None,0,decreament,0.48,44,oddball,j,80,,,,,,,f,21,236,fr,r,0,raw,2023-04-17_09h27.50.228,oddball,2022.2.5,60.098501424270474,
20,,,,,0,0,0,3,9,0,9,0,18,0,18,0,,,,,,,,,,,,,,,,,1393.6477913000272,1394.2972059000167,1394.2972059000167,1394.8802561999764,0.5991268999641761,1394.8967972000246,1396.8952280000085,2.6140938999596983,None,1,decreament,0.6,41,standard,None,100,,,,,,,f,21,236,fr,r,0,raw,2023-04-17_09h27.50.228,oddball,2022.2.5,60.098501424270474,
20,,,,,0,0,0,3,9,0,9,0,19,0,19,0,,,,,,,,,,,,,,,,,1396.912186499976,1397.561334100028,1397.561334100028,1398.144172500004,0.5991583000286482,1398.1607817999902,1400.1590435000253,2.6140155000030063,None,1,decreament,0.6,41,standard,None,100,,,,,,,f,21,236,fr,r,0,raw,2023-04-17_09h27.50.228,oddball,2022.2.5,60.098501424270474,
20,,,,,0,0,0,3,9,0,9,0,20,0,20,0,,,,,,,,,,,,,,,,,1400.175820400007,1400.8254662000109,1400.8254662000109,1401.4247966000112,0.6151304000522941,1401.4247966000112,1403.4399581000325,2.6303334000403993,None,1,decreament,0.6,41,standard,None,100,,,,,,,f,21,236,fr,r,0,raw,2023-04-17_09h27.50.228,oddball,2022.2.5,60.098501424270474,
20,,,,,0,0,0,3,9,0,9,0,21,0,21,0,,,,,,,,,,,,,,,,,1403.457011600025,1404.1066198000335,1404.1066198000335,1404.7055169999949,0.615260099992156,1404.7055169999949,1406.7210562999826,2.6307862999965437,None,1,decreament,0.6,41,standard,None,100,,,,,,,f,21,236,fr,r,0,raw,2023-04-17_09h27.50.228,oddball,2022.2.5,60.098501424270474,
20,,,,,0,0,0,3,9,0,9,0,22,0,22,0,,,,,,,,,,,,,,,,,1406.7372960000066,1407.370406800008,1407.370406800008,1407.9700250999886,0.5990316999959759,1407.9700250999886,1409.984671299986,2.6141707000206225,None,1,decreament,0.6,41,standard,None,100,,,,,,,f,21,236,fr,r,0,raw,2023-04-17_09h27.50.228,oddball,2022.2.5,60.098501424270474,
20,,,,,0,0,0,3,9,0,9,0,23,0,23,0,,,,,,,,,,,,,,,,,1409.984671299986,1410.684119099984,1410.684119099984,1411.2835252999794,0.6145972999511287,1411.2835252999794,1413.2983376000193,2.629291099961847,None,1,decreament,0.6,41,standard,None,100,,,,,,,f,21,236,fr,r,0,raw,2023-04-17_09h27.50.228,oddball,2022.2.5,60.098501424270474,
20,,,,,0,0,0,3,9,0,9,0,24,0,24,0,,,,,,,,,,,,,,,,,1413.3151808999828,1413.8649670000304,1413.8649670000304,1414.4646808999823,0.6153947999700904,1414.4646808999823,1416.4792174000177,2.629910299961921,None,1,decreament,0.6,41,standard,None,100,,,,,,,f,21,236,fr,r,0,raw,2023-04-17_09h27.50.228,oddball,2022.2.5,60.098501424270474,
20,,,,,0,0,0,3,9,0,9,0,25,0,25,0,,,,,,,,,,,,,,,,,1416.4957389999763,1417.0952838999801,1417.0952838999801,1417.678160600015,0.5991896000341512,1417.694762500003,1419.6930176999886,2.6140529999975115,None,1,decreament,0.6,41,standard,None,100,,,,,,,f,21,236,fr,r,0,raw,2023-04-17_09h27.50.228,oddball,2022.2.5,60.098501424270474,
20,,,,,0,0,0,3,9,0,9,0,26,0,26,0,,,,,,,,,,,,,,,,,1419.7098079000134,1420.3926482999814,1420.3926482999814,1420.9753642000142,0.6158506000065245,1420.9921839000308,1422.990389899991,2.630837100034114,None,1,decreament,0.6,41,standard,None,100,,,,,,,f,21,236,fr,r,0,raw,2023-04-17_09h27.50.228,oddball,2022.2.5,60.098501424270474,
20,,,,,0,0,0,3,9,0,9,0,27,0,27,0,,,,,,,,,,,,,,,,,1423.02368079999,1423.6400647999835,1423.6400647999835,1424.2398207000224,0.6149487999500707,1424.2398207000224,1426.2547532999888,2.629818399960641,None,1,decreament,0.6,41,standard,None,100,,,,,,,f,21,236,fr,r,0,raw,2023-04-17_09h27.50.228,oddball,2022.2.5,60.098501424270474,
20,,,,,0,0,0,3,9,0,9,0,28,0,28,0,,,,,,,,,,,,,,,,,1426.2710030000308,1426.9045093000168,1426.9045093000168,1427.5038322000182,0.6151933000073768,1427.5038322000182,1429.5186515999958,2.630058199982159,None,1,decreament,0.6,41,standard,None,100,,,,,,,f,21,236,fr,r,0,raw,2023-04-17_09h27.50.228,oddball,2022.2.5,60.098501424270474,
20,,,,,0,0,0,3,9,0,9,0,29,0,29,0,,,,,,,,,,,,,,,,,1429.5356615000055,1430.3014663999784,1430.3014663999784,1430.9008470000117,0.6153551999595948,1430.9008470000117,1432.915896099992,2.6304699999745935,None,1,decreament,0.6,41,standard,None,100,,,,,,,f,21,236,fr,r,0,raw,2023-04-17_09h27.50.228,oddball,2022.2.5,60.098501424270474,
