grating_freq,blocks_prac.thisRepN,blocks_prac.thisTrialN,blocks_prac.thisN,blocks_prac.thisIndex,blocks.thisRepN,blocks.thisTrialN,blocks.thisN,blocks.thisIndex,repeat_freq.thisRepN,repeat_freq.thisTrialN,repeat_freq.thisN,repeat_freq.thisIndex,trials.thisRepN,trials.thisTrialN,trials.thisN,trials.thisIndex,break_loop.thisRepN,break_loop.thisTrialN,break_loop.thisN,break_loop.thisIndex,rest_loop.thisRepN,rest_loop.thisTrialN,rest_loop.thisN,rest_loop.thisIndex,instruct_prac_text.started,instruct_prac_resp.started,b_instruct_text_2_.started,b_instruct_resp_2_.started,prac_done_text.started,prac_done_resp.started,instruct_text.started,instruct_resp.started,fixation.started,fixation.stopped,grating.started,blank.started,resp.started,grating.stopped,blank.stopped,resp.stopped,resp.keys,resp.corr,direction,duration,trigger,stim_type,corr_ans,scaling,resp.rt,rest_text.started,rest_resp.started,text_2.started,text_2.stopped,thx_txt.started,gender,age,participant,language,main_hand,nBlock_prac,file_suffix,date,expName,psychopyVersion,frameRate,
10,,,,,0,0,0,2,0,0,0,0,0,0,0,0,,,,,,,,,34.327802200001315,34.327802200001315,65.56366139999591,65.56366139999591,89.9310747999989,89.9310747999989,99.52406850000261,99.52406850000261,103.94939320000412,104.65422189999663,104.65422189999663,105.19770360000257,0.6144383999926504,105.2644064000051,107.21296469999652,2.6296969999966677,None,1,decreament,0.6,21,standard,None,100,,,,,,,m,19,241,fr,r,0,raw,2023-05-16_09h39.57.322,oddball,2022.2.5,60.057931883489864,
10,,,,,0,0,0,2,0,0,0,0,1,0,1,0,,,,,,,,,,,,,,,,,107.22947950000525,107.79551840000204,107.79551840000204,108.39548540000396,0.6153116999921622,108.39548540000396,110.41018320000148,2.630083999989438,None,1,decreament,0.6,21,standard,None,100,,,,,,,m,19,241,fr,r,0,raw,2023-05-16_09h39.57.322,oddball,2022.2.5,60.057931883489864,
10,,,,,0,0,0,2,0,0,0,0,2,0,2,0,,,,,,,,,,,,,,,,,110.42676709999796,111.0264817999996,111.0264817999996,111.62592459999723,0.6150189000036335,111.62592459999723,113.64061790000414,2.629778400005307,None,1,decreament,0.6,21,standard,None,100,,,,,,,m,19,241,fr,r,0,raw,2023-05-16_09h39.57.322,oddball,2022.2.5,60.057931883489864,
10,,,,,0,0,0,2,0,0,0,0,3,0,3,0,,,,,,,,,,,,,,,,,113.65758749999804,114.37408419999701,114.37408419999701,114.97310160000052,0.614945399996941,114.97310160000052,116.98798140000144,2.6298896000080276,None,1,decreament,0.6,21,standard,None,100,,,,,,,m,19,241,fr,r,0,raw,2023-05-16_09h39.57.322,oddball,2022.2.5,60.057931883489864,
10,,,,,0,0,0,2,0,0,0,0,4,0,4,0,,,,,,,,,,,,,,,,,117.00502470000356,117.87086960001034,117.87086960001034,118.47058680000191,0.6153592000046046,118.47058680000191,120.48513310000999,2.613997399996151,None,1,decreament,0.6,21,standard,None,100,,,,,,,m,19,241,fr,r,0,raw,2023-05-16_09h39.57.322,oddball,2022.2.5,60.057931883489864,
10,,,,,0,0,0,2,0,0,0,0,5,0,5,0,,,,,,,,,,,,,,,,,120.48513310000999,121.11786140000913,121.11786140000913,121.71750460000476,0.6150918000057572,121.71750460000476,123.73232619999908,2.6298597999993945,None,1,decreament,0.6,21,standard,None,100,,,,,,,m,19,241,fr,r,0,raw,2023-05-16_09h39.57.322,oddball,2022.2.5,60.057931883489864,
10,,,,,0,0,0,2,0,0,0,0,6,0,6,0,,,,,,,,,,,,,,,,,123.7491294000065,124.48197239999718,124.48197239999718,124.7149827000103,0.2484967000054894,124.73152080000727,126.73036539999885,2.264024899996002,j,1,decreament,0.24,22,oddball,j,40,0.6261561999999685,,,,,,m,19,241,fr,r,0,raw,2023-05-16_09h39.57.322,oddball,2022.2.5,60.057931883489864,
10,,,,,0,0,0,2,0,0,0,0,7,0,7,0,,,,,,,,,,,,,,,,,126.74744869999995,127.32951680000406,127.32951680000406,127.9289015999966,0.6149352000065846,127.9289015999966,129.94429939999827,2.630374700005632,None,1,decreament,0.6,21,standard,None,100,,,,,,,m,19,241,fr,r,0,raw,2023-05-16_09h39.57.322,oddball,2022.2.5,60.057931883489864,
10,,,,,0,0,0,2,0,0,0,0,8,0,8,0,,,,,,,,,,,,,,,,,129.96095340000466,130.67672810000659,130.67672810000659,131.27641910000239,0.6148122000013245,131.27641910000239,133.29136280000967,2.6296603999944637,None,1,decreament,0.6,21,standard,None,100,,,,,,,m,19,241,fr,r,0,raw,2023-05-16_09h39.57.322,oddball,2022.2.5,60.057931883489864,
10,,,,,0,0,0,2,0,0,0,0,9,0,9,0,,,,,,,,,,,,,,,,,133.30840010000975,134.0740294999996,134.0740294999996,134.6735933000018,0.6150133999908576,134.6735933000018,136.68864290000056,2.6300389999960316,None,1,decreament,0.6,21,standard,None,100,,,,,,,m,19,241,fr,r,0,raw,2023-05-16_09h39.57.322,oddball,2022.2.5,60.057931883489864,
10,,,,,0,0,0,2,0,0,0,0,10,0,10,0,,,,,,,,,,,,,,,,,136.70544150000205,137.30496789999597,137.30496789999597,137.90427980000095,0.6150646000023698,137.90427980000095,139.91936260000512,2.630082699994091,None,1,decreament,0.6,21,standard,None,100,,,,,,,m,19,241,fr,r,0,raw,2023-05-16_09h39.57.322,oddball,2022.2.5,60.057931883489864,
10,,,,,0,0,0,2,0,0,0,0,11,0,11,0,,,,,,,,,,,,,,,,,139.93595970000024,140.56881920000887,140.56881920000887,141.16792720000376,0.6145446000009542,141.16792720000376,143.1831988000049,2.6298500999982934,None,1,decreament,0.6,21,standard,None,100,,,,,,,m,19,241,fr,r,0,raw,2023-05-16_09h39.57.322,oddball,2022.2.5,60.057931883489864,
10,,,,,0,0,0,2,0,0,0,0,12,0,12,0,,,,,,,,,,,,,,,,,143.1999777000019,143.91594259999692,143.91594259999692,144.51520570000866,0.6150907999981428,144.51520570000866,146.53049649999593,2.630274900002405,None,1,decreament,0.6,21,standard,None,100,,,,,,,m,19,241,fr,r,0,raw,2023-05-16_09h39.57.322,oddball,2022.2.5,60.057931883489864,
10,,,,,0,0,0,2,0,0,0,0,13,0,13,0,,,,,,,,,,,,,,,,,146.54784060000384,147.33017860000837,147.33017860000837,147.92927280000004,0.6142318000056548,147.92927280000004,149.94459020000068,2.6295438000088325,None,1,decreament,0.6,21,standard,None,100,,,,,,,m,19,241,fr,r,0,raw,2023-05-16_09h39.57.322,oddball,2022.2.5,60.057931883489864,
10,,,,,0,0,0,2,0,0,0,0,14,0,14,0,,,,,,,,,,,,,,,,,149.96081430000777,150.5103620000009,150.5103620000009,151.1098581999977,0.6147476999904029,151.1098581999977,153.12519740000425,2.630006199993659,None,1,decreament,0.6,21,standard,None,100,,,,,,,m,19,241,fr,r,0,raw,2023-05-16_09h39.57.322,oddball,2022.2.5,60.057931883489864,
10,,,,,0,0,0,2,0,0,0,0,15,0,15,0,,,,,,,,,,,,,,,,,153.14180090000445,153.7081046000094,153.7081046000094,154.30742930000997,0.6147347999940393,154.30742930000997,156.3226782999991,2.6300381000037305,None,1,decreament,0.6,21,standard,None,100,,,,,,,m,19,241,fr,r,0,raw,2023-05-16_09h39.57.322,oddball,2022.2.5,60.057931883489864,
10,,,,,0,0,0,2,0,0,0,0,16,0,16,0,,,,,,,,,,,,,,,,,156.3393192000076,157.20491000000038,157.20491000000038,157.80479470000137,0.6146157000039238,157.80479470000137,159.81955559999915,2.6294058000057703,None,1,decreament,0.6,21,standard,None,100,,,,,,,m,19,241,fr,r,0,raw,2023-05-16_09h39.57.322,oddball,2022.2.5,60.057931883489864,
10,,,,,0,0,0,2,0,0,0,0,17,0,17,0,,,,,,,,,,,,,,,,,159.83672770000703,160.48585810000077,160.48585810000077,161.08512099999643,0.6151503000000957,161.08512099999643,163.10012620000634,2.6301474000065355,None,1,decreament,0.6,21,standard,None,100,,,,,,,m,19,241,fr,r,0,raw,2023-05-16_09h39.57.322,oddball,2022.2.5,60.057931883489864,
10,,,,,0,0,0,2,0,0,0,0,18,0,18,0,,,,,,,,,,,,,,,,,163.11737849999918,163.68305669999972,163.68305669999972,164.28299150000385,0.6151940999989165,164.28299150000385,166.29740120000497,2.629616200007149,None,1,decreament,0.6,21,standard,None,100,,,,,,,m,19,241,fr,r,0,raw,2023-05-16_09h39.57.322,oddball,2022.2.5,60.057931883489864,
10,,,,,0,0,0,2,0,0,0,0,19,0,19,0,,,,,,,,,,,,,,,,,166.31457699999737,167.11374590000196,167.11374590000196,167.46337050000147,0.3654015999927651,167.4801271000033,169.4783507999964,2.380295599999954,j,1,decreament,0.36,23,oddball,j,60,0.5125365999992937,,,,,,m,19,241,fr,r,0,raw,2023-05-16_09h39.57.322,oddball,2022.2.5,60.057931883489864,
10,,,,,0,0,0,2,0,0,0,0,20,0,20,0,,,,,,,,,,,,,,,,,169.49521280000044,170.0946632999985,170.0946632999985,170.69366699999955,0.6148144000035245,170.69366699999955,172.7089355000062,2.6300429999973858,None,1,decreament,0.6,21,standard,None,100,,,,,,,m,19,241,fr,r,0,raw,2023-05-16_09h39.57.322,oddball,2022.2.5,60.057931883489864,
10,,,,,0,0,0,2,0,0,0,0,21,0,21,0,,,,,,,,,,,,,,,,,172.72558220000064,173.40876620000927,173.40876620000927,174.00791490000847,0.615062000011676,174.00791490000847,176.02284570000484,2.6299566000088817,None,1,decreament,0.6,21,standard,None,100,,,,,,,m,19,241,fr,r,0,raw,2023-05-16_09h39.57.322,oddball,2022.2.5,60.057931883489864,
10,,,,,0,0,0,2,0,0,0,0,22,0,22,0,,,,,,,,,,,,,,,,,176.03975779999746,176.6888983999961,176.6888983999961,177.28880500000378,0.6150063999957638,177.28880500000378,179.30350710000494,2.6297467999975197,None,1,decreament,0.6,21,standard,None,100,,,,,,,m,19,241,fr,r,0,raw,2023-05-16_09h39.57.322,oddball,2022.2.5,60.057931883489864,
10,,,,,0,0,0,2,0,0,0,0,23,0,23,0,,,,,,,,,,,,,,,,,179.32010530000844,180.0528379000025,180.0528379000025,180.65229250000266,0.6147361000039382,180.65229250000266,182.66747349999787,2.62986169999931,None,1,decreament,0.6,21,standard,None,100,,,,,,,m,19,241,fr,r,0,raw,2023-05-16_09h39.57.322,oddball,2022.2.5,60.057931883489864,
10,,,,,0,0,0,2,0,0,0,0,24,0,24,0,,,,,,,,,,,,,,,,,182.68388250000135,183.20042550000653,183.20042550000653,183.79969960000017,0.6147941000090213,183.79969960000017,185.81527570000617,2.6304564000020036,j,0,decreament,0.6,21,standard,None,100,0.820066999993287,,,,,,m,19,241,fr,r,0,raw,2023-05-16_09h39.57.322,oddball,2022.2.5,60.057931883489864,
10,,,,,0,0,0,2,0,0,0,0,25,0,25,0,,,,,,,,,,,,,,,,,185.83186390000628,186.61429330000828,186.61429330000828,187.21372970000084,0.6148763000092003,187.21372970000084,189.2287645000033,2.6298640000022715,None,1,decreament,0.6,21,standard,None,100,,,,,,,m,19,241,fr,r,0,raw,2023-05-16_09h39.57.322,oddball,2022.2.5,60.057931883489864,
10,,,,,0,0,0,2,0,0,0,0,26,0,26,0,,,,,,,,,,,,,,,,,189.2453669999959,189.94483990001027,189.94483990001027,190.4111571000103,0.4815106000023661,190.42757520001032,192.42623900000763,2.496598099998664,None,0,decreament,0.48,24,oddball,j,80,,,,,,,m,19,241,fr,r,0,raw,2023-05-16_09h39.57.322,oddball,2022.2.5,60.057931883489864,
10,,,,,0,0,0,2,0,0,0,0,27,0,27,0,,,,,,,,,,,,,,,,,192.442661699999,192.97540180000942,192.97540180000942,193.57506440000725,0.614680300001055,193.57506440000725,195.58999030000996,2.629578699998092,None,1,decreament,0.6,21,standard,None,100,,,,,,,m,19,241,fr,r,0,raw,2023-05-16_09h39.57.322,oddball,2022.2.5,60.057931883489864,
10,,,,,0,0,0,2,0,0,0,0,28,0,28,0,,,,,,,,,,,,,,,,,195.6071929000027,196.2398291999998,196.2398291999998,196.83948200001032,0.615270900001633,196.85579210000287,198.8543975000066,2.630247599998256,None,1,decreament,0.6,21,standard,None,100,,,,,,,m,19,241,fr,r,0,raw,2023-05-16_09h39.57.322,oddball,2022.2.5,60.057931883489864,
10,,,,,0,0,0,2,0,0,0,0,29,0,29,0,,,,,,,,,,,,,,,,,198.87065140000777,199.52040090000082,199.52040090000082,200.11969680000038,0.6146464000048582,200.11969680000038,202.1352549000003,2.630239799997071,None,1,decreament,0.6,21,standard,None,100,,,,,,,m,19,241,fr,r,0,raw,2023-05-16_09h39.57.322,oddball,2022.2.5,60.057931883489864,
10,,,,,0,0,0,2,1,0,1,0,0,0,0,0,,,,,,,,,,,,,,,209.84556300000986,209.84556300000986,214.1418849000038,214.7412236000091,214.7412236000091,215.3406743000087,0.6156784000049811,215.3406743000087,217.35575889999745,2.630783500004327,None,1,increament,0.6,25,standard,None,100,,202.15173979999963,0.0017305000073974952,,,,m,19,241,fr,r,0,raw,2023-05-16_09h39.57.322,oddball,2022.2.5,60.057931883489864,
10,,,,,0,0,0,2,1,0,1,0,1,0,1,0,,,,,,,,,,,,,,,,,217.3725492000085,218.0220141000027,218.0220141000027,218.62122120001004,0.6149331000051461,218.63792910000484,220.63629409999703,2.6299486000061734,None,1,increament,0.6,25,standard,None,100,,,,,,,m,19,241,fr,r,0,raw,2023-05-16_09h39.57.322,oddball,2022.2.5,60.057931883489864,
10,,,,,0,0,0,2,1,0,1,0,2,0,2,0,,,,,,,,,,,,,,,,,220.65294200000062,221.3358089000103,221.3358089000103,221.93511360000412,0.615120599992224,221.93511360000412,223.94992929999717,2.629908799994155,None,1,increament,0.6,25,standard,None,100,,,,,,,m,19,241,fr,r,0,raw,2023-05-16_09h39.57.322,oddball,2022.2.5,60.057931883489864,
10,,,,,0,0,0,2,1,0,1,0,3,0,3,0,,,,,,,,,,,,,,,,,223.96709849999752,224.51645039999858,224.51645039999858,225.11576739999873,0.6148725999955786,225.11576739999873,227.13127800000075,2.630283699996653,None,1,increament,0.6,25,standard,None,100,,,,,,,m,19,241,fr,r,0,raw,2023-05-16_09h39.57.322,oddball,2022.2.5,60.057931883489864,
10,,,,,0,0,0,2,1,0,1,0,4,0,4,0,,,,,,,,,,,,,,,,,227.14778240000305,227.83046730000933,227.83046730000933,228.42980569999781,0.6146390000067186,228.42980569999781,230.44487390000722,2.629732300003525,None,1,increament,0.6,25,standard,None,100,,,,,,,m,19,241,fr,r,0,raw,2023-05-16_09h39.57.322,oddball,2022.2.5,60.057931883489864,
10,,,,,0,0,0,2,1,0,1,0,5,0,5,0,,,,,,,,,,,,,,,,,230.46179990000383,231.09440590000304,231.09440590000304,231.69367619999684,0.6146504999924218,231.69367619999684,233.7089258000051,2.6299410999927204,None,1,increament,0.6,25,standard,None,100,,,,,,,m,19,241,fr,r,0,raw,2023-05-16_09h39.57.322,oddball,2022.2.5,60.057931883489864,
10,,,,,0,0,0,2,1,0,1,0,6,0,6,0,,,,,,,,,,,,,,,,,233.72572119999677,234.37491959999898,234.37491959999898,234.97465770000417,0.6148438000091119,234.97465770000417,236.98930210000253,2.6294995000062045,None,1,increament,0.6,25,standard,None,100,,,,,,,m,19,241,fr,r,0,raw,2023-05-16_09h39.57.322,oddball,2022.2.5,60.057931883489864,
10,,,,,0,0,0,2,1,0,1,0,7,0,7,0,,,,,,,,,,,,,,,,,237.00631959999737,237.52297469999758,237.52297469999758,238.12183869999717,0.6148236000008183,238.12183869999717,240.1369274000026,2.6298515999951633,None,1,increament,0.6,25,standard,None,100,,,,,,,m,19,241,fr,r,0,raw,2023-05-16_09h39.57.322,oddball,2022.2.5,60.057931883489864,
10,,,,,0,0,0,2,1,0,1,0,8,0,8,0,,,,,,,,,,,,,,,,,240.1538361999992,240.9532726000034,240.9532726000034,241.66928820000612,0.731511900012265,241.68569100000605,243.68437050000648,2.7465360000060173,None,0,increament,0.72,26,oddball,j,120,,,,,,,m,19,241,fr,r,0,raw,2023-05-16_09h39.57.322,oddball,2022.2.5,60.057931883489864,
10,,,,,0,0,0,2,1,0,1,0,9,0,9,0,,,,,,,,,,,,,,,,,243.70086620000075,244.3000832999969,244.3000832999969,244.89957780000987,0.6154433000046993,244.89957780000987,246.91477390000364,2.6306173999910243,None,1,increament,0.6,25,standard,None,100,,,,,,,m,19,241,fr,r,0,raw,2023-05-16_09h39.57.322,oddball,2022.2.5,60.057931883489864,
10,,,,,0,0,0,2,1,0,1,0,10,0,10,0,,,,,,,,,,,,,,,,,246.9315481000085,247.54757209999661,247.54757209999661,248.1470263000083,0.6151315000024624,248.1470263000083,250.1620452000061,2.630211600000621,None,1,increament,0.6,25,standard,None,100,,,,,,,m,19,241,fr,r,0,raw,2023-05-16_09h39.57.322,oddball,2022.2.5,60.057931883489864,
10,,,,,0,0,0,2,1,0,1,0,11,0,11,0,,,,,,,,,,,,,,,,,250.1785549000051,250.8280453000043,250.8280453000043,251.4275190000044,0.6150520999945002,251.4275190000044,253.44261490000645,2.6300525999977253,None,1,increament,0.6,25,standard,None,100,,,,,,,m,19,241,fr,r,0,raw,2023-05-16_09h39.57.322,oddball,2022.2.5,60.057931883489864,
10,,,,,0,0,0,2,1,0,1,0,12,0,12,0,,,,,,,,,,,,,,,,,253.45960420000483,254.07535900000948,254.07535900000948,254.67472830000042,0.6144678999989992,254.67472830000042,256.6899437000102,2.629663100000471,None,1,increament,0.6,25,standard,None,100,,,,,,,m,19,241,fr,r,0,raw,2023-05-16_09h39.57.322,oddball,2022.2.5,60.057931883489864,
10,,,,,0,0,0,2,1,0,1,0,13,0,13,0,,,,,,,,,,,,,,,,,256.7068377999967,257.38935680000577,257.38935680000577,257.98878590000095,0.6151954999950249,257.98878590000095,260.00440170000365,2.630922999989707,None,1,increament,0.6,25,standard,None,100,,,,,,,m,19,241,fr,r,0,raw,2023-05-16_09h39.57.322,oddball,2022.2.5,60.057931883489864,
10,,,,,0,0,0,2,1,0,1,0,14,0,14,0,,,,,,,,,,,,,,,,,260.0205513999972,260.8868308000092,260.8868308000092,261.4860872999998,0.6154574999964098,261.4860872999998,263.5010723000014,2.630425799987279,None,1,increament,0.6,25,standard,None,100,,,,,,,m,19,241,fr,r,0,raw,2023-05-16_09h39.57.322,oddball,2022.2.5,60.057931883489864,
10,,,,,0,0,0,2,1,0,1,0,15,0,15,0,,,,,,,,,,,,,,,,,263.51823060000606,264.0671147000103,264.0671147000103,265.01647090000915,0.9644069000059972,265.033239700002,267.0319520000048,2.9798748000030173,j,1,increament,0.96,28,oddball,j,160,0.28248039999743924,,,,,,m,19,241,fr,r,0,raw,2023-05-16_09h39.57.322,oddball,2022.2.5,60.057931883489864,
10,,,,,0,0,0,2,1,0,1,0,16,0,16,0,,,,,,,,,,,,,,,,,267.0480700000044,267.84752480000316,267.84752480000316,268.44709690001037,0.6150725999905262,268.44709690001037,270.4622173000098,2.6301330999995116,None,1,increament,0.6,25,standard,None,100,,,,,,,m,19,241,fr,r,0,raw,2023-05-16_09h39.57.322,oddball,2022.2.5,60.057931883489864,
10,,,,,0,0,0,2,1,0,1,0,17,0,17,0,,,,,,,,,,,,,,,,,270.4791433000064,271.24483399999735,271.24483399999735,271.8444187999994,0.615284999992582,271.8444187999994,273.85925999999745,2.630048599996371,None,1,increament,0.6,25,standard,None,100,,,,,,,m,19,241,fr,r,0,raw,2023-05-16_09h39.57.322,oddball,2022.2.5,60.057931883489864,
10,,,,,0,0,0,2,1,0,1,0,18,0,18,0,,,,,,,,,,,,,,,,,273.87582680000924,274.4920734000043,274.4920734000043,275.0915918999963,0.6150128000008408,275.0915918999963,277.1064131000021,2.629791800005478,None,1,increament,0.6,25,standard,None,100,,,,,,,m,19,241,fr,r,0,raw,2023-05-16_09h39.57.322,oddball,2022.2.5,60.057931883489864,
10,,,,,0,0,0,2,1,0,1,0,19,0,19,0,,,,,,,,,,,,,,,,,277.1233529000019,277.77276570000686,277.77276570000686,278.3719145000068,0.6147262000013143,278.3719145000068,280.38714510000136,2.630060000010417,None,1,increament,0.6,25,standard,None,100,,,,,,,m,19,241,fr,r,0,raw,2023-05-16_09h39.57.322,oddball,2022.2.5,60.057931883489864,
10,,,,,0,0,0,2,1,0,1,0,20,0,20,0,,,,,,,,,,,,,,,,,280.4045055000024,281.2031527000072,281.2031527000072,281.80252110000583,0.6146896999998717,281.80252110000583,283.8176763000083,2.629880200009211,None,1,increament,0.6,25,standard,None,100,,,,,,,m,19,241,fr,r,0,raw,2023-05-16_09h39.57.322,oddball,2022.2.5,60.057931883489864,
10,,,,,0,0,0,2,1,0,1,0,21,0,21,0,,,,,,,,,,,,,,,,,283.8343918000028,284.4005221999978,284.4005221999978,284.9999691999983,0.6148161000019172,284.9999691999983,287.01516720000654,2.6299523999914527,None,1,increament,0.6,25,standard,None,100,,,,,,,m,19,241,fr,r,0,raw,2023-05-16_09h39.57.322,oddball,2022.2.5,60.057931883489864,
10,,,,,0,0,0,2,1,0,1,0,22,0,22,0,,,,,,,,,,,,,,,,,287.03220119999605,287.6316136000096,287.6316136000096,288.23118280000926,0.5991600999986986,288.23118280000926,290.24575110001024,2.613319500000216,None,1,increament,0.6,25,standard,None,100,,,,,,,m,19,241,fr,r,0,raw,2023-05-16_09h39.57.322,oddball,2022.2.5,60.057931883489864,
10,,,,,0,0,0,2,1,0,1,0,23,0,23,0,,,,,,,,,,,,,,,,,290.24575110001024,291.0119008000038,291.0119008000038,291.61123829999997,0.6146580999920843,291.61123829999997,293.6265942000027,2.6300635999941733,None,1,increament,0.6,25,standard,None,100,,,,,,,m,19,241,fr,r,0,raw,2023-05-16_09h39.57.322,oddball,2022.2.5,60.057931883489864,
10,,,,,0,0,0,2,1,0,1,0,24,0,24,0,,,,,,,,,,,,,,,,,293.6432491000014,294.17623260000255,294.17623260000255,294.77562220000254,0.615193099991302,294.77562220000254,296.7902907000098,2.629948300003889,None,1,increament,0.6,25,standard,None,100,,,,,,,m,19,241,fr,r,0,raw,2023-05-16_09h39.57.322,oddball,2022.2.5,60.057931883489864,
10,,,,,0,0,0,2,1,0,1,0,25,0,25,0,,,,,,,,,,,,,,,,,296.8068995000067,297.53962540000794,297.53962540000794,298.1395033000008,0.6152608999982476,298.1395033000008,300.15410630000406,2.6298366999981226,None,1,increament,0.6,25,standard,None,100,,,,,,,m,19,241,fr,r,0,raw,2023-05-16_09h39.57.322,oddball,2022.2.5,60.057931883489864,
10,,,,,0,0,0,2,1,0,1,0,26,0,26,0,,,,,,,,,,,,,,,,,300.171090200005,300.7372396999999,300.7372396999999,301.5698456999962,0.8476610999932745,301.5863826999994,303.58466439999756,2.8623824999958742,None,0,increament,0.84,27,oddball,j,140,,,,,,,m,19,241,fr,r,0,raw,2023-05-16_09h39.57.322,oddball,2022.2.5,60.057931883489864,
10,,,,,0,0,0,2,1,0,1,0,27,0,27,0,,,,,,,,,,,,,,,,,303.6016185000044,304.1840602000011,304.1840602000011,304.78365399999893,0.6149810000060825,304.78365399999893,306.79876800000784,2.6301814000034938,None,1,increament,0.6,25,standard,None,100,,,,,,,m,19,241,fr,r,0,raw,2023-05-16_09h39.57.322,oddball,2022.2.5,60.057931883489864,
10,,,,,0,0,0,2,1,0,1,0,28,0,28,0,,,,,,,,,,,,,,,,,306.81612270000915,307.3982509000052,307.3982509000052,307.99787240001024,0.6145143000030657,307.99787240001024,310.0132797999977,2.629912800010061,None,1,increament,0.6,25,standard,None,100,,,,,,,m,19,241,fr,r,0,raw,2023-05-16_09h39.57.322,oddball,2022.2.5,60.057931883489864,
10,,,,,0,0,0,2,1,0,1,0,29,0,29,0,,,,,,,,,,,,,,,,,310.029443899999,310.6125706000021,310.6125706000021,311.21236430000863,0.615388799997163,311.21236430000863,313.22681130000274,2.629812099999981,None,1,increament,0.6,25,standard,None,100,,,,,,,m,19,241,fr,r,0,raw,2023-05-16_09h39.57.322,oddball,2022.2.5,60.057931883489864,
10,,,,,0,0,0,2,2,0,2,0,0,0,0,0,,,,,,,,,,,,,,,321.49138560000574,321.49138560000574,323.751774999997,324.4510070999968,324.4510070999968,325.0506519000046,0.6150412999995751,325.0506519000046,327.0656159000064,2.629907100010314,None,1,decreament,0.6,21,standard,None,100,,313.24361130000034,0.0017324999935226515,,,,m,19,241,fr,r,0,raw,2023-05-16_09h39.57.322,oddball,2022.2.5,60.057931883489864,
10,,,,,0,0,0,2,2,0,2,0,1,0,1,0,,,,,,,,,,,,,,,,,327.08246320000035,327.7483540000103,327.7483540000103,328.34778170000936,0.6147080999944592,328.34778170000936,330.3627331000025,2.629603800000041,None,1,decreament,0.6,21,standard,None,100,,,,,,,m,19,241,fr,r,0,raw,2023-05-16_09h39.57.322,oddball,2022.2.5,60.057931883489864,
10,,,,,0,0,0,2,2,0,2,0,2,0,2,0,,,,,,,,,,,,,,,,,330.3794968000002,330.9955239999981,330.9955239999981,331.59514790000685,0.614889000004041,331.59514790000685,333.6101178999961,2.629698999997345,None,1,decreament,0.6,21,standard,None,100,,,,,,,m,19,241,fr,r,0,raw,2023-05-16_09h39.57.322,oddball,2022.2.5,60.057931883489864,
10,,,,,0,0,0,2,2,0,2,0,3,0,3,0,,,,,,,,,,,,,,,,,333.6271233000007,334.2094892000023,334.2094892000023,334.80910199999926,0.6151618000003509,334.80910199999926,336.8241754000046,2.6302240999939386,None,1,decreament,0.6,21,standard,None,100,,,,,,,m,19,241,fr,r,0,raw,2023-05-16_09h39.57.322,oddball,2022.2.5,60.057931883489864,
10,,,,,0,0,0,2,2,0,2,0,4,0,4,0,,,,,,,,,,,,,,,,,336.84097050000855,337.57354090000445,337.57354090000445,338.1737424000021,0.6158055999985663,338.1737424000021,340.18802650000725,2.6300649999902816,None,1,decreament,0.6,21,standard,None,100,,,,,,,m,19,241,fr,r,0,raw,2023-05-16_09h39.57.322,oddball,2022.2.5,60.057931883489864,
10,,,,,0,0,0,2,2,0,2,0,5,0,5,0,,,,,,,,,,,,,,,,,340.2048866999976,340.87088790000416,340.87088790000416,341.4702502,0.6146112999995239,341.4702502,343.4853268000006,2.6297193000064,None,1,decreament,0.6,21,standard,None,100,,,,,,,m,19,241,fr,r,0,raw,2023-05-16_09h39.57.322,oddball,2022.2.5,60.057931883489864,
10,,,,,0,0,0,2,2,0,2,0,6,0,6,0,,,,,,,,,,,,,,,,,343.50182730000233,344.0681636000081,344.0681636000081,344.66770020000695,0.615143300005002,344.66770020000695,346.6827611000044,2.630172600009246,None,1,decreament,0.6,21,standard,None,100,,,,,,,m,19,241,fr,r,0,raw,2023-05-16_09h39.57.322,oddball,2022.2.5,60.057931883489864,
10,,,,,0,0,0,2,2,0,2,0,7,0,7,0,,,,,,,,,,,,,,,,,346.69929650000995,347.3489008000033,347.3489008000033,347.9482532999973,0.6150633999932325,347.9482532999973,349.96347940000123,2.630215600001975,None,1,decreament,0.6,21,standard,None,100,,,,,,,m,19,241,fr,r,0,raw,2023-05-16_09h39.57.322,oddball,2022.2.5,60.057931883489864,
10,,,,,0,0,0,2,2,0,2,0,8,0,8,0,,,,,,,,,,,,,,,,,349.9800108000054,350.6295698000031,350.6295698000031,350.9792071999982,0.36485320000792854,350.99555790000886,352.99401589999616,2.3796915000129957,j,1,decreament,0.36,23,oddball,j,60,0.4602719000104116,,,,,,m,19,241,fr,r,0,raw,2023-05-16_09h39.57.322,oddball,2022.2.5,60.057931883489864,
10,,,,,0,0,0,2,2,0,2,0,9,0,9,0,,,,,,,,,,,,,,,,,353.01110950000293,353.6273564000003,353.6273564000003,354.22638190000725,0.6150314000115031,354.22638190000725,356.241345500006,2.6299775000079535,None,1,decreament,0.6,21,standard,None,100,,,,,,,m,19,241,fr,r,0,raw,2023-05-16_09h39.57.322,oddball,2022.2.5,60.057931883489864,
10,,,,,0,0,0,2,2,0,2,0,10,0,10,0,,,,,,,,,,,,,,,,,356.25857800000813,356.89105310000014,356.89105310000014,357.49069590000727,0.6151912999921478,357.49069590000727,359.50566080000135,2.6302005000034114,None,1,decreament,0.6,21,standard,None,100,,,,,,,m,19,241,fr,r,0,raw,2023-05-16_09h39.57.322,oddball,2022.2.5,60.057931883489864,
10,,,,,0,0,0,2,2,0,2,0,11,0,11,0,,,,,,,,,,,,,,,,,359.52230820000113,360.1382838999998,360.1382838999998,360.7379459000076,0.6151331000000937,360.7379459000076,362.7528719999973,2.6137680999963777,None,1,decreament,0.6,21,standard,None,100,,,,,,,m,19,241,fr,r,0,raw,2023-05-16_09h39.57.322,oddball,2022.2.5,60.057931883489864,
10,,,,,0,0,0,2,2,0,2,0,12,0,12,0,,,,,,,,,,,,,,,,,362.7528719999973,363.4523571000027,363.4523571000027,364.0519232000079,0.6153478999913204,364.0519232000079,366.06680120000965,2.6301435999921523,None,1,decreament,0.6,21,standard,None,100,,,,,,,m,19,241,fr,r,0,raw,2023-05-16_09h39.57.322,oddball,2022.2.5,60.057931883489864,
10,,,,,0,0,0,2,2,0,2,0,13,0,13,0,,,,,,,,,,,,,,,,,366.0837304000015,366.84966530000384,366.84966530000384,367.4488293000031,0.6150507999991532,367.4488293000031,369.46393559999706,2.630159399996046,None,1,decreament,0.6,21,standard,None,100,,,,,,,m,19,241,fr,r,0,raw,2023-05-16_09h39.57.322,oddball,2022.2.5,60.057931883489864,
10,,,,,0,0,0,2,2,0,2,0,14,0,14,0,,,,,,,,,,,,,,,,,369.4807657000056,370.08008260000497,370.08008260000497,370.5464478000067,0.481589899995015,370.5634849000053,372.56155820000276,2.496705199999269,j,1,decreament,0.48,24,oddball,j,80,1.04939299999387,,,,,,m,19,241,fr,r,0,raw,2023-05-16_09h39.57.322,oddball,2022.2.5,60.057931883489864,
10,,,,,0,0,0,2,2,0,2,0,15,0,15,0,,,,,,,,,,,,,,,,,372.57820030000585,373.2272271999973,373.2272271999973,373.8270818000019,0.6153773999976693,373.8270818000019,375.84220300000743,2.6304362999944715,None,1,decreament,0.6,21,standard,None,100,,,,,,,m,19,241,fr,r,0,raw,2023-05-16_09h39.57.322,oddball,2022.2.5,60.057931883489864,
10,,,,,0,0,0,2,2,0,2,0,16,0,16,0,,,,,,,,,,,,,,,,,375.8588962000067,376.674777799999,376.674777799999,377.2741290999984,0.6148208000086015,377.2741290999984,379.28935030000866,2.6300181000115117,j,0,decreament,0.6,21,standard,None,100,0.8266317999950843,,,,,,m,19,241,fr,r,0,raw,2023-05-16_09h39.57.322,oddball,2022.2.5,60.057931883489864,
10,,,,,0,0,0,2,2,0,2,0,17,0,17,0,,,,,,,,,,,,,,,,,379.306318700008,379.95564800000284,379.95564800000284,380.55491740000434,0.6151456999941729,380.55491740000434,382.5696331000072,2.6297740999871166,j,0,decreament,0.6,21,standard,None,100,0.9002425000071526,,,,,,m,19,241,fr,r,0,raw,2023-05-16_09h39.57.322,oddball,2022.2.5,60.057931883489864,
10,,,,,0,0,0,2,2,0,2,0,18,0,18,0,,,,,,,,,,,,,,,,,382.5868294999964,383.1861413000006,383.1861413000006,383.41961569999694,0.24910480000835378,383.4357447000075,385.4340993000078,2.2636001000064425,j,1,decreament,0.24,22,oddball,j,40,0.6460324999934528,,,,,,m,19,241,fr,r,0,raw,2023-05-16_09h39.57.322,oddball,2022.2.5,60.057931883489864,
10,,,,,0,0,0,2,2,0,2,0,19,0,19,0,,,,,,,,,,,,,,,,,385.4511530000018,386.1008063000045,386.1008063000045,386.6996232000092,0.6150092000025325,386.6996232000092,388.71464659999765,2.6300632000056794,None,1,decreament,0.6,21,standard,None,100,,,,,,,m,19,241,fr,r,0,raw,2023-05-16_09h39.57.322,oddball,2022.2.5,60.057931883489864,
10,,,,,0,0,0,2,2,0,2,0,20,0,20,0,,,,,,,,,,,,,,,,,388.7319684999966,389.4475439000089,389.4475439000089,390.0469849000074,0.6149498000013409,390.0469849000074,392.06194430000323,2.6299294000054942,None,1,decreament,0.6,21,standard,None,100,,,,,,,m,19,241,fr,r,0,raw,2023-05-16_09h39.57.322,oddball,2022.2.5,60.057931883489864,
10,,,,,0,0,0,2,2,0,2,0,21,0,21,0,,,,,,,,,,,,,,,,,392.0787856000097,392.7450635999994,392.7450635999994,393.34429629999795,0.6145255000010366,393.34429629999795,395.35932400000456,2.629504199998337,None,1,decreament,0.6,21,standard,None,100,,,,,,,m,19,241,fr,r,0,raw,2023-05-16_09h39.57.322,oddball,2022.2.5,60.057931883489864,
10,,,,,0,0,0,2,2,0,2,0,22,0,22,0,,,,,,,,,,,,,,,,,395.37600479999674,395.959047700002,395.959047700002,396.55823190000956,0.6150481999939075,396.55823190000956,398.5733526999975,2.6301209999946877,j,0,decreament,0.6,21,standard,None,100,0.7823918999929447,,,,,,m,19,241,fr,r,0,raw,2023-05-16_09h39.57.322,oddball,2022.2.5,60.057931883489864,
10,,,,,0,0,0,2,2,0,2,0,23,0,23,0,,,,,,,,,,,,,,,,,398.5902436000033,399.4061647000053,399.4061647000053,400.0054644000047,0.6150315999984741,400.0054644000047,402.0208430000057,2.6303969000000507,None,1,decreament,0.6,21,standard,None,100,,,,,,,m,19,241,fr,r,0,raw,2023-05-16_09h39.57.322,oddball,2022.2.5,60.057931883489864,
10,,,,,0,0,0,2,2,0,2,0,24,0,24,0,,,,,,,,,,,,,,,,,402.037704900009,402.736903099998,402.736903099998,403.3364425000036,0.6152038000000175,403.3364425000036,405.350998000009,2.629675300006056,None,1,decreament,0.6,21,standard,None,100,,,,,,,m,19,241,fr,r,0,raw,2023-05-16_09h39.57.322,oddball,2022.2.5,60.057931883489864,
10,,,,,0,0,0,2,2,0,2,0,25,0,25,0,,,,,,,,,,,,,,,,,405.3679099000001,406.0007429999969,406.0007429999969,406.6002543000068,0.6149810000060825,406.6002543000068,408.61544930000673,2.63023150000663,None,1,decreament,0.6,21,standard,None,100,,,,,,,m,19,241,fr,r,0,raw,2023-05-16_09h39.57.322,oddball,2022.2.5,60.057931883489864,
10,,,,,0,0,0,2,2,0,2,0,26,0,26,0,,,,,,,,,,,,,,,,,408.6316862000094,409.3317704000074,409.3317704000074,409.9309917000064,0.6154443999985233,409.9309917000064,411.94591700000456,2.630383800002164,None,1,decreament,0.6,21,standard,None,100,,,,,,,m,19,241,fr,r,0,raw,2023-05-16_09h39.57.322,oddball,2022.2.5,60.057931883489864,
10,,,,,0,0,0,2,2,0,2,0,27,0,27,0,,,,,,,,,,,,,,,,,411.9626619000046,412.59504860000743,412.59504860000743,413.19454300000507,0.6151069000043208,413.19454300000507,415.20998529999633,2.6304319000046235,j,0,decreament,0.6,21,standard,None,100,0.7188565999967977,,,,,,m,19,241,fr,r,0,raw,2023-05-16_09h39.57.322,oddball,2022.2.5,60.057931883489864,
10,,,,,0,0,0,2,2,0,2,0,28,0,28,0,,,,,,,,,,,,,,,,,415.22677760000806,415.82633989999886,415.82633989999886,416.4252284999966,0.6143595000030473,416.4252284999966,418.44014030000835,2.6132302999903914,None,1,decreament,0.6,21,standard,None,100,,,,,,,m,19,241,fr,r,0,raw,2023-05-16_09h39.57.322,oddball,2022.2.5,60.057931883489864,
10,,,,,0,0,0,2,2,0,2,0,29,0,29,0,,,,,,,,,,,,,,,,,418.44014030000835,419.00701690001006,419.00701690001006,419.6062441000104,0.6152839000133099,419.62293599999975,421.62123849999625,2.6303783000039402,None,1,decreament,0.6,21,standard,None,100,,,,,,,m,19,241,fr,r,0,raw,2023-05-16_09h39.57.322,oddball,2022.2.5,60.057931883489864,
10,,,,,0,0,0,2,3,0,3,0,0,0,0,0,,,,,,,,,,,,,,,428.21020660000795,428.21020660000795,431.36346920000506,432.07930209999904,432.07930209999904,432.6788327000104,0.6154239000024972,432.6788327000104,434.69377969999914,2.630355800007237,None,1,increament,0.6,25,standard,None,100,,421.63818740000715,0.0016660000110277906,,,,m,19,241,fr,r,0,raw,2023-05-16_09h39.57.322,oddball,2022.2.5,60.057931883489864,
10,,,,,0,0,0,2,3,0,3,0,1,0,1,0,,,,,,,,,,,,,,,,,434.7106196000095,435.29372319999675,435.29372319999675,435.8928297000093,0.6150896999897668,435.9095985000022,437.90765980001015,2.629875099999481,None,1,increament,0.6,25,standard,None,100,,,,,,,m,19,241,fr,r,0,raw,2023-05-16_09h39.57.322,oddball,2022.2.5,60.057931883489864,
10,,,,,0,0,0,2,3,0,3,0,2,0,2,0,,,,,,,,,,,,,,,,,437.924529099997,438.5738230999996,438.5738230999996,439.1731271000026,0.6143180999933975,439.1731271000026,441.1882653000066,2.629552099999273,None,1,increament,0.6,25,standard,None,100,,,,,,,m,19,241,fr,r,0,raw,2023-05-16_09h39.57.322,oddball,2022.2.5,60.057931883489864,
10,,,,,0,0,0,2,3,0,3,0,3,0,3,0,,,,,,,,,,,,,,,,,441.2054070000013,441.93771900000866,441.93771900000866,442.5373255000013,0.6153731999947922,442.5373255000013,444.55222579999827,2.6302149999974063,None,1,increament,0.6,25,standard,None,100,,,,,,,m,19,241,fr,r,0,raw,2023-05-16_09h39.57.322,oddball,2022.2.5,60.057931883489864,
10,,,,,0,0,0,2,3,0,3,0,4,0,4,0,,,,,,,,,,,,,,,,,444.56890060000296,445.1183233000047,445.1183233000047,445.7181417999964,0.6152522999909706,445.7181417999964,447.7329591000016,2.6299652000016067,None,1,increament,0.6,25,standard,None,100,,,,,,,m,19,241,fr,r,0,raw,2023-05-16_09h39.57.322,oddball,2022.2.5,60.057931883489864,
10,,,,,0,0,0,2,3,0,3,0,5,0,5,0,,,,,,,,,,,,,,,,,447.74975709999853,448.39945520000765,448.39945520000765,448.9986956000066,0.6148924000008265,448.9986956000066,451.01357100000314,2.6296939000021666,None,1,increament,0.6,25,standard,None,100,,,,,,,m,19,241,fr,r,0,raw,2023-05-16_09h39.57.322,oddball,2022.2.5,60.057931883489864,
10,,,,,0,0,0,2,3,0,3,0,6,0,6,0,,,,,,,,,,,,,,,,,451.0303140000033,451.6631733999966,451.6631733999966,452.2624580999982,0.6146042000036687,452.2624580999982,454.2778676000016,2.629952500006766,None,1,increament,0.6,25,standard,None,100,,,,,,,m,19,241,fr,r,0,raw,2023-05-16_09h39.57.322,oddball,2022.2.5,60.057931883489864,
10,,,,,0,0,0,2,3,0,3,0,7,0,7,0,,,,,,,,,,,,,,,,,454.29482700000517,454.9770794000069,454.9770794000069,455.5768042999989,0.615118399990024,455.5768042999989,457.59173260000534,2.6300657999963732,None,1,increament,0.6,25,standard,None,100,,,,,,,m,19,241,fr,r,0,raw,2023-05-16_09h39.57.322,oddball,2022.2.5,60.057931883489864,
10,,,,,0,0,0,2,3,0,3,0,8,0,8,0,,,,,,,,,,,,,,,,,457.6082805000042,458.19125489999715,458.19125489999715,458.7903013000032,0.6148459999967599,458.7903013000032,460.8057323999965,2.6302276000060374,None,1,increament,0.6,25,standard,None,100,,,,,,,m,19,241,fr,r,0,raw,2023-05-16_09h39.57.322,oddball,2022.2.5,60.057931883489864,
10,,,,,0,0,0,2,3,0,3,0,9,0,9,0,,,,,,,,,,,,,,,,,460.822196100009,461.50515070000256,461.50515070000256,462.1043411999999,0.6147039999923436,462.1043411999999,464.11952760000713,2.6298169999936363,None,1,increament,0.6,25,standard,None,100,,,,,,,m,19,241,fr,r,0,raw,2023-05-16_09h39.57.322,oddball,2022.2.5,60.057931883489864,
10,,,,,0,0,0,2,3,0,3,0,10,0,10,0,,,,,,,,,,,,,,,,,464.13643440000305,464.81913650000934,464.81913650000934,465.418648699997,0.6153114000044297,465.418648699997,467.43374510000285,2.630464000001666,None,1,increament,0.6,25,standard,None,100,,,,,,,m,19,241,fr,r,0,raw,2023-05-16_09h39.57.322,oddball,2022.2.5,60.057931883489864,
10,,,,,0,0,0,2,3,0,3,0,11,0,11,0,,,,,,,,,,,,,,,,,467.45021599999745,467.9995806000079,467.9995806000079,468.94879870000295,0.9643822000070941,468.9660634000029,470.96386709999933,2.9794085000030464,j,1,increament,0.96,28,oddball,j,160,0.46729270000651013,,,,,,m,19,241,fr,r,0,raw,2023-05-16_09h39.57.322,oddball,2022.2.5,60.057931883489864,
10,,,,,0,0,0,2,3,0,3,0,12,0,12,0,,,,,,,,,,,,,,,,,470.9806671999977,471.6301714000001,471.6301714000001,472.22951250000915,0.6152514000132214,472.22951250000915,474.24472190000233,2.63040870000259,None,1,increament,0.6,25,standard,None,100,,,,,,,m,19,241,fr,r,0,raw,2023-05-16_09h39.57.322,oddball,2022.2.5,60.057931883489864,
10,,,,,0,0,0,2,3,0,3,0,13,0,13,0,,,,,,,,,,,,,,,,,474.26128120000067,474.94382700001006,474.94382700001006,475.5434058999963,0.6153157000080682,475.5434058999963,477.55855139999767,2.6303067000117153,None,1,increament,0.6,25,standard,None,100,,,,,,,m,19,241,fr,r,0,raw,2023-05-16_09h39.57.322,oddball,2022.2.5,60.057931883489864,
10,,,,,0,0,0,2,3,0,3,0,14,0,14,0,,,,,,,,,,,,,,,,,477.5755487999995,478.20808789999865,478.20808789999865,478.8074764000048,0.6152167999971425,478.8074764000048,480.82269899999665,2.630403999995906,None,1,increament,0.6,25,standard,None,100,,,,,,,m,19,241,fr,r,0,raw,2023-05-16_09h39.57.322,oddball,2022.2.5,60.057931883489864,
10,,,,,0,0,0,2,3,0,3,0,15,0,15,0,,,,,,,,,,,,,,,,,480.8389354999963,481.4723209000076,481.4723209000076,482.0713432000048,0.6150448999978835,482.0713432000048,484.086676100007,2.6303075999894645,None,1,increament,0.6,25,standard,None,100,,,,,,,m,19,241,fr,r,0,raw,2023-05-16_09h39.57.322,oddball,2022.2.5,60.057931883489864,
10,,,,,0,0,0,2,3,0,3,0,16,0,16,0,,,,,,,,,,,,,,,,,484.1032539000007,484.6534820000088,484.6534820000088,485.2521420999983,0.6152164999948582,485.2521420999983,487.2675004000048,2.630579699994996,None,1,increament,0.6,25,standard,None,100,,,,,,,m,19,241,fr,r,0,raw,2023-05-16_09h39.57.322,oddball,2022.2.5,60.057931883489864,
10,,,,,0,0,0,2,3,0,3,0,17,0,17,0,,,,,,,,,,,,,,,,,487.2840209999995,487.9333639999968,487.9333639999968,488.53312380000716,0.6153160999965621,488.53312380000716,490.54798430000665,2.6301338999910513,None,1,increament,0.6,25,standard,None,100,,,,,,,m,19,241,fr,r,0,raw,2023-05-16_09h39.57.322,oddball,2022.2.5,60.057931883489864,
10,,,,,0,0,0,2,3,0,3,0,18,0,18,0,,,,,,,,,,,,,,,,,490.5651579999976,491.1309883000067,491.1309883000067,491.73013080000237,0.6148329999996349,491.73013080000237,493.7451126000087,2.6298321000067517,None,1,increament,0.6,25,standard,None,100,,,,,,,m,19,241,fr,r,0,raw,2023-05-16_09h39.57.322,oddball,2022.2.5,60.057931883489864,
10,,,,,0,0,0,2,3,0,3,0,19,0,19,0,,,,,,,,,,,,,,,,,493.76221169999917,494.4614672000025,494.4614672000025,495.0609672999999,0.6150014000013471,495.0609672999999,497.0757588999986,2.6297080000076676,None,1,increament,0.6,25,standard,None,100,,,,,,,m,19,241,fr,r,0,raw,2023-05-16_09h39.57.322,oddball,2022.2.5,60.057931883489864,
10,,,,,0,0,0,2,3,0,3,0,20,0,20,0,,,,,,,,,,,,,,,,,497.09248940000543,497.72525220000534,497.72525220000534,498.32479199999943,0.6146214000036707,498.32479199999943,500.3398661999963,2.629747800005134,None,1,increament,0.6,25,standard,None,100,,,,,,,m,19,241,fr,r,0,raw,2023-05-16_09h39.57.322,oddball,2022.2.5,60.057931883489864,
10,,,,,0,0,0,2,3,0,3,0,21,0,21,0,,,,,,,,,,,,,,,,,500.3568314000004,501.0723136000015,501.0723136000015,501.67185310000787,0.6147179999970831,501.67185310000787,503.68721450000885,2.630051200001617,None,1,increament,0.6,25,standard,None,100,,,,,,,m,19,241,fr,r,0,raw,2023-05-16_09h39.57.322,oddball,2022.2.5,60.057931883489864,
10,,,,,0,0,0,2,3,0,3,0,22,0,22,0,,,,,,,,,,,,,,,,,503.7036638999998,504.3537132000056,504.3537132000056,505.18608369999856,0.8480111999961082,505.20268080000824,507.20128350000596,2.863207300004433,None,0,increament,0.84,27,oddball,j,140,,,,,,,m,19,241,fr,r,0,raw,2023-05-16_09h39.57.322,oddball,2022.2.5,60.057931883489864,
10,,,,,0,0,0,2,3,0,3,0,23,0,23,0,,,,,,,,,,,,,,,,,507.21790879999753,507.9505247000052,507.9505247000052,508.54955039999913,0.6146291999903042,508.54955039999913,510.564658999996,2.629714899987448,None,1,increament,0.6,25,standard,None,100,,,,,,,m,19,241,fr,r,0,raw,2023-05-16_09h39.57.322,oddball,2022.2.5,60.057931883489864,
10,,,,,0,0,0,2,3,0,3,0,24,0,24,0,,,,,,,,,,,,,,,,,510.5818295000063,511.1140572000004,511.1140572000004,511.7138000999985,0.6148571999947308,511.7138000999985,513.7287937000074,2.629847400006838,None,1,increament,0.6,25,standard,None,100,,,,,,,m,19,241,fr,r,0,raw,2023-05-16_09h39.57.322,oddball,2022.2.5,60.057931883489864,
10,,,,,0,0,0,2,3,0,3,0,25,0,25,0,,,,,,,,,,,,,,,,,513.745726299996,514.5116090000083,514.5116090000083,515.1110175000067,0.6150209999905201,515.1110175000067,517.1259571999981,2.6299769999895943,None,1,increament,0.6,25,standard,None,100,,,,,,,m,19,241,fr,r,0,raw,2023-05-16_09h39.57.322,oddball,2022.2.5,60.057931883489864,
10,,,,,0,0,0,2,3,0,3,0,26,0,26,0,,,,,,,,,,,,,,,,,517.1427427000017,517.709234599999,517.709234599999,518.3082233000023,0.6148694000003161,518.3082233000023,520.3232086000062,2.630017699993914,None,1,increament,0.6,25,standard,None,100,,,,,,,m,19,241,fr,r,0,raw,2023-05-16_09h39.57.322,oddball,2022.2.5,60.057931883489864,
10,,,,,0,0,0,2,3,0,3,0,27,0,27,0,,,,,,,,,,,,,,,,,520.3400919999985,520.9563705000037,520.9563705000037,521.5554496999976,0.6147608000028413,521.5554496999976,523.5707272,2.6300782000034815,None,1,increament,0.6,25,standard,None,100,,,,,,,m,19,241,fr,r,0,raw,2023-05-16_09h39.57.322,oddball,2022.2.5,60.057931883489864,
10,,,,,0,0,0,2,3,0,3,0,28,0,28,0,,,,,,,,,,,,,,,,,523.5874952000013,524.153649800006,524.153649800006,524.7536749999999,0.615469900003518,524.7536749999999,526.7684035999991,2.6301554000092437,None,1,increament,0.6,25,standard,None,100,,,,,,,m,19,241,fr,r,0,raw,2023-05-16_09h39.57.322,oddball,2022.2.5,60.057931883489864,
10,,,,,0,0,0,2,3,0,3,0,29,0,29,0,,,,,,,,,,,,,,,,,526.7847848000092,527.6007328999985,527.6007328999985,528.317360800007,0.7317776999989292,528.3336374000064,530.3317342000082,2.746113300003344,None,0,increament,0.72,26,oddball,j,120,,,,,,,m,19,241,fr,r,0,raw,2023-05-16_09h39.57.322,oddball,2022.2.5,60.057931883489864,
10,,,,,0,0,0,2,4,0,4,0,0,0,0,0,,,,,,,,,,,,,,,538.3773488000006,538.3773488000006,539.9744301000028,540.6233920000086,540.6233920000086,541.222877799999,0.6146404000028269,541.222877799999,543.2379741000041,2.629777499998454,None,1,decreament,0.6,21,standard,None,100,,530.3485772999993,0.001504999992903322,,,,m,19,241,fr,r,0,raw,2023-05-16_09h39.57.322,oddball,2022.2.5,60.057931883489864,
10,,,,,0,0,0,2,4,0,4,0,1,0,1,0,,,,,,,,,,,,,,,,,543.2546157000033,544.0042168000073,544.0042168000073,544.6034271999961,0.6152028000069549,544.6034271999961,546.6185221000051,2.6303367000073195,None,1,decreament,0.6,21,standard,None,100,,,,,,,m,19,241,fr,r,0,raw,2023-05-16_09h39.57.322,oddball,2022.2.5,60.057931883489864,
10,,,,,0,0,0,2,4,0,4,0,2,0,2,0,,,,,,,,,,,,,,,,,546.6354302999971,547.1515992000059,547.1515992000059,547.7507022000063,0.6146675000054529,547.7507022000063,549.765928000008,2.6299132999993162,None,1,decreament,0.6,21,standard,None,100,,,,,,,m,19,241,fr,r,0,raw,2023-05-16_09h39.57.322,oddball,2022.2.5,60.057931883489864,
10,,,,,0,0,0,2,4,0,4,0,3,0,3,0,,,,,,,,,,,,,,,,,549.7826986,550.4324157000083,550.4324157000083,551.0313879000023,0.614850199999637,551.0485256000102,553.0469575000025,2.630417199994554,None,1,decreament,0.6,21,standard,None,100,,,,,,,m,19,241,fr,r,0,raw,2023-05-16_09h39.57.322,oddball,2022.2.5,60.057931883489864,
10,,,,,0,0,0,2,4,0,4,0,4,0,4,0,,,,,,,,,,,,,,,,,553.0629863000067,553.7793043999991,553.7793043999991,554.3786418000091,0.6151588000066113,554.3786418000091,556.3939622000034,2.6304227000073297,None,1,decreament,0.6,21,standard,None,100,,,,,,,m,19,241,fr,r,0,raw,2023-05-16_09h39.57.322,oddball,2022.2.5,60.057931883489864,
10,,,,,0,0,0,2,4,0,4,0,5,0,5,0,,,,,,,,,,,,,,,,,556.4103795999981,557.0099308000063,557.0099308000063,557.6098706000048,0.6154690000112168,557.6098706000048,559.6245902000082,2.6301357000047574,None,1,decreament,0.6,21,standard,None,100,,,,,,,m,19,241,fr,r,0,raw,2023-05-16_09h39.57.322,oddball,2022.2.5,60.057931883489864,
10,,,,,0,0,0,2,4,0,4,0,6,0,6,0,,,,,,,,,,,,,,,,,559.6412187000096,560.3903563000058,560.3903563000058,560.7404730999988,0.3664237999910256,560.7569070000027,562.755241699997,2.3811808000027668,j,1,decreament,0.36,23,oddball,j,60,0.6959979999955976,,,,,,m,19,241,fr,r,0,raw,2023-05-16_09h39.57.322,oddball,2022.2.5,60.057931883489864,
10,,,,,0,0,0,2,4,0,4,0,7,0,7,0,,,,,,,,,,,,,,,,,562.7718448000087,563.3550673999998,563.3550673999998,563.9544064000074,0.6153168000018923,563.9707542999968,565.96950810001,2.630415499996161,None,1,decreament,0.6,21,standard,None,100,,,,,,,m,19,241,fr,r,0,raw,2023-05-16_09h39.57.322,oddball,2022.2.5,60.057931883489864,
10,,,,,0,0,0,2,4,0,4,0,8,0,8,0,,,,,,,,,,,,,,,,,565.9858421000099,566.7019986000087,566.7019986000087,567.3012759999983,0.6146946999942884,567.3012759999983,569.3167104000022,2.6302230000001146,None,1,decreament,0.6,21,standard,None,100,,,,,,,m,19,241,fr,r,0,raw,2023-05-16_09h39.57.322,oddball,2022.2.5,60.057931883489864,
10,,,,,0,0,0,2,4,0,4,0,9,0,9,0,,,,,,,,,,,,,,,,,569.3330545000063,569.9824631000083,569.9824631000083,570.5820837000065,0.6153447999968193,570.5820837000065,572.5971624000085,2.630421000008937,None,1,decreament,0.6,21,standard,None,100,,,,,,,m,19,241,fr,r,0,raw,2023-05-16_09h39.57.322,oddball,2022.2.5,60.057931883489864,
10,,,,,0,0,0,2,4,0,4,0,10,0,10,0,,,,,,,,,,,,,,,,,572.6139512000082,573.2463675000035,573.2463675000035,573.8463598000089,0.6153514000034193,573.8463598000089,575.8611892000044,2.630058299997472,None,1,decreament,0.6,21,standard,None,100,,,,,,,m,19,241,fr,r,0,raw,2023-05-16_09h39.57.322,oddball,2022.2.5,60.057931883489864,
10,,,,,0,0,0,2,4,0,4,0,11,0,11,0,,,,,,,,,,,,,,,,,575.8780429000035,576.577080300005,576.577080300005,577.176971000008,0.5991006000112975,577.176971000008,579.1916084999975,2.6138262000022223,None,1,decreament,0.6,21,standard,None,100,,,,,,,m,19,241,fr,r,0,raw,2023-05-16_09h39.57.322,oddball,2022.2.5,60.057931883489864,
10,,,,,0,0,0,2,4,0,4,0,12,0,12,0,,,,,,,,,,,,,,,,,579.1916084999975,579.8076685999986,579.8076685999986,580.4072855999984,0.6150462999939919,580.4072855999984,582.4225854999968,2.6302489999943646,None,1,decreament,0.6,21,standard,None,100,,,,,,,m,19,241,fr,r,0,raw,2023-05-16_09h39.57.322,oddball,2022.2.5,60.057931883489864,
10,,,,,0,0,0,2,4,0,4,0,13,0,13,0,,,,,,,,,,,,,,,,,582.4389414000034,583.1053664000065,583.1053664000065,583.7046020999987,0.6150142999977106,583.7046020999987,585.719697499997,2.630072400002973,None,1,decreament,0.6,21,standard,None,100,,,,,,,m,19,241,fr,r,0,raw,2023-05-16_09h39.57.322,oddball,2022.2.5,60.057931883489864,
10,,,,,0,0,0,2,4,0,4,0,14,0,14,0,,,,,,,,,,,,,,,,,585.7366922000074,586.3024461000023,586.3024461000023,586.9017796999979,0.6145373000035761,586.9017796999979,588.917346000002,2.630092899998999,None,1,decreament,0.6,21,standard,None,100,,,,,,,m,19,241,fr,r,0,raw,2023-05-16_09h39.57.322,oddball,2022.2.5,60.057931883489864,
10,,,,,0,0,0,2,4,0,4,0,15,0,15,0,,,,,,,,,,,,,,,,,588.9338677000051,589.5665886000061,589.5665886000061,589.7995651000092,0.2485134000016842,589.8162747000024,591.8148237999994,2.2638527999952203,j,1,decreament,0.24,22,oddball,j,40,0.528036699994118,,,,,,m,19,241,fr,r,0,raw,2023-05-16_09h39.57.322,oddball,2022.2.5,60.057931883489864,
10,,,,,0,0,0,2,4,0,4,0,16,0,16,0,,,,,,,,,,,,,,,,,591.8316459000052,592.5306178000028,592.5306178000028,593.130539100006,0.6154898000095272,593.130539100006,595.1452190999989,2.6301014000055147,None,1,decreament,0.6,21,standard,None,100,,,,,,,m,19,241,fr,r,0,raw,2023-05-16_09h39.57.322,oddball,2022.2.5,60.057931883489864,
10,,,,,0,0,0,2,4,0,4,0,17,0,17,0,,,,,,,,,,,,,,,,,595.1619684000034,595.8619013999996,595.8619013999996,596.4611258000077,0.6154706999950577,596.4611258000077,598.4779210999986,2.6323151999968104,None,1,decreament,0.6,21,standard,None,100,,,,,,,m,19,241,fr,r,0,raw,2023-05-16_09h39.57.322,oddball,2022.2.5,60.057931883489864,
10,,,,,0,0,0,2,4,0,4,0,18,0,18,0,,,,,,,,,,,,,,,,,598.4926354000054,599.0426048000081,599.0426048000081,599.6411999999982,0.6145885000005364,599.6411999999982,601.6567060000089,2.630169999989448,None,1,decreament,0.6,21,standard,None,100,,,,,,,m,19,241,fr,r,0,raw,2023-05-16_09h39.57.322,oddball,2022.2.5,60.057931883489864,
10,,,,,0,0,0,2,4,0,4,0,19,0,19,0,,,,,,,,,,,,,,,,,601.6735719999997,602.4723139999987,602.4723139999987,603.0720836999972,0.6152215000038268,603.0720836999972,605.0871862000058,2.630262100006803,None,1,decreament,0.6,21,standard,None,100,,,,,,,m,19,241,fr,r,0,raw,2023-05-16_09h39.57.322,oddball,2022.2.5,60.057931883489864,
10,,,,,0,0,0,2,4,0,4,0,20,0,20,0,,,,,,,,,,,,,,,,,605.1038110000081,605.8028606000007,605.8028606000007,606.4025238000031,0.6150185000005877,606.4025238000031,608.4181054000073,2.6305351999908453,None,1,decreament,0.6,21,standard,None,100,,,,,,,m,19,241,fr,r,0,raw,2023-05-16_09h39.57.322,oddball,2022.2.5,60.057931883489864,
10,,,,,0,0,0,2,4,0,4,0,21,0,21,0,,,,,,,,,,,,,,,,,608.4345278999972,608.9841075000004,608.9841075000004,609.5834956000035,0.6147276999981841,609.5834956000035,611.5982097000087,2.629443400001037,None,1,decreament,0.6,21,standard,None,100,,,,,,,m,19,241,fr,r,0,raw,2023-05-16_09h39.57.322,oddball,2022.2.5,60.057931883489864,
10,,,,,0,0,0,2,4,0,4,0,22,0,22,0,,,,,,,,,,,,,,,,,611.6152000000002,612.3311239000031,612.3311239000031,612.9304582000041,0.61462959999335,612.9304582000041,614.9456311999966,2.6297911000001477,None,1,decreament,0.6,21,standard,None,100,,,,,,,m,19,241,fr,r,0,raw,2023-05-16_09h39.57.322,oddball,2022.2.5,60.057931883489864,
10,,,,,0,0,0,2,4,0,4,0,23,0,23,0,,,,,,,,,,,,,,,,,614.9621486999968,615.5950027000072,615.5950027000072,616.1947542999987,0.6151662000047509,616.1947542999987,618.2097186000028,2.6300824000063585,None,1,decreament,0.6,21,standard,None,100,,,,,,,m,19,241,fr,r,0,raw,2023-05-16_09h39.57.322,oddball,2022.2.5,60.057931883489864,
10,,,,,0,0,0,2,4,0,4,0,24,0,24,0,,,,,,,,,,,,,,,,,618.226152800009,618.8092278999975,618.8092278999975,619.2752569000004,0.48166069999570027,619.2921305000054,621.2908984000096,2.4973143999959575,None,0,decreament,0.48,24,oddball,j,80,,,,,,,m,19,241,fr,r,0,raw,2023-05-16_09h39.57.322,oddball,2022.2.5,60.057931883489864,
10,,,,,0,0,0,2,4,0,4,0,25,0,25,0,,,,,,,,,,,,,,,,,621.3074218999973,621.9066231000033,621.9066231000033,622.5060717000015,0.6152667999995174,622.5060717000015,624.5207996000099,2.62992029999441,None,1,decreament,0.6,21,standard,None,100,,,,,,,m,19,241,fr,r,0,raw,2023-05-16_09h39.57.322,oddball,2022.2.5,60.057931883489864,
10,,,,,0,0,0,2,4,0,4,0,26,0,26,0,,,,,,,,,,,,,,,,,624.5378393999999,625.2201403000072,625.2201403000072,625.8199711000052,0.6147969000012381,625.8199711000052,627.8353022000083,2.6301893000054406,None,1,decreament,0.6,21,standard,None,100,,,,,,,m,19,241,fr,r,0,raw,2023-05-16_09h39.57.322,oddball,2022.2.5,60.057931883489864,
10,,,,,0,0,0,2,4,0,4,0,27,0,27,0,,,,,,,,,,,,,,,,,627.851734099997,628.4511590000038,628.4511590000038,629.0507496000064,0.6145082000002731,629.0507496000064,631.0655998000002,2.629444100006367,j,0,decreament,0.6,21,standard,None,100,0.6458563999913167,,,,,,m,19,241,fr,r,0,raw,2023-05-16_09h39.57.322,oddball,2022.2.5,60.057931883489864,
10,,,,,0,0,0,2,4,0,4,0,28,0,28,0,,,,,,,,,,,,,,,,,631.0828349000076,631.6819376000058,631.6819376000058,632.2814310000103,0.6152125999942655,632.2814310000103,634.2966065000073,2.630480899999384,None,1,decreament,0.6,21,standard,None,100,,,,,,,m,19,241,fr,r,0,raw,2023-05-16_09h39.57.322,oddball,2022.2.5,60.057931883489864,
10,,,,,0,0,0,2,4,0,4,0,29,0,29,0,,,,,,,,,,,,,,,,,634.3131913999969,634.9961561000091,634.9961561000091,635.595722500002,0.6153694999957224,635.595722500002,637.6105490000045,2.6302464999898802,None,1,decreament,0.6,21,standard,None,100,,,,,,,m,19,241,fr,r,0,raw,2023-05-16_09h39.57.322,oddball,2022.2.5,60.057931883489864,
10,,,,,0,0,0,2,5,0,5,0,0,0,0,0,,,,,,,,,,,,,,,643.7457744999992,643.7457744999992,645.1709059999994,645.8204087000049,645.8204087000049,646.4198066999961,0.6149474999983795,646.4198066999961,648.4351252000051,2.630360199997085,None,1,increament,0.6,25,standard,None,100,,637.6272228000016,0.0017137999966507778,,,,m,19,241,fr,r,0,raw,2023-05-16_09h39.57.322,oddball,2022.2.5,60.057931883489864,
10,,,,,0,0,0,2,5,0,5,0,1,0,1,0,,,,,,,,,,,,,,,,,648.4514262000012,649.1179252000002,649.1179252000002,649.717143700007,0.6150046000111615,649.717143700007,651.7321720000036,2.6299867000052473,None,1,increament,0.6,25,standard,None,100,,,,,,,m,19,241,fr,r,0,raw,2023-05-16_09h39.57.322,oddball,2022.2.5,60.057931883489864,
10,,,,,0,0,0,2,5,0,5,0,2,0,2,0,,,,,,,,,,,,,,,,,651.7487743000092,652.3981229000055,652.3981229000055,652.9974904999981,0.6145141000015428,652.9974904999981,655.0125576999999,2.6296055000129854,None,1,increament,0.6,25,standard,None,100,,,,,,,m,19,241,fr,r,0,raw,2023-05-16_09h39.57.322,oddball,2022.2.5,60.057931883489864,
10,,,,,0,0,0,2,5,0,5,0,3,0,3,0,,,,,,,,,,,,,,,,,655.0298743000021,655.6795825000008,655.6795825000008,656.2786805000069,0.6152176000032341,656.2949064999993,658.2934287000098,2.629974700001185,None,1,increament,0.6,25,standard,None,100,,,,,,,m,19,241,fr,r,0,raw,2023-05-16_09h39.57.322,oddball,2022.2.5,60.057931883489864,
10,,,,,0,0,0,2,5,0,5,0,4,0,4,0,,,,,,,,,,,,,,,,,658.309857100001,659.0594824,659.0594824,659.6590836999967,0.6152529000100913,659.6590836999967,661.6738004000072,2.6299969000101555,None,1,increament,0.6,25,standard,None,100,,,,,,,m,19,241,fr,r,0,raw,2023-05-16_09h39.57.322,oddball,2022.2.5,60.057931883489864,
10,,,,,0,0,0,2,5,0,5,0,5,0,5,0,,,,,,,,,,,,,,,,,661.6909088999964,662.3735442000034,662.3735442000034,662.9730528000073,0.6153788000083296,662.9730528000073,664.9880440999987,2.6305210000136867,None,1,increament,0.6,25,standard,None,100,,,,,,,m,19,241,fr,r,0,raw,2023-05-16_09h39.57.322,oddball,2022.2.5,60.057931883489864,
10,,,,,0,0,0,2,5,0,5,0,6,0,6,0,,,,,,,,,,,,,,,,,665.0049144000077,665.7706561000086,665.7706561000086,666.370259999996,0.6149241000093753,666.370259999996,668.384996599998,2.6295877000084147,None,1,increament,0.6,25,standard,None,100,,,,,,,m,19,241,fr,r,0,raw,2023-05-16_09h39.57.322,oddball,2022.2.5,60.057931883489864,
10,,,,,0,0,0,2,5,0,5,0,7,0,7,0,,,,,,,,,,,,,,,,,668.4016516999982,669.1179386000003,669.1179386000003,669.7174783000082,0.6149868000065908,669.7174783000082,671.7321803000086,2.6296666999987792,None,1,increament,0.6,25,standard,None,100,,,,,,,m,19,241,fr,r,0,raw,2023-05-16_09h39.57.322,oddball,2022.2.5,60.057931883489864,
10,,,,,0,0,0,2,5,0,5,0,8,0,8,0,,,,,,,,,,,,,,,,,671.7492197999964,672.4321903000091,672.4321903000091,673.0311531000043,0.6144212999934098,673.0311531000043,675.0464540999965,2.6297875000018394,None,1,increament,0.6,25,standard,None,100,,,,,,,m,19,241,fr,r,0,raw,2023-05-16_09h39.57.322,oddball,2022.2.5,60.057931883489864,
10,,,,,0,0,0,2,5,0,5,0,9,0,9,0,,,,,,,,,,,,,,,,,675.0632489999989,675.7627120999969,675.7627120999969,676.3620843999961,0.6151816999918083,676.3620843999961,678.3769012999983,2.6300954000034835,None,1,increament,0.6,25,standard,None,100,,,,,,,m,19,241,fr,r,0,raw,2023-05-16_09h39.57.322,oddball,2022.2.5,60.057931883489864,
10,,,,,0,0,0,2,5,0,5,0,10,0,10,0,,,,,,,,,,,,,,,,,678.3938964999979,679.0432865000039,679.0432865000039,679.6423979999963,0.6151877000083914,679.6423979999963,681.6575155000028,2.6302016000117874,None,1,increament,0.6,25,standard,None,100,,,,,,,m,19,241,fr,r,0,raw,2023-05-16_09h39.57.322,oddball,2022.2.5,60.057931883489864,
10,,,,,0,0,0,2,5,0,5,0,11,0,11,0,,,,,,,,,,,,,,,,,681.6742346999963,682.3571716000006,682.3571716000006,682.9563067999989,0.6147686000040267,682.9563067999989,684.9712262999965,2.6297202999994624,None,1,increament,0.6,25,standard,None,100,,,,,,,m,19,241,fr,r,0,raw,2023-05-16_09h39.57.322,oddball,2022.2.5,60.057931883489864,
10,,,,,0,0,0,2,5,0,5,0,12,0,12,0,,,,,,,,,,,,,,,,,684.9881118000048,685.5377966000087,685.5377966000087,686.1374248000066,0.6153504999965662,686.1374248000066,688.1521721000026,2.630055000001448,None,1,increament,0.6,25,standard,None,100,,,,,,,m,19,241,fr,r,0,raw,2023-05-16_09h39.57.322,oddball,2022.2.5,60.057931883489864,
10,,,,,0,0,0,2,5,0,5,0,13,0,13,0,,,,,,,,,,,,,,,,,688.1691046000051,688.8022203,688.8022203,689.7508511000051,0.9648791999934474,689.7675143000088,691.7662334000051,2.9802027999976417,j,1,increament,0.96,28,oddball,j,160,0.46873279999999795,,,,,,m,19,241,fr,r,0,raw,2023-05-16_09h39.57.322,oddball,2022.2.5,60.057931883489864,
10,,,,,0,0,0,2,5,0,5,0,14,0,14,0,,,,,,,,,,,,,,,,,691.7825894999987,692.665390299997,692.665390299997,693.2648069999996,0.6150361000036355,693.2648069999996,695.2796479999961,2.629882599998382,None,1,increament,0.6,25,standard,None,100,,,,,,,m,19,241,fr,r,0,raw,2023-05-16_09h39.57.322,oddball,2022.2.5,60.057931883489864,
10,,,,,0,0,0,2,5,0,5,0,15,0,15,0,,,,,,,,,,,,,,,,,695.2965140000015,695.9125936000055,695.9125936000055,696.5119280000072,0.614376400000765,696.5119280000072,698.5269595999998,2.629450499996892,None,1,increament,0.6,25,standard,None,100,,,,,,,m,19,241,fr,r,0,raw,2023-05-16_09h39.57.322,oddball,2022.2.5,60.057931883489864,
10,,,,,0,0,0,2,5,0,5,0,16,0,16,0,,,,,,,,,,,,,,,,,698.5435074999987,699.1934325000038,699.1934325000038,699.7924230000062,0.6143210000009276,699.7924230000062,701.8073134000006,2.6292265000083717,None,1,increament,0.6,25,standard,None,100,,,,,,,m,19,241,fr,r,0,raw,2023-05-16_09h39.57.322,oddball,2022.2.5,60.057931883489864,
10,,,,,0,0,0,2,5,0,5,0,17,0,17,0,,,,,,,,,,,,,,,,,701.8243456000055,702.6739770999993,702.6739770999993,703.2730245999992,0.6150687000044854,703.2730245999992,705.2880273000046,2.630175700003747,None,1,increament,0.6,25,standard,None,100,,,,,,,m,19,241,fr,r,0,raw,2023-05-16_09h39.57.322,oddball,2022.2.5,60.057931883489864,
10,,,,,0,0,0,2,5,0,5,0,18,0,18,0,,,,,,,,,,,,,,,,,705.3047108000028,705.9711501999991,705.9711501999991,706.5702754000085,0.6150158999953419,706.5702754000085,708.5856140999967,2.6303287999908207,None,1,increament,0.6,25,standard,None,100,,,,,,,m,19,241,fr,r,0,raw,2023-05-16_09h39.57.322,oddball,2022.2.5,60.057931883489864,
10,,,,,0,0,0,2,5,0,5,0,19,0,19,0,,,,,,,,,,,,,,,,,708.6020826000022,709.2017109000008,709.2017109000008,709.8011865000008,0.6150542000104906,709.8011865000008,711.8165813000087,2.630432000005385,None,1,increament,0.6,25,standard,None,100,,,,,,,m,19,241,fr,r,0,raw,2023-05-16_09h39.57.322,oddball,2022.2.5,60.057931883489864,
10,,,,,0,0,0,2,5,0,5,0,20,0,20,0,,,,,,,,,,,,,,,,,711.8327757000079,712.5985986000014,712.5985986000014,713.314878300007,0.7317728000052739,713.3317465,715.3145290999964,2.731541400004062,None,0,increament,0.72,26,oddball,j,120,,,,,,,m,19,241,fr,r,0,raw,2023-05-16_09h39.57.322,oddball,2022.2.5,60.057931883489864,
10,,,,,0,0,0,2,5,0,5,0,21,0,21,0,,,,,,,,,,,,,,,,,715.3304118000087,715.9127873999969,715.9127873999969,716.5121792999998,0.6151833000039915,716.5121792999998,718.5271001000074,2.629982700003893,None,1,increament,0.6,25,standard,None,100,,,,,,,m,19,241,fr,r,0,raw,2023-05-16_09h39.57.322,oddball,2022.2.5,60.057931883489864,
10,,,,,0,0,0,2,5,0,5,0,22,0,22,0,,,,,,,,,,,,,,,,,718.5439443000068,719.1934773999965,719.1934773999965,719.7930912000011,0.6149339999974472,719.7930912000011,721.8077609000029,2.6296031000092626,None,1,increament,0.6,25,standard,None,100,,,,,,,m,19,241,fr,r,0,raw,2023-05-16_09h39.57.322,oddball,2022.2.5,60.057931883489864,
10,,,,,0,0,0,2,5,0,5,0,23,0,23,0,,,,,,,,,,,,,,,,,721.8247042000003,722.4410914000036,722.4410914000036,723.0398276000051,0.6145511000067927,723.0398276000051,725.0554586000071,2.63016929999867,None,1,increament,0.6,25,standard,None,100,,,,,,,m,19,241,fr,r,0,raw,2023-05-16_09h39.57.322,oddball,2022.2.5,60.057931883489864,
10,,,,,0,0,0,2,5,0,5,0,24,0,24,0,,,,,,,,,,,,,,,,,725.071775000004,725.655097099996,725.655097099996,726.2541859000048,0.6151016999938292,726.2711692000012,728.269329200004,2.6302772000053665,None,1,increament,0.6,25,standard,None,100,,,,,,,m,19,241,fr,r,0,raw,2023-05-16_09h39.57.322,oddball,2022.2.5,60.057931883489864,
10,,,,,0,0,0,2,5,0,5,0,25,0,25,0,,,,,,,,,,,,,,,,,728.2861131999962,729.0017470000021,729.0017470000021,729.8348995999986,0.848287300002994,729.8513114000089,731.8496608999994,2.862952600000426,j,1,increament,0.84,27,oddball,j,140,0.49957879999419674,,,,,,m,19,241,fr,r,0,raw,2023-05-16_09h39.57.322,oddball,2022.2.5,60.057931883489864,
10,,,,,0,0,0,2,5,0,5,0,26,0,26,0,,,,,,,,,,,,,,,,,731.8665153000038,732.5827337000082,732.5827337000082,733.181806499997,0.6142496999964351,733.181806499997,735.1967030000087,2.6292292999860365,None,1,increament,0.6,25,standard,None,100,,,,,,,m,19,241,fr,r,0,raw,2023-05-16_09h39.57.322,oddball,2022.2.5,60.057931883489864,
10,,,,,0,0,0,2,5,0,5,0,27,0,27,0,,,,,,,,,,,,,,,,,735.2135727999994,735.7799209000077,735.7799209000077,736.379153300004,0.6144903000094928,736.379153300004,738.3940731000039,2.6293814000091515,None,1,increament,0.6,25,standard,None,100,,,,,,,m,19,241,fr,r,0,raw,2023-05-16_09h39.57.322,oddball,2022.2.5,60.057931883489864,
10,,,,,0,0,0,2,5,0,5,0,28,0,28,0,,,,,,,,,,,,,,,,,738.411111399997,739.1603969999996,739.1603969999996,739.7600911000045,0.6152488999941852,739.7600911000045,741.7743423000065,2.629480700008571,None,1,increament,0.6,25,standard,None,100,,,,,,,m,19,241,fr,r,0,raw,2023-05-16_09h39.57.322,oddball,2022.2.5,60.057931883489864,
10,,,,,0,0,0,2,5,0,5,0,29,0,29,0,,,,,,,,,,,,,,,,,741.7912711000099,742.3576611000026,742.3576611000026,742.9571735000063,0.6148834000050556,742.9571735000063,744.9719259999983,2.6295977999980096,None,1,increament,0.6,25,standard,None,100,,,,,,,m,19,241,fr,r,0,raw,2023-05-16_09h39.57.322,oddball,2022.2.5,60.057931883489864,
10,,,,,0,0,0,2,6,0,6,0,0,0,0,0,,,,,,,,,,,,,,,754.9908109000098,754.9908109000098,756.1629715000017,756.7793176999985,756.7793176999985,757.3788007999974,0.6149112999992212,757.3788007999974,759.3936718000041,2.629847100004554,None,1,decreament,0.6,21,standard,None,100,,744.9890497000015,0.001690799996140413,,,,m,19,241,fr,r,0,raw,2023-05-16_09h39.57.322,oddball,2022.2.5,60.057931883489864,
10,,,,,0,0,0,2,6,0,6,0,1,0,1,0,,,,,,,,,,,,,,,,,759.4106028000097,759.9603123999987,759.9603123999987,760.5597531000094,0.6155148999969242,760.5597531000094,762.5744517999992,2.6303178000089247,None,1,decreament,0.6,21,standard,None,100,,,,,,,m,19,241,fr,r,0,raw,2023-05-16_09h39.57.322,oddball,2022.2.5,60.057931883489864,
10,,,,,0,0,0,2,6,0,6,0,2,0,2,0,,,,,,,,,,,,,,,,,762.5912717000028,763.107527900007,763.107527900007,763.7066552000033,0.6143813000089722,763.7066552000033,765.7220475000067,2.629788300007931,None,1,decreament,0.6,21,standard,None,100,,,,,,,m,19,241,fr,r,0,raw,2023-05-16_09h39.57.322,oddball,2022.2.5,60.057931883489864,
10,,,,,0,0,0,2,6,0,6,0,3,0,3,0,,,,,,,,,,,,,,,,,765.7387924000068,766.3044709000096,766.3044709000096,766.904248699997,0.6146758999966551,766.904248699997,768.9190989000053,2.6296198000054574,None,1,decreament,0.6,21,standard,None,100,,,,,,,m,19,241,fr,r,0,raw,2023-05-16_09h39.57.322,oddball,2022.2.5,60.057931883489864,
10,,,,,0,0,0,2,6,0,6,0,4,0,4,0,,,,,,,,,,,,,,,,,768.9361478000064,769.6186106000096,769.6186106000096,770.2181336000067,0.6149123000068357,770.2181336000067,772.2330969000031,2.629984400002286,None,1,decreament,0.6,21,standard,None,100,,,,,,,m,19,241,fr,r,0,raw,2023-05-16_09h39.57.322,oddball,2022.2.5,60.057931883489864,
10,,,,,0,0,0,2,6,0,6,0,5,0,5,0,,,,,,,,,,,,,,,,,772.2497280000098,772.8992075999995,772.8992075999995,773.4990949000057,0.6152587000105996,773.4990949000057,775.513838800005,2.6299640000070212,None,1,decreament,0.6,21,standard,None,100,,,,,,,m,19,241,fr,r,0,raw,2023-05-16_09h39.57.322,oddball,2022.2.5,60.057931883489864,
10,,,,,0,0,0,2,6,0,6,0,6,0,6,0,,,,,,,,,,,,,,,,,775.5306249999994,776.1632219000021,776.1632219000021,776.7626649000013,0.6145232999988366,776.7626649000013,778.7777542999975,2.6296408999915,None,1,decreament,0.6,21,standard,None,100,,,,,,,m,19,241,fr,r,0,raw,2023-05-16_09h39.57.322,oddball,2022.2.5,60.057931883489864,
10,,,,,0,0,0,2,6,0,6,0,7,0,7,0,,,,,,,,,,,,,,,,,778.7942687000032,779.3442807000101,779.3442807000101,779.9435838000063,0.6151305999956094,779.9435838000063,781.9583931000088,2.6298441999970237,None,1,decreament,0.6,21,standard,None,100,,,,,,,m,19,241,fr,r,0,raw,2023-05-16_09h39.57.322,oddball,2022.2.5,60.057931883489864,
10,,,,,0,0,0,2,6,0,6,0,8,0,8,0,,,,,,,,,,,,,,,,,781.9756609000033,782.7414189999981,782.7414189999981,783.3405846000096,0.6149281999969389,783.3405846000096,785.3557100000035,2.630112700004247,None,1,decreament,0.6,21,standard,None,100,,,,,,,m,19,241,fr,r,0,raw,2023-05-16_09h39.57.322,oddball,2022.2.5,60.057931883489864,
10,,,,,0,0,0,2,6,0,6,0,9,0,9,0,,,,,,,,,,,,,,,,,785.3723659000098,786.1386985999998,786.1386985999998,786.7375500000053,0.614554700005101,786.7375500000053,788.752908800001,2.629879999993136,None,1,decreament,0.6,21,standard,None,100,,,,,,,m,19,241,fr,r,0,raw,2023-05-16_09h39.57.322,oddball,2022.2.5,60.057931883489864,
10,,,,,0,0,0,2,6,0,6,0,10,0,10,0,,,,,,,,,,,,,,,,,788.7698818000063,789.3528424999968,789.3528424999968,789.9518695000006,0.6147788999951445,789.9518695000006,791.9667434000003,2.6296923000045354,None,1,decreament,0.6,21,standard,None,100,,,,,,,m,19,241,fr,r,0,raw,2023-05-16_09h39.57.322,oddball,2022.2.5,60.057931883489864,
10,,,,,0,0,0,2,6,0,6,0,11,0,11,0,,,,,,,,,,,,,,,,,791.9837007000024,792.6330051999976,792.6330051999976,793.0994013000018,0.4820313000091119,793.1161536,795.1145983000024,2.4972657000034815,j,1,decreament,0.48,24,oddball,j,80,0.6217699999979232,,,,,,m,19,241,fr,r,0,raw,2023-05-16_09h39.57.322,oddball,2022.2.5,60.057931883489864,
10,,,,,0,0,0,2,6,0,6,0,12,0,12,0,,,,,,,,,,,,,,,,,795.130894300004,795.7971657000016,795.7971657000016,796.3967782999971,0.6147073000029195,796.3967782999971,798.4118572000007,2.6297688000049675,None,1,decreament,0.6,21,standard,None,100,,,,,,,m,19,241,fr,r,0,raw,2023-05-16_09h39.57.322,oddball,2022.2.5,60.057931883489864,
10,,,,,0,0,0,2,6,0,6,0,13,0,13,0,,,,,,,,,,,,,,,,,798.4286664000101,799.3611234999989,799.3611234999989,799.9606344000058,0.6153122999967309,799.9606344000058,801.9750937000063,2.629739999989397,None,1,decreament,0.6,21,standard,None,100,,,,,,,m,19,241,fr,r,0,raw,2023-05-16_09h39.57.322,oddball,2022.2.5,60.057931883489864,
10,,,,,0,0,0,2,6,0,6,0,14,0,14,0,,,,,,,,,,,,,,,,,801.9920167000091,802.67444290001,802.67444290001,803.2738822000101,0.6144959999946877,803.2738822000101,805.2724127999973,2.629651899987948,None,1,decreament,0.6,21,standard,None,100,,,,,,,m,19,241,fr,r,0,raw,2023-05-16_09h39.57.322,oddball,2022.2.5,60.057931883489864,
10,,,,,0,0,0,2,6,0,6,0,15,0,15,0,,,,,,,,,,,,,,,,,805.306238899997,805.9220939000079,805.9220939000079,806.2718690000038,0.36525990000518505,806.2884560000093,808.2868536000024,2.380240100013907,j,1,decreament,0.36,23,oddball,j,60,0.5150677000056021,,,,,,m,19,241,fr,r,0,raw,2023-05-16_09h39.57.322,oddball,2022.2.5,60.057931883489864,
10,,,,,0,0,0,2,6,0,6,0,16,0,16,0,,,,,,,,,,,,,,,,,808.3037900000054,808.886388400002,808.886388400002,809.4859352000058,0.6152213000023039,809.4859352000058,811.5009684999968,2.6300995999918086,None,1,decreament,0.6,21,standard,None,100,,,,,,,m,19,241,fr,r,0,raw,2023-05-16_09h39.57.322,oddball,2022.2.5,60.057931883489864,
10,,,,,0,0,0,2,6,0,6,0,17,0,17,0,,,,,,,,,,,,,,,,,811.517391100002,812.116732399998,812.116732399998,812.7167325000046,0.6150073000026168,812.7167325000046,814.7316172999999,2.6298271999985445,None,1,decreament,0.6,21,standard,None,100,,,,,,,m,19,241,fr,r,0,raw,2023-05-16_09h39.57.322,oddball,2022.2.5,60.057931883489864,
10,,,,,0,0,0,2,6,0,6,0,18,0,18,0,,,,,,,,,,,,,,,,,814.7486339000025,815.3647706000047,815.3647706000047,815.9638212999998,0.6148842999973567,815.9638212999998,817.9791329,2.630253499999526,None,1,decreament,0.6,21,standard,None,100,,,,,,,m,19,241,fr,r,0,raw,2023-05-16_09h39.57.322,oddball,2022.2.5,60.057931883489864,
10,,,,,0,0,0,2,6,0,6,0,19,0,19,0,,,,,,,,,,,,,,,,,817.9957480000012,818.5117151000013,818.5117151000013,819.1115019999997,0.6154420999955619,819.1115019999997,821.1262171999988,2.63025970000308,None,1,decreament,0.6,21,standard,None,100,,,,,,,m,19,241,fr,r,0,raw,2023-05-16_09h39.57.322,oddball,2022.2.5,60.057931883489864,
10,,,,,0,0,0,2,6,0,6,0,20,0,20,0,,,,,,,,,,,,,,,,,821.1430639000027,821.7589601000072,821.7589601000072,822.358504200005,0.615286100000958,822.358504200005,824.3736784000066,2.6303141999960644,None,1,decreament,0.6,21,standard,None,100,,,,,,,m,19,241,fr,r,0,raw,2023-05-16_09h39.57.322,oddball,2022.2.5,60.057931883489864,
10,,,,,0,0,0,2,6,0,6,0,21,0,21,0,,,,,,,,,,,,,,,,,824.3903433000087,825.1064703000011,825.1064703000011,825.7061939999985,0.6150652000069385,825.7061939999985,827.7213945999974,2.630170200005523,None,1,decreament,0.6,21,standard,None,100,,,,,,,m,19,241,fr,r,0,raw,2023-05-16_09h39.57.322,oddball,2022.2.5,60.057931883489864,
10,,,,,0,0,0,2,6,0,6,0,22,0,22,0,,,,,,,,,,,,,,,,,827.737567300006,828.4370650000055,828.4370650000055,829.0364155999996,0.6149239000078524,829.0364155999996,831.0512336000102,2.6297001000057207,None,1,decreament,0.6,21,standard,None,100,,,,,,,m,19,241,fr,r,0,raw,2023-05-16_09h39.57.322,oddball,2022.2.5,60.057931883489864,
10,,,,,0,0,0,2,6,0,6,0,23,0,23,0,,,,,,,,,,,,,,,,,831.068574600009,831.7008679999999,831.7008679999999,832.3005526000052,0.6148184000048786,832.3005526000052,834.3152826000005,2.62953840001137,None,1,decreament,0.6,21,standard,None,100,,,,,,,m,19,241,fr,r,0,raw,2023-05-16_09h39.57.322,oddball,2022.2.5,60.057931883489864,
10,,,,,0,0,0,2,6,0,6,0,24,0,24,0,,,,,,,,,,,,,,,,,834.3325452999998,835.0316691000044,835.0316691000044,835.6312214000063,0.6153651999920839,835.6312214000063,837.6458878999983,2.6299741999973776,None,1,decreament,0.6,21,standard,None,100,,,,,,,m,19,241,fr,r,0,raw,2023-05-16_09h39.57.322,oddball,2022.2.5,60.057931883489864,
10,,,,,0,0,0,2,6,0,6,0,25,0,25,0,,,,,,,,,,,,,,,,,837.6626752000011,838.4451686999964,838.4451686999964,839.0447951000097,0.6142428999883123,839.0447951000097,841.0600271000003,2.629480899995542,None,1,decreament,0.6,21,standard,None,100,,,,,,,m,19,241,fr,r,0,raw,2023-05-16_09h39.57.322,oddball,2022.2.5,60.057931883489864,
10,,,,,0,0,0,2,6,0,6,0,26,0,26,0,,,,,,,,,,,,,,,,,841.0766250000015,841.6762818999996,841.6762818999996,842.2756078000093,0.6152198999916436,842.2756078000093,844.290629199997,2.6301868000009563,None,1,decreament,0.6,21,standard,None,100,,,,,,,m,19,241,fr,r,0,raw,2023-05-16_09h39.57.322,oddball,2022.2.5,60.057931883489864,
10,,,,,0,0,0,2,6,0,6,0,27,0,27,0,,,,,,,,,,,,,,,,,844.3073581000062,844.8900435999967,844.8900435999967,845.4898423999985,0.6153138999943621,845.4898423999985,847.5051263000059,2.6305241999943973,None,1,decreament,0.6,21,standard,None,100,,,,,,,m,19,241,fr,r,0,raw,2023-05-16_09h39.57.322,oddball,2022.2.5,60.057931883489864,
10,,,,,0,0,0,2,6,0,6,0,28,0,28,0,,,,,,,,,,,,,,,,,847.5215269000037,848.1207083000045,848.1207083000045,848.7205984000029,0.6154734000010649,848.7205984000029,850.7351985999994,2.6301156999979867,None,1,decreament,0.6,21,standard,None,100,,,,,,,m,19,241,fr,r,0,raw,2023-05-16_09h39.57.322,oddball,2022.2.5,60.057931883489864,
10,,,,,0,0,0,2,6,0,6,0,29,0,29,0,,,,,,,,,,,,,,,,,850.7519099000056,851.3845921000029,851.3845921000029,851.618105600006,0.2490040999982739,851.6347807999991,853.6328237999987,2.26374229999783,j,1,decreament,0.24,22,oddball,j,40,0.6552790999994613,,,,,,m,19,241,fr,r,0,raw,2023-05-16_09h39.57.322,oddball,2022.2.5,60.057931883489864,
10,,,,,0,0,0,2,7,0,7,0,0,0,0,0,,,,,,,,,,,,,,,860.1314955999987,860.1314955999987,861.426567100003,862.3589647000044,862.3589647000044,862.9584193000046,0.6151111999934074,862.9584193000046,864.9733923000022,2.6300093999889214,None,1,increament,0.6,25,standard,None,100,,853.6495086000068,0.0018902000010712072,,,,m,19,241,fr,r,0,raw,2023-05-16_09h39.57.322,oddball,2022.2.5,60.057931883489864,
10,,,,,0,0,0,2,7,0,7,0,1,0,1,0,,,,,,,,,,,,,,,,,864.9907606000052,865.5729721000098,865.5729721000098,866.1726176000084,0.6149105999938911,866.1726176000084,868.1875644999964,2.6296973999997135,None,1,increament,0.6,25,standard,None,100,,,,,,,m,19,241,fr,r,0,raw,2023-05-16_09h39.57.322,oddball,2022.2.5,60.057931883489864,
10,,,,,0,0,0,2,7,0,7,0,2,0,2,0,,,,,,,,,,,,,,,,,868.2043025000021,868.8037689000048,868.8037689000048,869.4032461000024,0.6149564999941504,869.4032461000024,871.4184924000001,2.630318099996657,None,1,increament,0.6,25,standard,None,100,,,,,,,m,19,241,fr,r,0,raw,2023-05-16_09h39.57.322,oddball,2022.2.5,60.057931883489864,
10,,,,,0,0,0,2,7,0,7,0,3,0,3,0,,,,,,,,,,,,,,,,,871.4350590000104,872.1012178000092,872.1012178000092,872.7006381999963,0.6152558000030695,872.7006381999963,874.715346500001,2.62986240000464,None,1,increament,0.6,25,standard,None,100,,,,,,,m,19,241,fr,r,0,raw,2023-05-16_09h39.57.322,oddball,2022.2.5,60.057931883489864,
10,,,,,0,0,0,2,7,0,7,0,4,0,4,0,,,,,,,,,,,,,,,,,874.7326926000096,875.2982874000008,875.2982874000008,875.8811098000006,0.5991172999929404,875.8981004000088,877.8965462000051,2.6146492999978364,None,1,increament,0.6,25,standard,None,100,,,,,,,m,19,241,fr,r,0,raw,2023-05-16_09h39.57.322,oddball,2022.2.5,60.057931883489864,
10,,,,,0,0,0,2,7,0,7,0,5,0,5,0,,,,,,,,,,,,,,,,,877.9126515000098,878.5458117000089,878.5458117000089,879.1452713000035,0.6155123000062304,879.1452713000035,881.1602416000096,2.6304758000042057,None,1,increament,0.6,25,standard,None,100,,,,,,,m,19,241,fr,r,0,raw,2023-05-16_09h39.57.322,oddball,2022.2.5,60.057931883489864,
10,,,,,0,0,0,2,7,0,7,0,6,0,6,0,,,,,,,,,,,,,,,,,881.176976200004,881.8428391000052,881.8428391000052,882.4257183000009,0.5991890999866882,882.4424435999972,884.4408173999982,2.614279399989755,None,1,increament,0.6,25,standard,None,100,,,,,,,m,19,241,fr,r,0,raw,2023-05-16_09h39.57.322,oddball,2022.2.5,60.057931883489864,
10,,,,,0,0,0,2,7,0,7,0,7,0,7,0,,,,,,,,,,,,,,,,,884.4573168000061,885.106944500003,885.106944500003,885.689890499998,0.599002200004179,885.7067765999964,887.7048569000035,2.6140410999942105,None,1,increament,0.6,25,standard,None,100,,,,,,,m,19,241,fr,r,0,raw,2023-05-16_09h39.57.322,oddball,2022.2.5,60.057931883489864,
10,,,,,0,0,0,2,7,0,7,0,8,0,8,0,,,,,,,,,,,,,,,,,887.7216711000074,888.404615899999,888.404615899999,889.003887800005,0.6152483000041684,889.003887800005,891.0188981000101,2.6301578000129666,None,1,increament,0.6,25,standard,None,100,,,,,,,m,19,241,fr,r,0,raw,2023-05-16_09h39.57.322,oddball,2022.2.5,60.057931883489864,
10,,,,,0,0,0,2,7,0,7,0,9,0,9,0,,,,,,,,,,,,,,,,,891.035793300005,891.6015512000013,891.6015512000013,892.2011774999992,0.6149033999972744,892.2011774999992,894.216207400008,2.6299053999973694,None,1,increament,0.6,25,standard,None,100,,,,,,,m,19,241,fr,r,0,raw,2023-05-16_09h39.57.322,oddball,2022.2.5,60.057931883489864,
10,,,,,0,0,0,2,7,0,7,0,10,0,10,0,,,,,,,,,,,,,,,,,894.2335228000011,894.9655132000044,894.9655132000044,895.5652878999972,0.61508399999002,895.5652878999972,897.5802952000085,2.63013819999469,None,1,increament,0.6,25,standard,None,100,,,,,,,m,19,241,fr,r,0,raw,2023-05-16_09h39.57.322,oddball,2022.2.5,60.057931883489864,
10,,,,,0,0,0,2,7,0,7,0,11,0,11,0,,,,,,,,,,,,,,,,,897.5969914000016,898.1798164000065,898.1798164000065,898.7793131000071,0.6150441000063438,898.7793131000071,900.7940817000053,2.6298448000015924,None,1,increament,0.6,25,standard,None,100,,,,,,,m,19,241,fr,r,0,raw,2023-05-16_09h39.57.322,oddball,2022.2.5,60.057931883489864,
10,,,,,0,0,0,2,7,0,7,0,12,0,12,0,,,,,,,,,,,,,,,,,900.8107102000067,901.3935567000008,901.3935567000008,902.1100642000092,0.732145899994066,902.126654599997,904.1250513999985,2.7471572999929776,None,0,increament,0.72,26,oddball,j,120,,,,,,,m,19,241,fr,r,0,raw,2023-05-16_09h39.57.322,oddball,2022.2.5,60.057931883489864,
10,,,,,0,0,0,2,7,0,7,0,13,0,13,0,,,,,,,,,,,,,,,,,904.1415237000037,904.7407738000038,904.7407738000038,905.3405521000095,0.6154974999953993,905.3405521000095,907.3553760000068,2.6302416999969864,None,1,increament,0.6,25,standard,None,100,,,,,,,m,19,241,fr,r,0,raw,2023-05-16_09h39.57.322,oddball,2022.2.5,60.057931883489864,
10,,,,,0,0,0,2,7,0,7,0,14,0,14,0,,,,,,,,,,,,,,,,,907.3724466999993,907.9880628000101,907.9880628000101,908.5873500000016,0.6145208000089042,908.5873500000016,910.6026826000016,2.6298919999971986,None,1,increament,0.6,25,standard,None,100,,,,,,,m,19,241,fr,r,0,raw,2023-05-16_09h39.57.322,oddball,2022.2.5,60.057931883489864,
10,,,,,0,0,0,2,7,0,7,0,15,0,15,0,,,,,,,,,,,,,,,,,910.619383600002,911.1189332000067,911.1189332000067,911.7187306999986,0.615346699996735,911.7187306999986,913.7333396000031,2.6299880999868037,None,1,increament,0.6,25,standard,None,100,,,,,,,m,19,241,fr,r,0,raw,2023-05-16_09h39.57.322,oddball,2022.2.5,60.057931883489864,
10,,,,,0,0,0,2,7,0,7,0,16,0,16,0,,,,,,,,,,,,,,,,,913.7505410000012,914.4165034000034,914.4165034000034,915.0158231000096,0.615030899993144,915.0158231000096,917.0305882999965,2.629807699995581,None,1,increament,0.6,25,standard,None,100,,,,,,,m,19,241,fr,r,0,raw,2023-05-16_09h39.57.322,oddball,2022.2.5,60.057931883489864,
10,,,,,0,0,0,2,7,0,7,0,17,0,17,0,,,,,,,,,,,,,,,,,917.0473607000022,917.746988400002,917.746988400002,918.3461537999974,0.6151937999966322,918.3461537999974,920.3612720000092,2.6303031999996165,None,1,increament,0.6,25,standard,None,100,,,,,,,m,19,241,fr,r,0,raw,2023-05-16_09h39.57.322,oddball,2022.2.5,60.057931883489864,
10,,,,,0,0,0,2,7,0,7,0,18,0,18,0,,,,,,,,,,,,,,,,,920.3781811000081,920.9942701999971,920.9942701999971,921.5941628,0.6155693999899086,921.5941628,923.6088588999992,2.630247799999779,None,1,increament,0.6,25,standard,None,100,,,,,,,m,19,241,fr,r,0,raw,2023-05-16_09h39.57.322,oddball,2022.2.5,60.057931883489864,
10,,,,,0,0,0,2,7,0,7,0,19,0,19,0,,,,,,,,,,,,,,,,,923.625557300009,924.1582897000044,924.1582897000044,924.7578454000031,0.6151652999978978,924.7578454000031,926.7726953000092,2.6300033000006806,None,1,increament,0.6,25,standard,None,100,,,,,,,m,19,241,fr,r,0,raw,2023-05-16_09h39.57.322,oddball,2022.2.5,60.057931883489864,
10,,,,,0,0,0,2,7,0,7,0,20,0,20,0,,,,,,,,,,,,,,,,,926.7893929999991,927.3722976999998,927.3722976999998,927.9717853000038,0.6146928000089247,927.9717853000038,929.9867836000049,2.6297618000098737,None,1,increament,0.6,25,standard,None,100,,,,,,,m,19,241,fr,r,0,raw,2023-05-16_09h39.57.322,oddball,2022.2.5,60.057931883489864,
10,,,,,0,0,0,2,7,0,7,0,21,0,21,0,,,,,,,,,,,,,,,,,930.0038902000088,930.6361080000061,930.6361080000061,931.2192548000021,0.5991519000090193,931.235605000009,933.2340991000092,2.614047200011555,None,1,increament,0.6,25,standard,None,100,,,,,,,m,19,241,fr,r,0,raw,2023-05-16_09h39.57.322,oddball,2022.2.5,60.057931883489864,
10,,,,,0,0,0,2,7,0,7,0,22,0,22,0,,,,,,,,,,,,,,,,,933.2507823000051,933.8336954999977,933.8336954999977,934.4330065999966,0.6152398999984143,934.4330065999966,936.4480355999985,2.630272000009427,None,1,increament,0.6,25,standard,None,100,,,,,,,m,19,241,fr,r,0,raw,2023-05-16_09h39.57.322,oddball,2022.2.5,60.057931883489864,
10,,,,,0,0,0,2,7,0,7,0,23,0,23,0,,,,,,,,,,,,,,,,,936.4648031999968,937.0809758999967,937.0809758999967,937.6636492999969,0.5994600999983959,937.6804696000036,939.6789170999982,2.614711399990483,None,1,increament,0.6,25,standard,None,100,,,,,,,m,19,241,fr,r,0,raw,2023-05-16_09h39.57.322,oddball,2022.2.5,60.057931883489864,
10,,,,,0,0,0,2,7,0,7,0,24,0,24,0,,,,,,,,,,,,,,,,,939.695277699997,940.3282608000009,940.3282608000009,940.911835699997,0.5999214000039501,940.9289584000071,942.9261049000052,2.6142073000082746,None,1,increament,0.6,25,standard,None,100,,,,,,,m,19,241,fr,r,0,raw,2023-05-16_09h39.57.322,oddball,2022.2.5,60.057931883489864,
10,,,,,0,0,0,2,7,0,7,0,25,0,25,0,,,,,,,,,,,,,,,,,942.9427310000028,943.5923131000018,943.5923131000018,944.424827099996,0.8483946000051219,944.4420975000103,946.4399126000062,2.8634317999967607,j,1,increament,0.84,27,oddball,j,140,0.6650778000039281,,,,,,m,19,241,fr,r,0,raw,2023-05-16_09h39.57.322,oddball,2022.2.5,60.057931883489864,
10,,,,,0,0,0,2,7,0,7,0,26,0,26,0,,,,,,,,,,,,,,,,,946.4566775999992,947.0228311999963,947.0228311999963,947.6223553000018,0.5991792999993777,947.6223553000018,949.6374205000029,2.6138661000004504,None,1,increament,0.6,25,standard,None,100,,,,,,,m,19,241,fr,r,0,raw,2023-05-16_09h39.57.322,oddball,2022.2.5,60.057931883489864,
10,,,,,0,0,0,2,7,0,7,0,27,0,27,0,,,,,,,,,,,,,,,,,949.6374205000029,950.337088100001,950.337088100001,950.9364364000066,0.599202299999888,950.9364364000066,952.9510859000002,2.613845500003663,None,1,increament,0.6,25,standard,None,100,,,,,,,m,19,241,fr,r,0,raw,2023-05-16_09h39.57.322,oddball,2022.2.5,60.057931883489864,
10,,,,,0,0,0,2,7,0,7,0,28,0,28,0,,,,,,,,,,,,,,,,,952.9510859000002,953.6504133999988,953.6504133999988,954.2499836000061,0.599163499995484,954.2499836000061,956.2651424000069,2.613947299993015,None,1,increament,0.6,25,standard,None,100,,,,,,,m,19,241,fr,r,0,raw,2023-05-16_09h39.57.322,oddball,2022.2.5,60.057931883489864,
10,,,,,0,0,0,2,7,0,7,0,29,0,29,0,,,,,,,,,,,,,,,,,956.2651424000069,956.9644305999973,956.9644305999973,957.9138518999971,0.9654548000107752,957.9304076999979,959.92878870001,2.9803842999972403,j,1,increament,0.96,28,oddball,j,160,0.37385279999580234,,,,,,m,19,241,fr,r,0,raw,2023-05-16_09h39.57.322,oddball,2022.2.5,60.057931883489864,
10,,,,,0,0,0,2,8,0,8,0,0,0,0,0,,,,,,,,,,,,,,,972.4090346000012,972.4090346000012,974.4956097000104,975.2162338000053,975.2162338000053,975.8157368999964,0.6150874000013573,975.8157368999964,977.8309314000071,2.6302189999987604,None,1,decreament,0.6,21,standard,None,100,,959.9454175999999,0.0005333000008249655,,,,m,19,241,fr,r,0,raw,2023-05-16_09h39.57.322,oddball,2022.2.5,60.057931883489864,
10,,,,,0,0,0,2,8,0,8,0,1,0,1,0,,,,,,,,,,,,,,,,,977.8471938000002,978.3973327999993,978.3973327999993,978.9963049000071,0.6148076000099536,978.9963049000071,981.0115912000037,2.6299510000098962,None,1,decreament,0.6,21,standard,None,100,,,,,,,m,19,241,fr,r,0,raw,2023-05-16_09h39.57.322,oddball,2022.2.5,60.057931883489864,
10,,,,,0,0,0,2,8,0,8,0,2,0,2,0,,,,,,,,,,,,,,,,,981.0282415999973,981.6608968000073,981.6608968000073,982.2605944000097,0.6153352999972412,982.2605944000097,984.2756096000085,2.630284600003506,None,1,decreament,0.6,21,standard,None,100,,,,,,,m,19,241,fr,r,0,raw,2023-05-16_09h39.57.322,oddball,2022.2.5,60.057931883489864,
10,,,,,0,0,0,2,8,0,8,0,3,0,3,0,,,,,,,,,,,,,,,,,984.2925114999962,985.0751006000064,985.0751006000064,985.674465899996,0.6152986000088276,985.674465899996,987.6892824999959,2.6300084000104107,None,1,decreament,0.6,21,standard,None,100,,,,,,,m,19,241,fr,r,0,raw,2023-05-16_09h39.57.322,oddball,2022.2.5,60.057931883489864,
10,,,,,0,0,0,2,8,0,8,0,4,0,4,0,,,,,,,,,,,,,,,,,987.7060178000102,988.4221735000028,988.4221735000028,989.0216787999962,0.6150796000001719,989.0216787999962,991.0366409999988,2.6300193999923067,None,1,decreament,0.6,21,standard,None,100,,,,,,,m,19,241,fr,r,0,raw,2023-05-16_09h39.57.322,oddball,2022.2.5,60.057931883489864,
10,,,,,0,0,0,2,8,0,8,0,5,0,5,0,,,,,,,,,,,,,,,,,991.053966499996,991.7866108000017,991.7866108000017,992.3856095000083,0.6149118000030285,992.4021665000037,994.4007322999969,2.630242300001555,None,1,decreament,0.6,21,standard,None,100,,,,,,,m,19,241,fr,r,0,raw,2023-05-16_09h39.57.322,oddball,2022.2.5,60.057931883489864,
10,,,,,0,0,0,2,8,0,8,0,6,0,6,0,,,,,,,,,,,,,,,,,994.417658300008,995.0670078999974,995.0670078999974,995.5327195999998,0.48141799999575596,995.5496844000008,997.5481322999985,2.496899999998277,None,0,decreament,0.48,24,oddball,j,80,,,,,,,m,19,241,fr,r,0,raw,2023-05-16_09h39.57.322,oddball,2022.2.5,60.057931883489864,
10,,,,,0,0,0,2,8,0,8,0,7,0,7,0,,,,,,,,,,,,,,,,,997.5649474000093,998.1143951999984,998.1143951999984,998.7143534000061,0.615336800008663,998.7143534000061,1000.7289489000104,2.630029599997215,None,1,decreament,0.6,21,standard,None,100,,,,,,,m,19,241,fr,r,0,raw,2023-05-16_09h39.57.322,oddball,2022.2.5,60.057931883489864,
10,,,,,0,0,0,2,8,0,8,0,8,0,8,0,,,,,,,,,,,,,,,,,1000.7453860000096,1001.2947389000037,1001.2947389000037,1001.8943789000041,0.614598100000876,1001.8943789000041,1003.90959380001,2.6298829000006663,None,1,decreament,0.6,21,standard,None,100,,,,,,,m,19,241,fr,r,0,raw,2023-05-16_09h39.57.322,oddball,2022.2.5,60.057931883489864,
10,,,,,0,0,0,2,8,0,8,0,9,0,9,0,,,,,,,,,,,,,,,,,1003.9259050999972,1004.5422871000046,1004.5422871000046,1005.1415160000033,0.6144073000032222,1005.1415160000033,1007.1572512999992,2.6301106000028085,None,1,decreament,0.6,21,standard,None,100,,,,,,,m,19,241,fr,r,0,raw,2023-05-16_09h39.57.322,oddball,2022.2.5,60.057931883489864,
10,,,,,0,0,0,2,8,0,8,0,10,0,10,0,,,,,,,,,,,,,,,,,1007.1733533000079,1007.8395894999994,1007.8395894999994,1008.4391709000047,0.6146747999882791,1008.4391709000047,1010.4540755000053,2.6294690999930026,None,1,decreament,0.6,21,standard,None,100,,,,,,,m,19,241,fr,r,0,raw,2023-05-16_09h39.57.322,oddball,2022.2.5,60.057931883489864,
10,,,,,0,0,0,2,8,0,8,0,11,0,11,0,,,,,,,,,,,,,,,,,1010.4707359000022,1011.0701277000044,1011.0701277000044,1011.6695306000038,0.6152055999991717,1011.6695306000038,1013.6849294999993,2.630743400004576,None,1,decreament,0.6,21,standard,None,100,,,,,,,m,19,241,fr,r,0,raw,2023-05-16_09h39.57.322,oddball,2022.2.5,60.057931883489864,
10,,,,,0,0,0,2,8,0,8,0,12,0,12,0,,,,,,,,,,,,,,,,,1013.7015962000005,1014.2844779000006,1014.2844779000006,1014.883683100008,0.6154638000007253,1014.883683100008,1016.8988130000071,2.6306310999934794,None,1,decreament,0.6,21,standard,None,100,,,,,,,m,19,241,fr,r,0,raw,2023-05-16_09h39.57.322,oddball,2022.2.5,60.057931883489864,
10,,,,,0,0,0,2,8,0,8,0,13,0,13,0,,,,,,,,,,,,,,,,,1016.915634200006,1017.4484251999966,1017.4484251999966,1017.7986141000001,0.3657798000058392,1017.8149280000071,1019.8134153999999,2.38049989999854,j,1,decreament,0.36,23,oddball,j,60,0.7006194999994477,,,,,,m,19,241,fr,r,0,raw,2023-05-16_09h39.57.322,oddball,2022.2.5,60.057931883489864,
10,,,,,0,0,0,2,8,0,8,0,14,0,14,0,,,,,,,,,,,,,,,,,1019.8298093000049,1020.4962276000006,1020.4962276000006,1021.0953246999998,0.6151362999953562,1021.0953246999998,1023.1102070000052,2.63001730000542,None,1,decreament,0.6,21,standard,None,100,,,,,,,m,19,241,fr,r,0,raw,2023-05-16_09h39.57.322,oddball,2022.2.5,60.057931883489864,
10,,,,,0,0,0,2,8,0,8,0,15,0,15,0,,,,,,,,,,,,,,,,,1023.1269942000072,1023.7931887000013,1023.7931887000013,1024.3927600000025,0.6149608999985503,1024.3927600000025,1026.4078043000045,2.613705099996878,None,1,decreament,0.6,21,standard,None,100,,,,,,,m,19,241,fr,r,0,raw,2023-05-16_09h39.57.322,oddball,2022.2.5,60.057931883489864,
10,,,,,0,0,0,2,8,0,8,0,16,0,16,0,,,,,,,,,,,,,,,,,1026.4078043000045,1027.073662099996,1027.073662099996,1027.6731959000026,0.6149125999945682,1027.6731959000026,1029.6880845999985,2.6297748999932082,None,1,decreament,0.6,21,standard,None,100,,,,,,,m,19,241,fr,r,0,raw,2023-05-16_09h39.57.322,oddball,2022.2.5,60.057931883489864,
10,,,,,0,0,0,2,8,0,8,0,17,0,17,0,,,,,,,,,,,,,,,,,1029.705189100001,1030.2547206000017,1030.2547206000017,1030.8539977000037,0.6150129000016022,1030.8539977000037,1032.8690956000064,2.6301470000034897,None,1,decreament,0.6,21,standard,None,100,,,,,,,m,19,241,fr,r,0,raw,2023-05-16_09h39.57.322,oddball,2022.2.5,60.057931883489864,
10,,,,,0,0,0,2,8,0,8,0,18,0,18,0,,,,,,,,,,,,,,,,,1032.8856256,1033.4519983000064,1033.4519983000064,1034.0514731000003,0.6149976999877254,1034.0514731000003,1036.0663201999996,2.629849099990679,None,1,decreament,0.6,21,standard,None,100,,,,,,,m,19,241,fr,r,0,raw,2023-05-16_09h39.57.322,oddball,2022.2.5,60.057931883489864,
10,,,,,0,0,0,2,8,0,8,0,19,0,19,0,,,,,,,,,,,,,,,,,1036.0832790999993,1036.7991836,1036.7991836,1037.398631300006,0.6150647000031313,1037.398631300006,1039.4138060999976,2.630185900008655,None,1,decreament,0.6,21,standard,None,100,,,,,,,m,19,241,fr,r,0,raw,2023-05-16_09h39.57.322,oddball,2022.2.5,60.057931883489864,
10,,,,,0,0,0,2,8,0,8,0,20,0,20,0,,,,,,,,,,,,,,,,,1039.4304704000097,1040.046387800001,1040.046387800001,1040.645831700007,0.614881499990588,1040.645831700007,1042.660823600003,2.6298368999996455,None,1,decreament,0.6,21,standard,None,100,,,,,,,m,19,241,fr,r,0,raw,2023-05-16_09h39.57.322,oddball,2022.2.5,60.057931883489864,
10,,,,,0,0,0,2,8,0,8,0,21,0,21,0,,,,,,,,,,,,,,,,,1042.6777048000076,1043.4767201000068,1043.4767201000068,1044.0759500999993,0.6145211999973981,1044.0759500999993,1046.0912873000052,2.629991699999664,None,1,decreament,0.6,21,standard,None,100,,,,,,,m,19,241,fr,r,0,raw,2023-05-16_09h39.57.322,oddball,2022.2.5,60.057931883489864,
10,,,,,0,0,0,2,8,0,8,0,22,0,22,0,,,,,,,,,,,,,,,,,1046.1083013000025,1046.8574028000003,1046.8574028000003,1047.4570629000082,0.6154079999978421,1047.4570629000082,1049.4718566000083,2.6301900999969803,None,1,decreament,0.6,21,standard,None,100,,,,,,,m,19,241,fr,r,0,raw,2023-05-16_09h39.57.322,oddball,2022.2.5,60.057931883489864,
10,,,,,0,0,0,2,8,0,8,0,23,0,23,0,,,,,,,,,,,,,,,,,1049.4885118000093,1050.2048551000044,1050.2048551000044,1050.804252300004,0.615094599997974,1050.804252300004,1052.8196055000008,2.6303910999995423,None,1,decreament,0.6,21,standard,None,100,,,,,,,m,19,241,fr,r,0,raw,2023-05-16_09h39.57.322,oddball,2022.2.5,60.057931883489864,
10,,,,,0,0,0,2,8,0,8,0,24,0,24,0,,,,,,,,,,,,,,,,,1052.8361628999992,1053.5853021000075,1053.5853021000075,1054.185001500009,0.6154242000047816,1054.185001500009,1056.2002199999988,2.6307431000022916,None,1,decreament,0.6,21,standard,None,100,,,,,,,m,19,241,fr,r,0,raw,2023-05-16_09h39.57.322,oddball,2022.2.5,60.057931883489864,
10,,,,,0,0,0,2,8,0,8,0,25,0,25,0,,,,,,,,,,,,,,,,,1056.2165069000039,1057.0326561999973,1057.0326561999973,1057.6319041000097,0.6151105000026291,1057.6319041000097,1059.6469339000032,2.6300841000047512,None,1,decreament,0.6,21,standard,None,100,,,,,,,m,19,241,fr,r,0,raw,2023-05-16_09h39.57.322,oddball,2022.2.5,60.057931883489864,
10,,,,,0,0,0,2,8,0,8,0,26,0,26,0,,,,,,,,,,,,,,,,,1059.6637861000054,1060.26315530001,1060.26315530001,1060.496143299999,0.24859920000017155,1060.512858800008,1062.5112764000078,2.2637293999869144,j,1,decreament,0.24,22,oddball,j,40,0.8065981999970973,,,,,,m,19,241,fr,r,0,raw,2023-05-16_09h39.57.322,oddball,2022.2.5,60.057931883489864,
10,,,,,0,0,0,2,8,0,8,0,27,0,27,0,,,,,,,,,,,,,,,,,1062.5282450000086,1063.1608354000055,1063.1608354000055,1063.7603395000042,0.6149392999941483,1063.7603395000042,1065.7755247000023,2.630114200001117,None,1,decreament,0.6,21,standard,None,100,,,,,,,m,19,241,fr,r,0,raw,2023-05-16_09h39.57.322,oddball,2022.2.5,60.057931883489864,
10,,,,,0,0,0,2,8,0,8,0,28,0,28,0,,,,,,,,,,,,,,,,,1065.7920356000104,1066.3912086000055,1066.3912086000055,1066.9909636000084,0.6150785000063479,1066.9909636000084,1069.0059809000086,2.63013669999782,None,1,decreament,0.6,21,standard,None,100,,,,,,,m,19,241,fr,r,0,raw,2023-05-16_09h39.57.322,oddball,2022.2.5,60.057931883489864,
10,,,,,0,0,0,2,8,0,8,0,29,0,29,0,,,,,,,,,,,,,,,,,1069.0225301000028,1069.7887634000072,1069.7887634000072,1070.3879207999998,0.6148206000070786,1070.3879207999998,1072.4033168000024,2.6301679000025615,None,1,decreament,0.6,21,standard,None,100,,,,,,,m,19,241,fr,r,0,raw,2023-05-16_09h39.57.322,oddball,2022.2.5,60.057931883489864,
10,,,,,0,0,0,2,9,0,9,0,0,0,0,0,,,,,,,,,,,,,,,1080.720870899997,1080.720870899997,1082.0119620000041,1082.7279704999964,1082.7279704999964,1083.3275221000076,0.6147645000019111,1083.3275221000076,1085.342487700007,2.6297810999967624,None,1,increament,0.6,25,standard,None,100,,1072.419781500008,0.0020324999932199717,,,,m,19,241,fr,r,0,raw,2023-05-16_09h39.57.322,oddball,2022.2.5,60.057931883489864,
10,,,,,0,0,0,2,9,0,9,0,1,0,1,0,,,,,,,,,,,,,,,,,1085.3591275000072,1086.0754199000075,1086.0754199000075,1086.674730800005,0.6150019000051543,1086.674730800005,1088.6900254000066,2.630327999999281,None,1,increament,0.6,25,standard,None,100,,,,,,,m,19,241,fr,r,0,raw,2023-05-16_09h39.57.322,oddball,2022.2.5,60.057931883489864,
10,,,,,0,0,0,2,9,0,9,0,2,0,2,0,,,,,,,,,,,,,,,,,1088.7064844999986,1089.3892970000015,1089.3892970000015,1089.9889330000005,0.6152127000095788,1089.9889330000005,1092.0035688000062,2.6298498999967705,None,1,increament,0.6,25,standard,None,100,,,,,,,m,19,241,fr,r,0,raw,2023-05-16_09h39.57.322,oddball,2022.2.5,60.057931883489864,
10,,,,,0,0,0,2,9,0,9,0,3,0,3,0,,,,,,,,,,,,,,,,,1092.0205814000074,1092.7032009999966,1092.7032009999966,1093.3031230000051,0.6153731000085827,1093.3031230000051,1095.3180463000026,2.6302055999985896,None,1,increament,0.6,25,standard,None,100,,,,,,,m,19,241,fr,r,0,raw,2023-05-16_09h39.57.322,oddball,2022.2.5,60.057931883489864,
10,,,,,0,0,0,2,9,0,9,0,4,0,4,0,,,,,,,,,,,,,,,,,1095.3347995000076,1095.984123000002,1095.984123000002,1096.5836691000004,0.6151873999915551,1096.5836691000004,1098.598071100001,2.6295227999944473,None,1,increament,0.6,25,standard,None,100,,,,,,,m,19,241,fr,r,0,raw,2023-05-16_09h39.57.322,oddball,2022.2.5,60.057931883489864,
10,,,,,0,0,0,2,9,0,9,0,5,0,5,0,,,,,,,,,,,,,,,,,1098.614738400007,1099.2314788000076,1099.2314788000076,1099.8309052999975,0.6148929000046337,1099.8309052999975,1101.8460392999987,2.6300493000017013,None,1,increament,0.6,25,standard,None,100,,,,,,,m,19,241,fr,r,0,raw,2023-05-16_09h39.57.322,oddball,2022.2.5,60.057931883489864,
10,,,,,0,0,0,2,9,0,9,0,6,0,6,0,,,,,,,,,,,,,,,,,1101.862502200005,1102.5287377000059,1102.5287377000059,1103.128277099997,0.6154279000038514,1103.128277099997,1105.1427173999982,2.6297875000018394,None,1,increament,0.6,25,standard,None,100,,,,,,,m,19,241,fr,r,0,raw,2023-05-16_09h39.57.322,oddball,2022.2.5,60.057931883489864,
10,,,,,0,0,0,2,9,0,9,0,7,0,7,0,,,,,,,,,,,,,,,,,1105.1599478999997,1105.8757108999998,1105.8757108999998,1106.4750555000064,0.6144953000039095,1106.4750555000064,1108.489957400001,2.629397400000016,None,1,increament,0.6,25,standard,None,100,,,,,,,m,19,241,fr,r,0,raw,2023-05-16_09h39.57.322,oddball,2022.2.5,60.057931883489864,
10,,,,,0,0,0,2,9,0,9,0,8,0,8,0,,,,,,,,,,,,,,,,,1108.5068409000087,1109.222914900005,1109.222914900005,1109.8224232000066,0.6158662999951048,1109.8224232000066,1111.8372765000095,2.6307112999929814,None,1,increament,0.6,25,standard,None,100,,,,,,,m,19,241,fr,r,0,raw,2023-05-16_09h39.57.322,oddball,2022.2.5,60.057931883489864,
10,,,,,0,0,0,2,9,0,9,0,9,0,9,0,,,,,,,,,,,,,,,,,1111.8539605999977,1112.4035788000037,1112.4035788000037,1113.3528211000084,0.9652721999882488,1113.3694730999996,1115.3677144999965,2.980156399993575,j,1,increament,0.96,28,oddball,j,160,0.6400953999982448,,,,,,m,19,241,fr,r,0,raw,2023-05-16_09h39.57.322,oddball,2022.2.5,60.057931883489864,
10,,,,,0,0,0,2,9,0,9,0,10,0,10,0,,,,,,,,,,,,,,,,,1115.3843916000042,1115.9505353999994,1115.9505353999994,1116.5501265000057,0.6154848000005586,1116.5501265000057,1118.5653343000013,2.6308070000086445,None,1,increament,0.6,25,standard,None,100,,,,,,,m,19,241,fr,r,0,raw,2023-05-16_09h39.57.322,oddball,2022.2.5,60.057931883489864,
10,,,,,0,0,0,2,9,0,9,0,11,0,11,0,,,,,,,,,,,,,,,,,1118.5820689999964,1119.198086000004,1119.198086000004,1119.7975821,0.6149284999992233,1119.7975821,1121.8124213999981,2.6297358000010718,None,1,increament,0.6,25,standard,None,100,,,,,,,m,19,241,fr,r,0,raw,2023-05-16_09h39.57.322,oddball,2022.2.5,60.057931883489864,
10,,,,,0,0,0,2,9,0,9,0,12,0,12,0,,,,,,,,,,,,,,,,,1121.8290146000072,1122.4120629999961,1122.4120629999961,1123.0117292000068,0.6151966000034008,1123.0117292000068,1125.0263112999965,2.6297906000108924,None,1,increament,0.6,25,standard,None,100,,,,,,,m,19,241,fr,r,0,raw,2023-05-16_09h39.57.322,oddball,2022.2.5,60.057931883489864,
10,,,,,0,0,0,2,9,0,9,0,13,0,13,0,,,,,,,,,,,,,,,,,1125.04340770001,1125.792742500009,1125.792742500009,1126.3920450000005,0.6149361999996472,1126.3920450000005,1128.407269999996,2.6302476999990176,None,1,increament,0.6,25,standard,None,100,,,,,,,m,19,241,fr,r,0,raw,2023-05-16_09h39.57.322,oddball,2022.2.5,60.057931883489864,
10,,,,,0,0,0,2,9,0,9,0,14,0,14,0,,,,,,,,,,,,,,,,,1128.4239887000003,1129.1232167999988,1129.1232167999988,1129.7226516000082,0.6147389999969164,1129.7226516000082,1131.7376470000017,2.629774199987878,None,1,increament,0.6,25,standard,None,100,,,,,,,m,19,241,fr,r,0,raw,2023-05-16_09h39.57.322,oddball,2022.2.5,60.057931883489864,
10,,,,,0,0,0,2,9,0,9,0,15,0,15,0,,,,,,,,,,,,,,,,,1131.7547536000056,1132.3373248999997,1132.3373248999997,1133.1698121000081,0.8482175999961328,1133.1864187000028,1135.1852144000004,2.8636077999981353,None,0,increament,0.84,27,oddball,j,140,,,,,,,m,19,241,fr,r,0,raw,2023-05-16_09h39.57.322,oddball,2022.2.5,60.057931883489864,
10,,,,,0,0,0,2,9,0,9,0,16,0,16,0,,,,,,,,,,,,,,,,,1135.2017631000053,1135.9176585000096,1135.9176585000096,1136.5173221000005,0.6150020000059158,1136.5173221000005,1138.5323005999962,2.6300274999957765,None,1,increament,0.6,25,standard,None,100,,,,,,,m,19,241,fr,r,0,raw,2023-05-16_09h39.57.322,oddball,2022.2.5,60.057931883489864,
10,,,,,0,0,0,2,9,0,9,0,17,0,17,0,,,,,,,,,,,,,,,,,1138.5493731000024,1139.1817677000072,1139.1817677000072,1139.7810182000103,0.6151883999991696,1139.7810182000103,1141.7960805000039,2.6301616999990074,None,1,increament,0.6,25,standard,None,100,,,,,,,m,19,241,fr,r,0,raw,2023-05-16_09h39.57.322,oddball,2022.2.5,60.057931883489864,
10,,,,,0,0,0,2,9,0,9,0,18,0,18,0,,,,,,,,,,,,,,,,,1141.81251470001,1142.3621577000013,1142.3621577000013,1142.961690199998,0.6148911000054795,1142.961690199998,1144.9767678000062,2.629955600001267,None,1,increament,0.6,25,standard,None,100,,,,,,,m,19,241,fr,r,0,raw,2023-05-16_09h39.57.322,oddball,2022.2.5,60.057931883489864,
10,,,,,0,0,0,2,9,0,9,0,19,0,19,0,,,,,,,,,,,,,,,,,1144.9937275999982,1145.8095403000043,1145.8095403000043,1146.4090296000068,0.6150396000011824,1146.4090296000068,1148.4241711000068,2.630145100003574,None,1,increament,0.6,25,standard,None,100,,,,,,,m,19,241,fr,r,0,raw,2023-05-16_09h39.57.322,oddball,2022.2.5,60.057931883489864,
10,,,,,0,0,0,2,9,0,9,0,20,0,20,0,,,,,,,,,,,,,,,,,1148.4410360000038,1148.9903786000068,1148.9903786000068,1149.5897780000087,0.6152571999991778,1149.5897780000087,1151.6047955999966,2.6301983000012115,None,1,increament,0.6,25,standard,None,100,,,,,,,m,19,241,fr,r,0,raw,2023-05-16_09h39.57.322,oddball,2022.2.5,60.057931883489864,
10,,,,,0,0,0,2,9,0,9,0,21,0,21,0,,,,,,,,,,,,,,,,,1151.6216409000044,1152.2542608000076,1152.2542608000076,1152.8536297999963,0.6147894000023371,1152.8536297999963,1154.8690037000051,2.6302078000007896,None,1,increament,0.6,25,standard,None,100,,,,,,,m,19,241,fr,r,0,raw,2023-05-16_09h39.57.322,oddball,2022.2.5,60.057931883489864,
10,,,,,0,0,0,2,9,0,9,0,22,0,22,0,,,,,,,,,,,,,,,,,1154.8858498000045,1155.6348365000013,1155.6348365000013,1156.3506333999976,0.7312729000113904,1156.3673329000012,1158.3659901000065,2.746614200004842,None,0,increament,0.72,26,oddball,j,120,,,,,,,m,19,241,fr,r,0,raw,2023-05-16_09h39.57.322,oddball,2022.2.5,60.057931883489864,
10,,,,,0,0,0,2,9,0,9,0,23,0,23,0,,,,,,,,,,,,,,,,,1158.3828117000085,1159.0652853000065,1159.0652853000065,1159.6648065000045,0.6152908000076422,1159.6648065000045,1161.6797606000036,2.6302951000106987,None,1,increament,0.6,25,standard,None,100,,,,,,,m,19,241,fr,r,0,raw,2023-05-16_09h39.57.322,oddball,2022.2.5,60.057931883489864,
10,,,,,0,0,0,2,9,0,9,0,24,0,24,0,,,,,,,,,,,,,,,,,1161.6964704999991,1162.3126844000071,1162.3126844000071,1162.9121692000044,0.6151079999981448,1162.9121692000044,1164.92673810001,2.629612399992766,None,1,increament,0.6,25,standard,None,100,,,,,,,m,19,241,fr,r,0,raw,2023-05-16_09h39.57.322,oddball,2022.2.5,60.057931883489864,
10,,,,,0,0,0,2,9,0,9,0,25,0,25,0,,,,,,,,,,,,,,,,,1164.9434494000016,1165.6431136000028,1165.6431136000028,1166.242575700002,0.6148555999970995,1166.242575700002,1168.2583637000062,2.6306863999925554,None,1,increament,0.6,25,standard,None,100,,,,,,,m,19,241,fr,r,0,raw,2023-05-16_09h39.57.322,oddball,2022.2.5,60.057931883489864,
10,,,,,0,0,0,2,9,0,9,0,26,0,26,0,,,,,,,,,,,,,,,,,1168.2745509000088,1168.9571897999995,1168.9571897999995,1169.5399217000086,0.6157665000064299,1169.556839500001,1171.554902600008,2.6303934000025038,None,1,increament,0.6,25,standard,None,100,,,,,,,m,19,241,fr,r,0,raw,2023-05-16_09h39.57.322,oddball,2022.2.5,60.057931883489864,
10,,,,,0,0,0,2,9,0,9,0,27,0,27,0,,,,,,,,,,,,,,,,,1171.5884629000066,1172.1712795000058,1172.1712795000058,1172.7706607,0.6150679999991553,1172.7706607,1174.7857016000053,2.6300946999981534,None,1,increament,0.6,25,standard,None,100,,,,,,,m,19,241,fr,r,0,raw,2023-05-16_09h39.57.322,oddball,2022.2.5,60.057931883489864,
10,,,,,0,0,0,2,9,0,9,0,28,0,28,0,,,,,,,,,,,,,,,,,1174.8025286000047,1175.4523732000089,1175.4523732000089,1176.0513311999966,0.6152970999974059,1176.0681717999978,1178.0664488000039,2.6304708999959985,None,1,increament,0.6,25,standard,None,100,,,,,,,m,19,241,fr,r,0,raw,2023-05-16_09h39.57.322,oddball,2022.2.5,60.057931883489864,
10,,,,,0,0,0,2,9,0,9,0,29,0,29,0,,,,,,,,,,,,,,,,,1178.083307599998,1178.68274080001,1178.68274080001,1179.2821255000017,0.6152194999885978,1179.2821255000017,1181.2972382000007,2.6302167999965604,None,1,increament,0.6,25,standard,None,100,,,,,,,m,19,241,fr,r,0,raw,2023-05-16_09h39.57.322,oddball,2022.2.5,60.057931883489864,
