,grating_freq,direction,duration,scaling,stim_type,trigger,blocks.thisN,resp.corr,resp.rt
0,20.0,increament,0.6,100.0,standard,45.0,0.0,1.0,
1,20.0,increament,0.6,100.0,standard,45.0,0.0,1.0,
2,20.0,increament,0.6,100.0,standard,45.0,0.0,1.0,
3,20.0,increament,0.6,100.0,standard,45.0,0.0,1.0,
4,20.0,increament,0.6,100.0,standard,45.0,0.0,1.0,
5,20.0,increament,0.6,100.0,standard,45.0,0.0,1.0,
6,20.0,increament,0.6,100.0,standard,45.0,0.0,1.0,
7,20.0,increament,0.6,100.0,standard,45.0,0.0,1.0,
8,20.0,increament,0.6,100.0,standard,45.0,0.0,1.0,
9,20.0,increament,0.6,100.0,standard,45.0,0.0,1.0,
10,20.0,increament,0.6,100.0,standard,45.0,0.0,1.0,
11,20.0,increament,0.72,120.0,oddball,46.0,0.0,1.0,0.7990203006193042
12,20.0,increament,0.6,100.0,standard,45.0,0.0,1.0,
13,20.0,increament,0.6,100.0,standard,45.0,0.0,1.0,
14,20.0,increament,0.6,100.0,standard,45.0,0.0,1.0,
15,20.0,increament,0.6,100.0,standard,45.0,0.0,1.0,
16,20.0,increament,0.6,100.0,standard,45.0,0.0,1.0,
17,20.0,increament,0.6,100.0,standard,45.0,0.0,1.0,
18,20.0,increament,0.96,160.0,oddball,48.0,0.0,1.0,0.4884184002876282
19,20.0,increament,0.6,100.0,standard,45.0,0.0,1.0,
20,20.0,increament,0.6,100.0,standard,45.0,0.0,1.0,
21,20.0,increament,0.6,100.0,standard,45.0,0.0,1.0,
22,20.0,increament,0.6,100.0,standard,45.0,0.0,1.0,
23,20.0,increament,0.84,140.0,oddball,47.0,0.0,1.0,0.4915288002230227
24,20.0,increament,0.6,100.0,standard,45.0,0.0,1.0,
25,20.0,increament,0.6,100.0,standard,45.0,0.0,1.0,
26,20.0,increament,0.6,100.0,standard,45.0,0.0,1.0,
27,20.0,increament,0.6,100.0,standard,45.0,0.0,1.0,
28,20.0,increament,0.6,100.0,standard,45.0,0.0,1.0,
29,20.0,increament,0.6,100.0,standard,45.0,0.0,1.0,
30,20.0,decreament,0.6,100.0,standard,41.0,0.0,1.0,
31,20.0,decreament,0.6,100.0,standard,41.0,0.0,1.0,
32,20.0,decreament,0.6,100.0,standard,41.0,0.0,1.0,
33,20.0,decreament,0.6,100.0,standard,41.0,0.0,1.0,
34,20.0,decreament,0.6,100.0,standard,41.0,0.0,1.0,
35,20.0,decreament,0.24,40.0,oddball,42.0,0.0,1.0,0.9155907002277672
36,20.0,decreament,0.6,100.0,standard,41.0,0.0,1.0,
37,20.0,decreament,0.6,100.0,standard,41.0,0.0,1.0,
38,20.0,decreament,0.6,100.0,standard,41.0,0.0,1.0,
39,20.0,decreament,0.6,100.0,standard,41.0,0.0,1.0,
40,20.0,decreament,0.6,100.0,standard,41.0,0.0,1.0,
41,20.0,decreament,0.6,100.0,standard,41.0,0.0,1.0,
42,20.0,decreament,0.6,100.0,standard,41.0,0.0,1.0,
43,20.0,decreament,0.6,100.0,standard,41.0,0.0,1.0,
44,20.0,decreament,0.6,100.0,standard,41.0,0.0,1.0,
45,20.0,decreament,0.6,100.0,standard,41.0,0.0,1.0,
46,20.0,decreament,0.6,100.0,standard,41.0,0.0,1.0,
47,20.0,decreament,0.48,80.0,oddball,44.0,0.0,1.0,0.8287339000962675
48,20.0,decreament,0.6,100.0,standard,41.0,0.0,1.0,
49,20.0,decreament,0.6,100.0,standard,41.0,0.0,1.0,
50,20.0,decreament,0.6,100.0,standard,41.0,0.0,1.0,
51,20.0,decreament,0.36,60.0,oddball,43.0,0.0,1.0,0.7514953003264964
52,20.0,decreament,0.6,100.0,standard,41.0,0.0,1.0,
53,20.0,decreament,0.6,100.0,standard,41.0,0.0,1.0,
54,20.0,decreament,0.6,100.0,standard,41.0,0.0,1.0,
55,20.0,decreament,0.6,100.0,standard,41.0,0.0,1.0,
56,20.0,decreament,0.6,100.0,standard,41.0,0.0,1.0,
57,20.0,decreament,0.6,100.0,standard,41.0,0.0,1.0,
58,20.0,decreament,0.6,100.0,standard,41.0,0.0,1.0,
59,20.0,decreament,0.6,100.0,standard,41.0,0.0,1.0,
60,20.0,increament,0.6,100.0,standard,45.0,0.0,1.0,
61,20.0,increament,0.6,100.0,standard,45.0,0.0,1.0,
62,20.0,increament,0.6,100.0,standard,45.0,0.0,1.0,
63,20.0,increament,0.6,100.0,standard,45.0,0.0,1.0,
64,20.0,increament,0.6,100.0,standard,45.0,0.0,1.0,
65,20.0,increament,0.6,100.0,standard,45.0,0.0,1.0,
66,20.0,increament,0.6,100.0,standard,45.0,0.0,1.0,
67,20.0,increament,0.96,160.0,oddball,48.0,0.0,1.0,0.3697854001075029
68,20.0,increament,0.6,100.0,standard,45.0,0.0,1.0,
69,20.0,increament,0.6,100.0,standard,45.0,0.0,1.0,
70,20.0,increament,0.6,100.0,standard,45.0,0.0,1.0,
71,20.0,increament,0.6,100.0,standard,45.0,0.0,1.0,
72,20.0,increament,0.72,120.0,oddball,46.0,0.0,1.0,0.3678654003888368
73,20.0,increament,0.6,100.0,standard,45.0,0.0,1.0,
74,20.0,increament,0.6,100.0,standard,45.0,0.0,1.0,
75,20.0,increament,0.6,100.0,standard,45.0,0.0,1.0,
76,20.0,increament,0.6,100.0,standard,45.0,0.0,1.0,
77,20.0,increament,0.6,100.0,standard,45.0,0.0,1.0,
78,20.0,increament,0.6,100.0,standard,45.0,0.0,1.0,
79,20.0,increament,0.6,100.0,standard,45.0,0.0,1.0,
80,20.0,increament,0.6,100.0,standard,45.0,0.0,1.0,
81,20.0,increament,0.6,100.0,standard,45.0,0.0,1.0,
82,20.0,increament,0.6,100.0,standard,45.0,0.0,1.0,
83,20.0,increament,0.6,100.0,standard,45.0,0.0,1.0,
84,20.0,increament,0.6,100.0,standard,45.0,0.0,1.0,
85,20.0,increament,0.84,140.0,oddball,47.0,0.0,1.0,0.4859568001702428
86,20.0,increament,0.6,100.0,standard,45.0,0.0,1.0,
87,20.0,increament,0.6,100.0,standard,45.0,0.0,1.0,
88,20.0,increament,0.6,100.0,standard,45.0,0.0,1.0,
89,20.0,increament,0.6,100.0,standard,45.0,0.0,1.0,
90,20.0,decreament,0.6,100.0,standard,41.0,0.0,1.0,
91,20.0,decreament,0.6,100.0,standard,41.0,0.0,1.0,
92,20.0,decreament,0.6,100.0,standard,41.0,0.0,1.0,
93,20.0,decreament,0.6,100.0,standard,41.0,0.0,1.0,
94,20.0,decreament,0.6,100.0,standard,41.0,0.0,1.0,
95,20.0,decreament,0.6,100.0,standard,41.0,0.0,1.0,
96,20.0,decreament,0.48,80.0,oddball,44.0,0.0,0.0,
97,20.0,decreament,0.6,100.0,standard,41.0,0.0,1.0,
98,20.0,decreament,0.6,100.0,standard,41.0,0.0,1.0,
99,20.0,decreament,0.6,100.0,standard,41.0,0.0,1.0,
100,20.0,decreament,0.6,100.0,standard,41.0,0.0,1.0,
101,20.0,decreament,0.6,100.0,standard,41.0,0.0,1.0,
102,20.0,decreament,0.6,100.0,standard,41.0,0.0,1.0,
103,20.0,decreament,0.6,100.0,standard,41.0,0.0,1.0,
104,20.0,decreament,0.6,100.0,standard,41.0,0.0,1.0,
105,20.0,decreament,0.6,100.0,standard,41.0,0.0,1.0,
106,20.0,decreament,0.6,100.0,standard,41.0,0.0,1.0,
107,20.0,decreament,0.6,100.0,standard,41.0,0.0,1.0,
108,20.0,decreament,0.6,100.0,standard,41.0,0.0,1.0,
109,20.0,decreament,0.6,100.0,standard,41.0,0.0,1.0,
110,20.0,decreament,0.6,100.0,standard,41.0,0.0,1.0,
111,20.0,decreament,0.6,100.0,standard,41.0,0.0,1.0,
112,20.0,decreament,0.6,100.0,standard,41.0,0.0,1.0,
113,20.0,decreament,0.6,100.0,standard,41.0,0.0,1.0,
114,20.0,decreament,0.24,40.0,oddball,42.0,0.0,1.0,0.7745885006152093
115,20.0,decreament,0.6,100.0,standard,41.0,0.0,1.0,
116,20.0,decreament,0.6,100.0,standard,41.0,0.0,1.0,
117,20.0,decreament,0.6,100.0,standard,41.0,0.0,1.0,
118,20.0,decreament,0.36,60.0,oddball,43.0,0.0,1.0,1.2056338000111282
119,20.0,decreament,0.6,100.0,standard,41.0,0.0,1.0,
120,20.0,increament,0.6,100.0,standard,45.0,0.0,1.0,
121,20.0,increament,0.6,100.0,standard,45.0,0.0,1.0,
122,20.0,increament,0.6,100.0,standard,45.0,0.0,1.0,
123,20.0,increament,0.6,100.0,standard,45.0,0.0,1.0,
124,20.0,increament,0.6,100.0,standard,45.0,0.0,1.0,
125,20.0,increament,0.6,100.0,standard,45.0,0.0,1.0,
126,20.0,increament,0.6,100.0,standard,45.0,0.0,1.0,
127,20.0,increament,0.6,100.0,standard,45.0,0.0,1.0,
128,20.0,increament,0.6,100.0,standard,45.0,0.0,1.0,
129,20.0,increament,0.96,160.0,oddball,48.0,0.0,1.0,1.0763648003339767
130,20.0,increament,0.6,100.0,standard,45.0,0.0,1.0,
131,20.0,increament,0.6,100.0,standard,45.0,0.0,1.0,
132,20.0,increament,0.6,100.0,standard,45.0,0.0,1.0,
133,20.0,increament,0.84,140.0,oddball,47.0,0.0,1.0,0.5314027001149952
134,20.0,increament,0.6,100.0,standard,45.0,0.0,1.0,
135,20.0,increament,0.6,100.0,standard,45.0,0.0,1.0,
136,20.0,increament,0.6,100.0,standard,45.0,0.0,1.0,
137,20.0,increament,0.6,100.0,standard,45.0,0.0,1.0,
138,20.0,increament,0.6,100.0,standard,45.0,0.0,1.0,
139,20.0,increament,0.6,100.0,standard,45.0,0.0,1.0,
140,20.0,increament,0.6,100.0,standard,45.0,0.0,1.0,
141,20.0,increament,0.72,120.0,oddball,46.0,0.0,0.0,
142,20.0,increament,0.6,100.0,standard,45.0,0.0,1.0,
143,20.0,increament,0.6,100.0,standard,45.0,0.0,1.0,
144,20.0,increament,0.6,100.0,standard,45.0,0.0,1.0,
145,20.0,increament,0.6,100.0,standard,45.0,0.0,1.0,
146,20.0,increament,0.6,100.0,standard,45.0,0.0,1.0,
147,20.0,increament,0.6,100.0,standard,45.0,0.0,1.0,
148,20.0,increament,0.6,100.0,standard,45.0,0.0,1.0,
149,20.0,increament,0.6,100.0,standard,45.0,0.0,1.0,
150,20.0,decreament,0.6,100.0,standard,41.0,0.0,1.0,
151,20.0,decreament,0.6,100.0,standard,41.0,0.0,1.0,
152,20.0,decreament,0.6,100.0,standard,41.0,0.0,1.0,
153,20.0,decreament,0.6,100.0,standard,41.0,0.0,1.0,
154,20.0,decreament,0.6,100.0,standard,41.0,0.0,1.0,
155,20.0,decreament,0.6,100.0,standard,41.0,0.0,1.0,
156,20.0,decreament,0.6,100.0,standard,41.0,0.0,1.0,
157,20.0,decreament,0.48,80.0,oddball,44.0,0.0,0.0,
158,20.0,decreament,0.6,100.0,standard,41.0,0.0,1.0,
159,20.0,decreament,0.6,100.0,standard,41.0,0.0,1.0,
160,20.0,decreament,0.6,100.0,standard,41.0,0.0,1.0,
161,20.0,decreament,0.6,100.0,standard,41.0,0.0,1.0,
162,20.0,decreament,0.6,100.0,standard,41.0,0.0,1.0,
163,20.0,decreament,0.6,100.0,standard,41.0,0.0,1.0,
164,20.0,decreament,0.6,100.0,standard,41.0,0.0,1.0,
165,20.0,decreament,0.6,100.0,standard,41.0,0.0,1.0,
166,20.0,decreament,0.36,60.0,oddball,43.0,0.0,1.0,0.8070756001397967
167,20.0,decreament,0.6,100.0,standard,41.0,0.0,1.0,
168,20.0,decreament,0.6,100.0,standard,41.0,0.0,1.0,
169,20.0,decreament,0.6,100.0,standard,41.0,0.0,1.0,
170,20.0,decreament,0.24,40.0,oddball,42.0,0.0,1.0,0.8892136006616056
171,20.0,decreament,0.6,100.0,standard,41.0,0.0,1.0,
172,20.0,decreament,0.6,100.0,standard,41.0,0.0,1.0,
173,20.0,decreament,0.6,100.0,standard,41.0,0.0,1.0,
174,20.0,decreament,0.6,100.0,standard,41.0,0.0,1.0,
175,20.0,decreament,0.6,100.0,standard,41.0,0.0,1.0,
176,20.0,decreament,0.6,100.0,standard,41.0,0.0,1.0,
177,20.0,decreament,0.6,100.0,standard,41.0,0.0,1.0,
178,20.0,decreament,0.6,100.0,standard,41.0,0.0,1.0,
179,20.0,decreament,0.6,100.0,standard,41.0,0.0,1.0,
180,20.0,increament,0.6,100.0,standard,45.0,0.0,1.0,
181,20.0,increament,0.6,100.0,standard,45.0,0.0,1.0,
182,20.0,increament,0.6,100.0,standard,45.0,0.0,1.0,
183,20.0,increament,0.6,100.0,standard,45.0,0.0,1.0,
184,20.0,increament,0.6,100.0,standard,45.0,0.0,1.0,
185,20.0,increament,0.6,100.0,standard,45.0,0.0,1.0,
186,20.0,increament,0.6,100.0,standard,45.0,0.0,1.0,
187,20.0,increament,0.6,100.0,standard,45.0,0.0,1.0,
188,20.0,increament,0.84,140.0,oddball,47.0,0.0,0.0,
189,20.0,increament,0.6,100.0,standard,45.0,0.0,1.0,
190,20.0,increament,0.6,100.0,standard,45.0,0.0,1.0,
191,20.0,increament,0.6,100.0,standard,45.0,0.0,1.0,
192,20.0,increament,0.6,100.0,standard,45.0,0.0,1.0,
193,20.0,increament,0.96,160.0,oddball,48.0,0.0,1.0,1.047521200031042
194,20.0,increament,0.6,100.0,standard,45.0,0.0,1.0,
195,20.0,increament,0.6,100.0,standard,45.0,0.0,1.0,
196,20.0,increament,0.6,100.0,standard,45.0,0.0,1.0,
197,20.0,increament,0.6,100.0,standard,45.0,0.0,1.0,
198,20.0,increament,0.6,100.0,standard,45.0,0.0,1.0,
199,20.0,increament,0.6,100.0,standard,45.0,0.0,1.0,
200,20.0,increament,0.6,100.0,standard,45.0,0.0,1.0,
201,20.0,increament,0.6,100.0,standard,45.0,0.0,1.0,
202,20.0,increament,0.6,100.0,standard,45.0,0.0,1.0,
203,20.0,increament,0.6,100.0,standard,45.0,0.0,1.0,
204,20.0,increament,0.6,100.0,standard,45.0,0.0,1.0,
205,20.0,increament,0.6,100.0,standard,45.0,0.0,1.0,
206,20.0,increament,0.6,100.0,standard,45.0,0.0,1.0,
207,20.0,increament,0.6,100.0,standard,45.0,0.0,1.0,
208,20.0,increament,0.72,120.0,oddball,46.0,0.0,0.0,
209,20.0,increament,0.6,100.0,standard,45.0,0.0,1.0,
210,20.0,decreament,0.6,100.0,standard,41.0,0.0,1.0,
211,20.0,decreament,0.6,100.0,standard,41.0,0.0,1.0,
212,20.0,decreament,0.6,100.0,standard,41.0,0.0,1.0,
213,20.0,decreament,0.6,100.0,standard,41.0,0.0,1.0,
214,20.0,decreament,0.6,100.0,standard,41.0,0.0,1.0,
215,20.0,decreament,0.6,100.0,standard,41.0,0.0,1.0,
216,20.0,decreament,0.6,100.0,standard,41.0,0.0,1.0,
217,20.0,decreament,0.36,60.0,oddball,43.0,0.0,1.0,0.9330370002426208
218,20.0,decreament,0.6,100.0,standard,41.0,0.0,1.0,
219,20.0,decreament,0.6,100.0,standard,41.0,0.0,1.0,
220,20.0,decreament,0.6,100.0,standard,41.0,0.0,1.0,
221,20.0,decreament,0.6,100.0,standard,41.0,0.0,1.0,
222,20.0,decreament,0.48,80.0,oddball,44.0,0.0,1.0,0.8191769002005458
223,20.0,decreament,0.6,100.0,standard,41.0,0.0,1.0,
224,20.0,decreament,0.6,100.0,standard,41.0,0.0,1.0,
225,20.0,decreament,0.6,100.0,standard,41.0,0.0,1.0,
226,20.0,decreament,0.6,100.0,standard,41.0,0.0,1.0,
227,20.0,decreament,0.6,100.0,standard,41.0,0.0,1.0,
228,20.0,decreament,0.24,40.0,oddball,42.0,0.0,1.0,0.8102285000495613
229,20.0,decreament,0.6,100.0,standard,41.0,0.0,1.0,
230,20.0,decreament,0.6,100.0,standard,41.0,0.0,1.0,
231,20.0,decreament,0.6,100.0,standard,41.0,0.0,1.0,
232,20.0,decreament,0.6,100.0,standard,41.0,0.0,1.0,
233,20.0,decreament,0.6,100.0,standard,41.0,0.0,1.0,
234,20.0,decreament,0.6,100.0,standard,41.0,0.0,1.0,
235,20.0,decreament,0.6,100.0,standard,41.0,0.0,1.0,
236,20.0,decreament,0.6,100.0,standard,41.0,0.0,1.0,
237,20.0,decreament,0.6,100.0,standard,41.0,0.0,1.0,
238,20.0,decreament,0.6,100.0,standard,41.0,0.0,1.0,
239,20.0,decreament,0.6,100.0,standard,41.0,0.0,1.0,
240,20.0,increament,0.6,100.0,standard,45.0,0.0,1.0,
241,20.0,increament,0.6,100.0,standard,45.0,0.0,1.0,
242,20.0,increament,0.6,100.0,standard,45.0,0.0,1.0,
243,20.0,increament,0.6,100.0,standard,45.0,0.0,1.0,
244,20.0,increament,0.6,100.0,standard,45.0,0.0,1.0,
245,20.0,increament,0.6,100.0,standard,45.0,0.0,1.0,
246,20.0,increament,0.6,100.0,standard,45.0,0.0,1.0,
247,20.0,increament,0.6,100.0,standard,45.0,0.0,1.0,
248,20.0,increament,0.6,100.0,standard,45.0,0.0,1.0,
249,20.0,increament,0.96,160.0,oddball,48.0,0.0,1.0,0.3717487002722919
250,20.0,increament,0.6,100.0,standard,45.0,0.0,1.0,
251,20.0,increament,0.6,100.0,standard,45.0,0.0,1.0,
252,20.0,increament,0.6,100.0,standard,45.0,0.0,1.0,
253,20.0,increament,0.6,100.0,standard,45.0,0.0,1.0,
254,20.0,increament,0.6,100.0,standard,45.0,0.0,1.0,
255,20.0,increament,0.6,100.0,standard,45.0,0.0,1.0,
256,20.0,increament,0.6,100.0,standard,45.0,0.0,1.0,
257,20.0,increament,0.6,100.0,standard,45.0,0.0,1.0,
258,20.0,increament,0.6,100.0,standard,45.0,0.0,1.0,
259,20.0,increament,0.6,100.0,standard,45.0,0.0,1.0,
260,20.0,increament,0.84,140.0,oddball,47.0,0.0,1.0,0.6147857001051307
261,20.0,increament,0.6,100.0,standard,45.0,0.0,1.0,
262,20.0,increament,0.6,100.0,standard,45.0,0.0,1.0,
263,20.0,increament,0.6,100.0,standard,45.0,0.0,1.0,
264,20.0,increament,0.6,100.0,standard,45.0,0.0,1.0,
265,20.0,increament,0.6,100.0,standard,45.0,0.0,1.0,
266,20.0,increament,0.72,120.0,oddball,46.0,0.0,0.0,
267,20.0,increament,0.6,100.0,standard,45.0,0.0,1.0,
268,20.0,increament,0.6,100.0,standard,45.0,0.0,1.0,
269,20.0,increament,0.6,100.0,standard,45.0,0.0,1.0,
270,20.0,decreament,0.6,100.0,standard,41.0,0.0,1.0,
271,20.0,decreament,0.6,100.0,standard,41.0,0.0,1.0,
272,20.0,decreament,0.6,100.0,standard,41.0,0.0,1.0,
273,20.0,decreament,0.6,100.0,standard,41.0,0.0,1.0,
274,20.0,decreament,0.6,100.0,standard,41.0,0.0,1.0,
275,20.0,decreament,0.6,100.0,standard,41.0,0.0,1.0,
276,20.0,decreament,0.6,100.0,standard,41.0,0.0,1.0,
277,20.0,decreament,0.36,60.0,oddball,43.0,0.0,1.0,0.9568684003315866
278,20.0,decreament,0.6,100.0,standard,41.0,0.0,1.0,
279,20.0,decreament,0.6,100.0,standard,41.0,0.0,1.0,
280,20.0,decreament,0.6,100.0,standard,41.0,0.0,1.0,
281,20.0,decreament,0.6,100.0,standard,41.0,0.0,1.0,
282,20.0,decreament,0.6,100.0,standard,41.0,0.0,1.0,
283,20.0,decreament,0.6,100.0,standard,41.0,0.0,1.0,
284,20.0,decreament,0.6,100.0,standard,41.0,0.0,1.0,
285,20.0,decreament,0.6,100.0,standard,41.0,0.0,1.0,
286,20.0,decreament,0.6,100.0,standard,41.0,0.0,1.0,
287,20.0,decreament,0.6,100.0,standard,41.0,0.0,1.0,
288,20.0,decreament,0.6,100.0,standard,41.0,0.0,1.0,
289,20.0,decreament,0.48,80.0,oddball,44.0,0.0,1.0,0.633410700596869
290,20.0,decreament,0.6,100.0,standard,41.0,0.0,1.0,
291,20.0,decreament,0.6,100.0,standard,41.0,0.0,1.0,
292,20.0,decreament,0.6,100.0,standard,41.0,0.0,1.0,
293,20.0,decreament,0.6,100.0,standard,41.0,0.0,1.0,
294,20.0,decreament,0.6,100.0,standard,41.0,0.0,1.0,
295,20.0,decreament,0.6,100.0,standard,41.0,0.0,1.0,
296,20.0,decreament,0.6,100.0,standard,41.0,0.0,1.0,
297,20.0,decreament,0.6,100.0,standard,41.0,0.0,1.0,
298,20.0,decreament,0.6,100.0,standard,41.0,0.0,1.0,
299,20.0,decreament,0.24,40.0,oddball,42.0,0.0,1.0,0.8737321002408862
300,0.0,increament,0.6,100.0,standard,5.0,1.0,1.0,
301,0.0,increament,0.6,100.0,standard,5.0,1.0,1.0,
302,0.0,increament,0.6,100.0,standard,5.0,1.0,1.0,
303,0.0,increament,0.6,100.0,standard,5.0,1.0,1.0,
304,0.0,increament,0.6,100.0,standard,5.0,1.0,1.0,
305,0.0,increament,0.6,100.0,standard,5.0,1.0,1.0,
306,0.0,increament,0.6,100.0,standard,5.0,1.0,1.0,
307,0.0,increament,0.6,100.0,standard,5.0,1.0,1.0,
308,0.0,increament,0.6,100.0,standard,5.0,1.0,1.0,
309,0.0,increament,0.6,100.0,standard,5.0,1.0,1.0,
310,0.0,increament,0.6,100.0,standard,5.0,1.0,1.0,
311,0.0,increament,0.6,100.0,standard,5.0,1.0,1.0,
312,0.0,increament,0.72,120.0,oddball,6.0,1.0,0.0,
313,0.0,increament,0.6,100.0,standard,5.0,1.0,1.0,
314,0.0,increament,0.6,100.0,standard,5.0,1.0,1.0,
315,0.0,increament,0.6,100.0,standard,5.0,1.0,1.0,
316,0.0,increament,0.6,100.0,standard,5.0,1.0,1.0,
317,0.0,increament,0.6,100.0,standard,5.0,1.0,1.0,
318,0.0,increament,0.96,160.0,oddball,8.0,1.0,1.0,0.6090444000437856
319,0.0,increament,0.6,100.0,standard,5.0,1.0,1.0,
320,0.0,increament,0.6,100.0,standard,5.0,1.0,1.0,
321,0.0,increament,0.6,100.0,standard,5.0,1.0,1.0,
322,0.0,increament,0.6,100.0,standard,5.0,1.0,1.0,
323,0.0,increament,0.6,100.0,standard,5.0,1.0,1.0,
324,0.0,increament,0.84,140.0,oddball,7.0,1.0,0.0,
325,0.0,increament,0.6,100.0,standard,5.0,1.0,1.0,
326,0.0,increament,0.6,100.0,standard,5.0,1.0,1.0,
327,0.0,increament,0.6,100.0,standard,5.0,1.0,1.0,
328,0.0,increament,0.6,100.0,standard,5.0,1.0,1.0,
329,0.0,increament,0.6,100.0,standard,5.0,1.0,1.0,
330,0.0,decreament,0.6,100.0,standard,1.0,1.0,1.0,
331,0.0,decreament,0.6,100.0,standard,1.0,1.0,1.0,
332,0.0,decreament,0.6,100.0,standard,1.0,1.0,1.0,
333,0.0,decreament,0.6,100.0,standard,1.0,1.0,1.0,
334,0.0,decreament,0.6,100.0,standard,1.0,1.0,1.0,
335,0.0,decreament,0.6,100.0,standard,1.0,1.0,1.0,
336,0.0,decreament,0.6,100.0,standard,1.0,1.0,1.0,
337,0.0,decreament,0.24,40.0,oddball,2.0,1.0,1.0,0.8515598005615175
338,0.0,decreament,0.6,100.0,standard,1.0,1.0,1.0,
339,0.0,decreament,0.6,100.0,standard,1.0,1.0,1.0,
340,0.0,decreament,0.6,100.0,standard,1.0,1.0,1.0,
341,0.0,decreament,0.6,100.0,standard,1.0,1.0,1.0,
342,0.0,decreament,0.6,100.0,standard,1.0,1.0,1.0,
343,0.0,decreament,0.6,100.0,standard,1.0,1.0,1.0,
344,0.0,decreament,0.36,60.0,oddball,3.0,1.0,1.0,0.7731651999056339
345,0.0,decreament,0.6,100.0,standard,1.0,1.0,1.0,
346,0.0,decreament,0.6,100.0,standard,1.0,1.0,1.0,
347,0.0,decreament,0.6,100.0,standard,1.0,1.0,1.0,
348,0.0,decreament,0.6,100.0,standard,1.0,1.0,1.0,
349,0.0,decreament,0.6,100.0,standard,1.0,1.0,1.0,
350,0.0,decreament,0.6,100.0,standard,1.0,1.0,1.0,
351,0.0,decreament,0.6,100.0,standard,1.0,1.0,1.0,
352,0.0,decreament,0.6,100.0,standard,1.0,1.0,1.0,
353,0.0,decreament,0.6,100.0,standard,1.0,1.0,1.0,
354,0.0,decreament,0.6,100.0,standard,1.0,1.0,0.0,0.9552658000029624
355,0.0,decreament,0.6,100.0,standard,1.0,1.0,1.0,
356,0.0,decreament,0.6,100.0,standard,1.0,1.0,1.0,
357,0.0,decreament,0.48,80.0,oddball,4.0,1.0,0.0,
358,0.0,decreament,0.6,100.0,standard,1.0,1.0,1.0,
359,0.0,decreament,0.6,100.0,standard,1.0,1.0,1.0,
360,0.0,increament,0.6,100.0,standard,5.0,1.0,1.0,
361,0.0,increament,0.6,100.0,standard,5.0,1.0,1.0,
362,0.0,increament,0.6,100.0,standard,5.0,1.0,1.0,
363,0.0,increament,0.6,100.0,standard,5.0,1.0,1.0,
364,0.0,increament,0.6,100.0,standard,5.0,1.0,1.0,
365,0.0,increament,0.6,100.0,standard,5.0,1.0,1.0,
366,0.0,increament,0.6,100.0,standard,5.0,1.0,1.0,
367,0.0,increament,0.6,100.0,standard,5.0,1.0,1.0,
368,0.0,increament,0.6,100.0,standard,5.0,1.0,1.0,
369,0.0,increament,0.6,100.0,standard,5.0,1.0,1.0,
370,0.0,increament,0.96,160.0,oddball,8.0,1.0,1.0,0.4648959999904036
371,0.0,increament,0.6,100.0,standard,5.0,1.0,1.0,
372,0.0,increament,0.6,100.0,standard,5.0,1.0,1.0,
373,0.0,increament,0.6,100.0,standard,5.0,1.0,1.0,
374,0.0,increament,0.6,100.0,standard,5.0,1.0,1.0,
375,0.0,increament,0.6,100.0,standard,5.0,1.0,1.0,
376,0.0,increament,0.6,100.0,standard,5.0,1.0,1.0,
377,0.0,increament,0.6,100.0,standard,5.0,1.0,1.0,
378,0.0,increament,0.6,100.0,standard,5.0,1.0,1.0,
379,0.0,increament,0.6,100.0,standard,5.0,1.0,1.0,
380,0.0,increament,0.6,100.0,standard,5.0,1.0,1.0,
381,0.0,increament,0.6,100.0,standard,5.0,1.0,1.0,
382,0.0,increament,0.6,100.0,standard,5.0,1.0,1.0,
383,0.0,increament,0.72,120.0,oddball,6.0,1.0,0.0,
384,0.0,increament,0.6,100.0,standard,5.0,1.0,1.0,
385,0.0,increament,0.6,100.0,standard,5.0,1.0,1.0,
386,0.0,increament,0.6,100.0,standard,5.0,1.0,1.0,
387,0.0,increament,0.84,140.0,oddball,7.0,1.0,1.0,0.9843789003789424
388,0.0,increament,0.6,100.0,standard,5.0,1.0,1.0,
389,0.0,increament,0.6,100.0,standard,5.0,1.0,1.0,
390,0.0,decreament,0.6,100.0,standard,1.0,1.0,1.0,
391,0.0,decreament,0.6,100.0,standard,1.0,1.0,1.0,
392,0.0,decreament,0.6,100.0,standard,1.0,1.0,1.0,
393,0.0,decreament,0.6,100.0,standard,1.0,1.0,1.0,
394,0.0,decreament,0.6,100.0,standard,1.0,1.0,1.0,
395,0.0,decreament,0.6,100.0,standard,1.0,1.0,1.0,
396,0.0,decreament,0.48,80.0,oddball,4.0,1.0,1.0,0.5962224001996219
397,0.0,decreament,0.6,100.0,standard,1.0,1.0,1.0,
398,0.0,decreament,0.6,100.0,standard,1.0,1.0,1.0,
399,0.0,decreament,0.6,100.0,standard,1.0,1.0,1.0,
400,0.0,decreament,0.6,100.0,standard,1.0,1.0,1.0,
401,0.0,decreament,0.6,100.0,standard,1.0,1.0,1.0,
402,0.0,decreament,0.6,100.0,standard,1.0,1.0,1.0,
403,0.0,decreament,0.6,100.0,standard,1.0,1.0,1.0,
404,0.0,decreament,0.6,100.0,standard,1.0,1.0,1.0,
405,0.0,decreament,0.6,100.0,standard,1.0,1.0,1.0,
406,0.0,decreament,0.6,100.0,standard,1.0,1.0,1.0,
407,0.0,decreament,0.6,100.0,standard,1.0,1.0,1.0,
408,0.0,decreament,0.6,100.0,standard,1.0,1.0,1.0,
409,0.0,decreament,0.36,60.0,oddball,3.0,1.0,1.0,0.7860397999174893
410,0.0,decreament,0.6,100.0,standard,1.0,1.0,1.0,
411,0.0,decreament,0.6,100.0,standard,1.0,1.0,1.0,
412,0.0,decreament,0.6,100.0,standard,1.0,1.0,1.0,
413,0.0,decreament,0.6,100.0,standard,1.0,1.0,1.0,
414,0.0,decreament,0.6,100.0,standard,1.0,1.0,1.0,
415,0.0,decreament,0.6,100.0,standard,1.0,1.0,1.0,
416,0.0,decreament,0.6,100.0,standard,1.0,1.0,1.0,
417,0.0,decreament,0.24,40.0,oddball,2.0,1.0,1.0,0.7245411002077162
418,0.0,decreament,0.6,100.0,standard,1.0,1.0,1.0,
419,0.0,decreament,0.6,100.0,standard,1.0,1.0,1.0,
420,0.0,increament,0.6,100.0,standard,5.0,1.0,1.0,
421,0.0,increament,0.6,100.0,standard,5.0,1.0,1.0,
422,0.0,increament,0.6,100.0,standard,5.0,1.0,1.0,
423,0.0,increament,0.6,100.0,standard,5.0,1.0,1.0,
424,0.0,increament,0.6,100.0,standard,5.0,1.0,1.0,
425,0.0,increament,0.96,160.0,oddball,8.0,1.0,1.0,0.3554850006476044
426,0.0,increament,0.6,100.0,standard,5.0,1.0,1.0,
427,0.0,increament,0.6,100.0,standard,5.0,1.0,1.0,
428,0.0,increament,0.6,100.0,standard,5.0,1.0,1.0,
429,0.0,increament,0.6,100.0,standard,5.0,1.0,1.0,
430,0.0,increament,0.72,120.0,oddball,6.0,1.0,0.0,
431,0.0,increament,0.6,100.0,standard,5.0,1.0,1.0,
432,0.0,increament,0.6,100.0,standard,5.0,1.0,1.0,
433,0.0,increament,0.6,100.0,standard,5.0,1.0,1.0,
434,0.0,increament,0.6,100.0,standard,5.0,1.0,1.0,
435,0.0,increament,0.6,100.0,standard,5.0,1.0,1.0,
436,0.0,increament,0.6,100.0,standard,5.0,1.0,1.0,
437,0.0,increament,0.6,100.0,standard,5.0,1.0,1.0,
438,0.0,increament,0.6,100.0,standard,5.0,1.0,1.0,
439,0.0,increament,0.6,100.0,standard,5.0,1.0,1.0,
440,0.0,increament,0.6,100.0,standard,5.0,1.0,0.0,0.8425785000436008
441,0.0,increament,0.6,100.0,standard,5.0,1.0,1.0,
442,0.0,increament,0.6,100.0,standard,5.0,1.0,1.0,
443,0.0,increament,0.6,100.0,standard,5.0,1.0,1.0,
444,0.0,increament,0.6,100.0,standard,5.0,1.0,1.0,
445,0.0,increament,0.6,100.0,standard,5.0,1.0,1.0,
446,0.0,increament,0.6,100.0,standard,5.0,1.0,1.0,
447,0.0,increament,0.84,140.0,oddball,7.0,1.0,1.0,0.4930814006365835
448,0.0,increament,0.6,100.0,standard,5.0,1.0,1.0,
449,0.0,increament,0.6,100.0,standard,5.0,1.0,1.0,
450,0.0,decreament,0.6,100.0,standard,1.0,1.0,1.0,
451,0.0,decreament,0.6,100.0,standard,1.0,1.0,1.0,
452,0.0,decreament,0.6,100.0,standard,1.0,1.0,1.0,
453,0.0,decreament,0.6,100.0,standard,1.0,1.0,1.0,
454,0.0,decreament,0.6,100.0,standard,1.0,1.0,1.0,
455,0.0,decreament,0.6,100.0,standard,1.0,1.0,1.0,
456,0.0,decreament,0.6,100.0,standard,1.0,1.0,1.0,
457,0.0,decreament,0.36,60.0,oddball,3.0,1.0,1.0,0.892087500076741
458,0.0,decreament,0.6,100.0,standard,1.0,1.0,1.0,
459,0.0,decreament,0.6,100.0,standard,1.0,1.0,1.0,
460,0.0,decreament,0.6,100.0,standard,1.0,1.0,1.0,
461,0.0,decreament,0.6,100.0,standard,1.0,1.0,1.0,
462,0.0,decreament,0.6,100.0,standard,1.0,1.0,1.0,
463,0.0,decreament,0.6,100.0,standard,1.0,1.0,1.0,
464,0.0,decreament,0.6,100.0,standard,1.0,1.0,1.0,
465,0.0,decreament,0.6,100.0,standard,1.0,1.0,1.0,
466,0.0,decreament,0.6,100.0,standard,1.0,1.0,1.0,
467,0.0,decreament,0.6,100.0,standard,1.0,1.0,1.0,
468,0.0,decreament,0.6,100.0,standard,1.0,1.0,1.0,
469,0.0,decreament,0.6,100.0,standard,1.0,1.0,1.0,
470,0.0,decreament,0.48,80.0,oddball,4.0,1.0,0.0,
471,0.0,decreament,0.6,100.0,standard,1.0,1.0,1.0,
472,0.0,decreament,0.6,100.0,standard,1.0,1.0,1.0,
473,0.0,decreament,0.6,100.0,standard,1.0,1.0,1.0,
474,0.0,decreament,0.6,100.0,standard,1.0,1.0,1.0,
475,0.0,decreament,0.6,100.0,standard,1.0,1.0,1.0,
476,0.0,decreament,0.6,100.0,standard,1.0,1.0,1.0,
477,0.0,decreament,0.24,40.0,oddball,2.0,1.0,1.0,0.8693861002102494
478,0.0,decreament,0.6,100.0,standard,1.0,1.0,1.0,
479,0.0,decreament,0.6,100.0,standard,1.0,1.0,1.0,
480,0.0,increament,0.6,100.0,standard,5.0,1.0,1.0,
481,0.0,increament,0.6,100.0,standard,5.0,1.0,1.0,
482,0.0,increament,0.6,100.0,standard,5.0,1.0,1.0,
483,0.0,increament,0.6,100.0,standard,5.0,1.0,1.0,
484,0.0,increament,0.6,100.0,standard,5.0,1.0,1.0,
485,0.0,increament,0.6,100.0,standard,5.0,1.0,1.0,
486,0.0,increament,0.6,100.0,standard,5.0,1.0,1.0,
487,0.0,increament,0.6,100.0,standard,5.0,1.0,1.0,
488,0.0,increament,0.6,100.0,standard,5.0,1.0,1.0,
489,0.0,increament,0.6,100.0,standard,5.0,1.0,1.0,
490,0.0,increament,0.84,140.0,oddball,7.0,1.0,1.0,0.6685277000069618
491,0.0,increament,0.6,100.0,standard,5.0,1.0,1.0,
492,0.0,increament,0.6,100.0,standard,5.0,1.0,1.0,
493,0.0,increament,0.6,100.0,standard,5.0,1.0,1.0,
494,0.0,increament,0.6,100.0,standard,5.0,1.0,1.0,
495,0.0,increament,0.6,100.0,standard,5.0,1.0,1.0,
496,0.0,increament,0.6,100.0,standard,5.0,1.0,1.0,
497,0.0,increament,0.6,100.0,standard,5.0,1.0,1.0,
498,0.0,increament,0.6,100.0,standard,5.0,1.0,1.0,
499,0.0,increament,0.6,100.0,standard,5.0,1.0,1.0,
500,0.0,increament,0.6,100.0,standard,5.0,1.0,1.0,
501,0.0,increament,0.6,100.0,standard,5.0,1.0,1.0,
502,0.0,increament,0.6,100.0,standard,5.0,1.0,1.0,
503,0.0,increament,0.6,100.0,standard,5.0,1.0,1.0,
504,0.0,increament,0.96,160.0,oddball,8.0,1.0,1.0,0.5629218001849949
505,0.0,increament,0.6,100.0,standard,5.0,1.0,1.0,
506,0.0,increament,0.6,100.0,standard,5.0,1.0,1.0,
507,0.0,increament,0.6,100.0,standard,5.0,1.0,1.0,
508,0.0,increament,0.6,100.0,standard,5.0,1.0,1.0,
509,0.0,increament,0.72,120.0,oddball,6.0,1.0,0.0,
510,0.0,decreament,0.6,100.0,standard,1.0,1.0,1.0,
511,0.0,decreament,0.6,100.0,standard,1.0,1.0,1.0,
512,0.0,decreament,0.6,100.0,standard,1.0,1.0,1.0,
513,0.0,decreament,0.6,100.0,standard,1.0,1.0,1.0,
514,0.0,decreament,0.6,100.0,standard,1.0,1.0,1.0,
515,0.0,decreament,0.6,100.0,standard,1.0,1.0,1.0,
516,0.0,decreament,0.6,100.0,standard,1.0,1.0,1.0,
517,0.0,decreament,0.24,40.0,oddball,2.0,1.0,1.0,0.7570497998967767
518,0.0,decreament,0.6,100.0,standard,1.0,1.0,1.0,
519,0.0,decreament,0.6,100.0,standard,1.0,1.0,1.0,
520,0.0,decreament,0.6,100.0,standard,1.0,1.0,1.0,
521,0.0,decreament,0.6,100.0,standard,1.0,1.0,1.0,
522,0.0,decreament,0.6,100.0,standard,1.0,1.0,1.0,
523,0.0,decreament,0.6,100.0,standard,1.0,1.0,1.0,
524,0.0,decreament,0.6,100.0,standard,1.0,1.0,1.0,
525,0.0,decreament,0.48,80.0,oddball,4.0,1.0,0.0,
526,0.0,decreament,0.6,100.0,standard,1.0,1.0,1.0,
527,0.0,decreament,0.6,100.0,standard,1.0,1.0,1.0,
528,0.0,decreament,0.6,100.0,standard,1.0,1.0,1.0,
529,0.0,decreament,0.6,100.0,standard,1.0,1.0,1.0,
530,0.0,decreament,0.6,100.0,standard,1.0,1.0,1.0,
531,0.0,decreament,0.6,100.0,standard,1.0,1.0,1.0,
532,0.0,decreament,0.6,100.0,standard,1.0,1.0,1.0,
533,0.0,decreament,0.6,100.0,standard,1.0,1.0,1.0,
534,0.0,decreament,0.6,100.0,standard,1.0,1.0,1.0,
535,0.0,decreament,0.36,60.0,oddball,3.0,1.0,1.0,0.9362886999733746
536,0.0,decreament,0.6,100.0,standard,1.0,1.0,1.0,
537,0.0,decreament,0.6,100.0,standard,1.0,1.0,1.0,
538,0.0,decreament,0.6,100.0,standard,1.0,1.0,1.0,
539,0.0,decreament,0.6,100.0,standard,1.0,1.0,1.0,
540,0.0,increament,0.6,100.0,standard,5.0,1.0,1.0,
541,0.0,increament,0.6,100.0,standard,5.0,1.0,1.0,
542,0.0,increament,0.6,100.0,standard,5.0,1.0,1.0,
543,0.0,increament,0.6,100.0,standard,5.0,1.0,1.0,
544,0.0,increament,0.6,100.0,standard,5.0,1.0,1.0,
545,0.0,increament,0.6,100.0,standard,5.0,1.0,1.0,
546,0.0,increament,0.6,100.0,standard,5.0,1.0,1.0,
547,0.0,increament,0.96,160.0,oddball,8.0,1.0,0.0,
548,0.0,increament,0.6,100.0,standard,5.0,1.0,1.0,
549,0.0,increament,0.6,100.0,standard,5.0,1.0,1.0,
550,0.0,increament,0.6,100.0,standard,5.0,1.0,1.0,
551,0.0,increament,0.6,100.0,standard,5.0,1.0,1.0,
552,0.0,increament,0.84,140.0,oddball,7.0,1.0,1.0,0.6236610002815723
553,0.0,increament,0.6,100.0,standard,5.0,1.0,1.0,
554,0.0,increament,0.6,100.0,standard,5.0,1.0,1.0,
555,0.0,increament,0.6,100.0,standard,5.0,1.0,1.0,
556,0.0,increament,0.6,100.0,standard,5.0,1.0,1.0,
557,0.0,increament,0.6,100.0,standard,5.0,1.0,1.0,
558,0.0,increament,0.6,100.0,standard,5.0,1.0,1.0,
559,0.0,increament,0.6,100.0,standard,5.0,1.0,1.0,
560,0.0,increament,0.6,100.0,standard,5.0,1.0,1.0,
561,0.0,increament,0.6,100.0,standard,5.0,1.0,1.0,
562,0.0,increament,0.6,100.0,standard,5.0,1.0,1.0,
563,0.0,increament,0.6,100.0,standard,5.0,1.0,1.0,
564,0.0,increament,0.6,100.0,standard,5.0,1.0,1.0,
565,0.0,increament,0.72,120.0,oddball,6.0,1.0,0.0,
566,0.0,increament,0.6,100.0,standard,5.0,1.0,1.0,
567,0.0,increament,0.6,100.0,standard,5.0,1.0,1.0,
568,0.0,increament,0.6,100.0,standard,5.0,1.0,1.0,
569,0.0,increament,0.6,100.0,standard,5.0,1.0,1.0,
570,0.0,decreament,0.6,100.0,standard,1.0,1.0,1.0,
571,0.0,decreament,0.6,100.0,standard,1.0,1.0,1.0,
572,0.0,decreament,0.6,100.0,standard,1.0,1.0,1.0,
573,0.0,decreament,0.6,100.0,standard,1.0,1.0,1.0,
574,0.0,decreament,0.6,100.0,standard,1.0,1.0,1.0,
575,0.0,decreament,0.6,100.0,standard,1.0,1.0,1.0,
576,0.0,decreament,0.24,40.0,oddball,2.0,1.0,1.0,0.7488371003419161
577,0.0,decreament,0.6,100.0,standard,1.0,1.0,1.0,
578,0.0,decreament,0.6,100.0,standard,1.0,1.0,1.0,
579,0.0,decreament,0.6,100.0,standard,1.0,1.0,1.0,
580,0.0,decreament,0.36,60.0,oddball,3.0,1.0,1.0,0.908358400221914
581,0.0,decreament,0.6,100.0,standard,1.0,1.0,1.0,
582,0.0,decreament,0.6,100.0,standard,1.0,1.0,1.0,
583,0.0,decreament,0.6,100.0,standard,1.0,1.0,1.0,
584,0.0,decreament,0.6,100.0,standard,1.0,1.0,1.0,
585,0.0,decreament,0.6,100.0,standard,1.0,1.0,1.0,
586,0.0,decreament,0.6,100.0,standard,1.0,1.0,1.0,
587,0.0,decreament,0.6,100.0,standard,1.0,1.0,1.0,
588,0.0,decreament,0.6,100.0,standard,1.0,1.0,1.0,
589,0.0,decreament,0.6,100.0,standard,1.0,1.0,1.0,
590,0.0,decreament,0.6,100.0,standard,1.0,1.0,1.0,
591,0.0,decreament,0.6,100.0,standard,1.0,1.0,1.0,
592,0.0,decreament,0.6,100.0,standard,1.0,1.0,1.0,
593,0.0,decreament,0.6,100.0,standard,1.0,1.0,1.0,
594,0.0,decreament,0.6,100.0,standard,1.0,1.0,1.0,
595,0.0,decreament,0.6,100.0,standard,1.0,1.0,1.0,
596,0.0,decreament,0.6,100.0,standard,1.0,1.0,1.0,
597,0.0,decreament,0.6,100.0,standard,1.0,1.0,1.0,
598,0.0,decreament,0.48,80.0,oddball,4.0,1.0,0.0,
599,0.0,decreament,0.6,100.0,standard,1.0,1.0,1.0,
600,5.0,increament,0.6,100.0,standard,15.0,2.0,1.0,
601,5.0,increament,0.6,100.0,standard,15.0,2.0,1.0,
602,5.0,increament,0.6,100.0,standard,15.0,2.0,1.0,
603,5.0,increament,0.6,100.0,standard,15.0,2.0,1.0,
604,5.0,increament,0.6,100.0,standard,15.0,2.0,1.0,
605,5.0,increament,0.72,120.0,oddball,16.0,2.0,0.0,
606,5.0,increament,0.6,100.0,standard,15.0,2.0,1.0,
607,5.0,increament,0.6,100.0,standard,15.0,2.0,1.0,
608,5.0,increament,0.6,100.0,standard,15.0,2.0,1.0,
609,5.0,increament,0.6,100.0,standard,15.0,2.0,1.0,
610,5.0,increament,0.96,160.0,oddball,18.0,2.0,1.0,1.1057874001562595
611,5.0,increament,0.6,100.0,standard,15.0,2.0,1.0,
612,5.0,increament,0.6,100.0,standard,15.0,2.0,1.0,
613,5.0,increament,0.6,100.0,standard,15.0,2.0,1.0,
614,5.0,increament,0.6,100.0,standard,15.0,2.0,1.0,
615,5.0,increament,0.6,100.0,standard,15.0,2.0,1.0,
616,5.0,increament,0.6,100.0,standard,15.0,2.0,1.0,
617,5.0,increament,0.84,140.0,oddball,17.0,2.0,0.0,
618,5.0,increament,0.6,100.0,standard,15.0,2.0,1.0,
619,5.0,increament,0.6,100.0,standard,15.0,2.0,1.0,
620,5.0,increament,0.6,100.0,standard,15.0,2.0,1.0,
621,5.0,increament,0.6,100.0,standard,15.0,2.0,1.0,
622,5.0,increament,0.6,100.0,standard,15.0,2.0,1.0,
623,5.0,increament,0.6,100.0,standard,15.0,2.0,1.0,
624,5.0,increament,0.6,100.0,standard,15.0,2.0,1.0,
625,5.0,increament,0.6,100.0,standard,15.0,2.0,1.0,
626,5.0,increament,0.6,100.0,standard,15.0,2.0,1.0,
627,5.0,increament,0.6,100.0,standard,15.0,2.0,1.0,
628,5.0,increament,0.6,100.0,standard,15.0,2.0,1.0,
629,5.0,increament,0.6,100.0,standard,15.0,2.0,1.0,
630,5.0,decreament,0.6,100.0,standard,11.0,2.0,1.0,
631,5.0,decreament,0.6,100.0,standard,11.0,2.0,1.0,
632,5.0,decreament,0.6,100.0,standard,11.0,2.0,1.0,
633,5.0,decreament,0.6,100.0,standard,11.0,2.0,1.0,
634,5.0,decreament,0.6,100.0,standard,11.0,2.0,1.0,
635,5.0,decreament,0.6,100.0,standard,11.0,2.0,1.0,
636,5.0,decreament,0.6,100.0,standard,11.0,2.0,1.0,
637,5.0,decreament,0.6,100.0,standard,11.0,2.0,1.0,
638,5.0,decreament,0.6,100.0,standard,11.0,2.0,1.0,
639,5.0,decreament,0.48,80.0,oddball,14.0,2.0,0.0,
640,5.0,decreament,0.6,100.0,standard,11.0,2.0,1.0,
641,5.0,decreament,0.6,100.0,standard,11.0,2.0,1.0,
642,5.0,decreament,0.6,100.0,standard,11.0,2.0,1.0,
643,5.0,decreament,0.6,100.0,standard,11.0,2.0,1.0,
644,5.0,decreament,0.6,100.0,standard,11.0,2.0,1.0,
645,5.0,decreament,0.6,100.0,standard,11.0,2.0,1.0,
646,5.0,decreament,0.6,100.0,standard,11.0,2.0,1.0,
647,5.0,decreament,0.6,100.0,standard,11.0,2.0,1.0,
648,5.0,decreament,0.6,100.0,standard,11.0,2.0,1.0,
649,5.0,decreament,0.24,40.0,oddball,12.0,2.0,1.0,0.850309600122273
650,5.0,decreament,0.6,100.0,standard,11.0,2.0,1.0,
651,5.0,decreament,0.6,100.0,standard,11.0,2.0,1.0,
652,5.0,decreament,0.6,100.0,standard,11.0,2.0,1.0,
653,5.0,decreament,0.6,100.0,standard,11.0,2.0,1.0,
654,5.0,decreament,0.6,100.0,standard,11.0,2.0,1.0,
655,5.0,decreament,0.6,100.0,standard,11.0,2.0,1.0,
656,5.0,decreament,0.6,100.0,standard,11.0,2.0,1.0,
657,5.0,decreament,0.6,100.0,standard,11.0,2.0,1.0,
658,5.0,decreament,0.6,100.0,standard,11.0,2.0,1.0,
659,5.0,decreament,0.36,60.0,oddball,13.0,2.0,1.0,0.7718751998618245
660,5.0,increament,0.6,100.0,standard,15.0,2.0,1.0,
661,5.0,increament,0.6,100.0,standard,15.0,2.0,1.0,
662,5.0,increament,0.6,100.0,standard,15.0,2.0,1.0,
663,5.0,increament,0.6,100.0,standard,15.0,2.0,1.0,
664,5.0,increament,0.6,100.0,standard,15.0,2.0,1.0,
665,5.0,increament,0.6,100.0,standard,15.0,2.0,1.0,
666,5.0,increament,0.6,100.0,standard,15.0,2.0,1.0,
667,5.0,increament,0.6,100.0,standard,15.0,2.0,1.0,
668,5.0,increament,0.6,100.0,standard,15.0,2.0,1.0,
669,5.0,increament,0.6,100.0,standard,15.0,2.0,1.0,
670,5.0,increament,0.6,100.0,standard,15.0,2.0,1.0,
671,5.0,increament,0.96,160.0,oddball,18.0,2.0,1.0,0.8519091000780463
672,5.0,increament,0.6,100.0,standard,15.0,2.0,1.0,
673,5.0,increament,0.6,100.0,standard,15.0,2.0,1.0,
674,5.0,increament,0.6,100.0,standard,15.0,2.0,1.0,
675,5.0,increament,0.6,100.0,standard,15.0,2.0,1.0,
676,5.0,increament,0.6,100.0,standard,15.0,2.0,1.0,
677,5.0,increament,0.6,100.0,standard,15.0,2.0,1.0,
678,5.0,increament,0.6,100.0,standard,15.0,2.0,1.0,
679,5.0,increament,0.72,120.0,oddball,16.0,2.0,0.0,
680,5.0,increament,0.6,100.0,standard,15.0,2.0,1.0,
681,5.0,increament,0.6,100.0,standard,15.0,2.0,1.0,
682,5.0,increament,0.6,100.0,standard,15.0,2.0,1.0,
683,5.0,increament,0.6,100.0,standard,15.0,2.0,1.0,
684,5.0,increament,0.6,100.0,standard,15.0,2.0,1.0,
685,5.0,increament,0.6,100.0,standard,15.0,2.0,1.0,
686,5.0,increament,0.6,100.0,standard,15.0,2.0,1.0,
687,5.0,increament,0.6,100.0,standard,15.0,2.0,1.0,
688,5.0,increament,0.6,100.0,standard,15.0,2.0,1.0,
689,5.0,increament,0.84,140.0,oddball,17.0,2.0,0.0,
690,5.0,decreament,0.6,100.0,standard,11.0,2.0,1.0,
691,5.0,decreament,0.6,100.0,standard,11.0,2.0,1.0,
692,5.0,decreament,0.6,100.0,standard,11.0,2.0,1.0,
693,5.0,decreament,0.6,100.0,standard,11.0,2.0,1.0,
694,5.0,decreament,0.6,100.0,standard,11.0,2.0,1.0,
695,5.0,decreament,0.6,100.0,standard,11.0,2.0,1.0,
696,5.0,decreament,0.6,100.0,standard,11.0,2.0,1.0,
697,5.0,decreament,0.6,100.0,standard,11.0,2.0,1.0,
698,5.0,decreament,0.6,100.0,standard,11.0,2.0,1.0,
699,5.0,decreament,0.36,60.0,oddball,13.0,2.0,1.0,0.8305770005099475
700,5.0,decreament,0.6,100.0,standard,11.0,2.0,1.0,
701,5.0,decreament,0.6,100.0,standard,11.0,2.0,1.0,
702,5.0,decreament,0.6,100.0,standard,11.0,2.0,1.0,
703,5.0,decreament,0.6,100.0,standard,11.0,2.0,1.0,
704,5.0,decreament,0.6,100.0,standard,11.0,2.0,1.0,
705,5.0,decreament,0.48,80.0,oddball,14.0,2.0,0.0,
706,5.0,decreament,0.6,100.0,standard,11.0,2.0,1.0,
707,5.0,decreament,0.6,100.0,standard,11.0,2.0,1.0,
708,5.0,decreament,0.6,100.0,standard,11.0,2.0,1.0,
709,5.0,decreament,0.6,100.0,standard,11.0,2.0,1.0,
710,5.0,decreament,0.6,100.0,standard,11.0,2.0,1.0,
711,5.0,decreament,0.6,100.0,standard,11.0,2.0,1.0,
712,5.0,decreament,0.6,100.0,standard,11.0,2.0,1.0,
713,5.0,decreament,0.6,100.0,standard,11.0,2.0,1.0,
714,5.0,decreament,0.6,100.0,standard,11.0,2.0,1.0,
715,5.0,decreament,0.6,100.0,standard,11.0,2.0,1.0,
716,5.0,decreament,0.6,100.0,standard,11.0,2.0,1.0,
717,5.0,decreament,0.24,40.0,oddball,12.0,2.0,1.0,0.8065234003588557
718,5.0,decreament,0.6,100.0,standard,11.0,2.0,1.0,
719,5.0,decreament,0.6,100.0,standard,11.0,2.0,1.0,
720,5.0,increament,0.6,100.0,standard,15.0,2.0,1.0,
721,5.0,increament,0.6,100.0,standard,15.0,2.0,1.0,
722,5.0,increament,0.6,100.0,standard,15.0,2.0,1.0,
723,5.0,increament,0.6,100.0,standard,15.0,2.0,1.0,
724,5.0,increament,0.6,100.0,standard,15.0,2.0,1.0,
725,5.0,increament,0.6,100.0,standard,15.0,2.0,1.0,
726,5.0,increament,0.84,140.0,oddball,17.0,2.0,1.0,0.7740739001892507
727,5.0,increament,0.6,100.0,standard,15.0,2.0,1.0,
728,5.0,increament,0.6,100.0,standard,15.0,2.0,1.0,
729,5.0,increament,0.6,100.0,standard,15.0,2.0,1.0,
730,5.0,increament,0.6,100.0,standard,15.0,2.0,1.0,
731,5.0,increament,0.6,100.0,standard,15.0,2.0,1.0,
732,5.0,increament,0.6,100.0,standard,15.0,2.0,1.0,
733,5.0,increament,0.6,100.0,standard,15.0,2.0,1.0,
734,5.0,increament,0.6,100.0,standard,15.0,2.0,1.0,
735,5.0,increament,0.6,100.0,standard,15.0,2.0,1.0,
736,5.0,increament,0.6,100.0,standard,15.0,2.0,1.0,
737,5.0,increament,0.96,160.0,oddball,18.0,2.0,1.0,0.4202171000652015
738,5.0,increament,0.6,100.0,standard,15.0,2.0,1.0,
739,5.0,increament,0.6,100.0,standard,15.0,2.0,1.0,
740,5.0,increament,0.6,100.0,standard,15.0,2.0,1.0,
741,5.0,increament,0.6,100.0,standard,15.0,2.0,1.0,
742,5.0,increament,0.6,100.0,standard,15.0,2.0,1.0,
743,5.0,increament,0.6,100.0,standard,15.0,2.0,1.0,
744,5.0,increament,0.6,100.0,standard,15.0,2.0,1.0,
745,5.0,increament,0.6,100.0,standard,15.0,2.0,1.0,
746,5.0,increament,0.6,100.0,standard,15.0,2.0,1.0,
747,5.0,increament,0.6,100.0,standard,15.0,2.0,1.0,
748,5.0,increament,0.6,100.0,standard,15.0,2.0,1.0,
749,5.0,increament,0.72,120.0,oddball,16.0,2.0,0.0,
750,5.0,decreament,0.6,100.0,standard,11.0,2.0,1.0,
751,5.0,decreament,0.6,100.0,standard,11.0,2.0,1.0,
752,5.0,decreament,0.6,100.0,standard,11.0,2.0,1.0,
753,5.0,decreament,0.6,100.0,standard,11.0,2.0,1.0,
754,5.0,decreament,0.6,100.0,standard,11.0,2.0,1.0,
755,5.0,decreament,0.6,100.0,standard,11.0,2.0,1.0,
756,5.0,decreament,0.6,100.0,standard,11.0,2.0,1.0,
757,5.0,decreament,0.48,80.0,oddball,14.0,2.0,0.0,
758,5.0,decreament,0.6,100.0,standard,11.0,2.0,1.0,
759,5.0,decreament,0.6,100.0,standard,11.0,2.0,1.0,
760,5.0,decreament,0.6,100.0,standard,11.0,2.0,1.0,
761,5.0,decreament,0.6,100.0,standard,11.0,2.0,1.0,
762,5.0,decreament,0.6,100.0,standard,11.0,2.0,1.0,
763,5.0,decreament,0.6,100.0,standard,11.0,2.0,1.0,
764,5.0,decreament,0.6,100.0,standard,11.0,2.0,1.0,
765,5.0,decreament,0.6,100.0,standard,11.0,2.0,1.0,
766,5.0,decreament,0.6,100.0,standard,11.0,2.0,1.0,
767,5.0,decreament,0.6,100.0,standard,11.0,2.0,1.0,
768,5.0,decreament,0.24,40.0,oddball,12.0,2.0,1.0,0.7736195004545152
769,5.0,decreament,0.6,100.0,standard,11.0,2.0,1.0,
770,5.0,decreament,0.6,100.0,standard,11.0,2.0,1.0,
771,5.0,decreament,0.6,100.0,standard,11.0,2.0,1.0,
772,5.0,decreament,0.6,100.0,standard,11.0,2.0,1.0,
773,5.0,decreament,0.6,100.0,standard,11.0,2.0,1.0,
774,5.0,decreament,0.6,100.0,standard,11.0,2.0,1.0,
775,5.0,decreament,0.6,100.0,standard,11.0,2.0,1.0,
776,5.0,decreament,0.6,100.0,standard,11.0,2.0,1.0,
777,5.0,decreament,0.6,100.0,standard,11.0,2.0,1.0,
778,5.0,decreament,0.6,100.0,standard,11.0,2.0,1.0,
779,5.0,decreament,0.36,60.0,oddball,13.0,2.0,0.0,
780,5.0,increament,0.6,100.0,standard,15.0,2.0,1.0,
781,5.0,increament,0.6,100.0,standard,15.0,2.0,1.0,
782,5.0,increament,0.6,100.0,standard,15.0,2.0,1.0,
783,5.0,increament,0.6,100.0,standard,15.0,2.0,1.0,
784,5.0,increament,0.6,100.0,standard,15.0,2.0,1.0,
785,5.0,increament,0.96,160.0,oddball,18.0,2.0,1.0,0.7993283001706004
786,5.0,increament,0.6,100.0,standard,15.0,2.0,1.0,
787,5.0,increament,0.6,100.0,standard,15.0,2.0,1.0,
788,5.0,increament,0.6,100.0,standard,15.0,2.0,1.0,
789,5.0,increament,0.6,100.0,standard,15.0,2.0,1.0,
790,5.0,increament,0.6,100.0,standard,15.0,2.0,1.0,
791,5.0,increament,0.6,100.0,standard,15.0,2.0,1.0,
792,5.0,increament,0.6,100.0,standard,15.0,2.0,1.0,
793,5.0,increament,0.6,100.0,standard,15.0,2.0,1.0,
794,5.0,increament,0.6,100.0,standard,15.0,2.0,1.0,
795,5.0,increament,0.6,100.0,standard,15.0,2.0,1.0,
796,5.0,increament,0.6,100.0,standard,15.0,2.0,1.0,
797,5.0,increament,0.72,120.0,oddball,16.0,2.0,0.0,
798,5.0,increament,0.6,100.0,standard,15.0,2.0,1.0,
799,5.0,increament,0.6,100.0,standard,15.0,2.0,1.0,
800,5.0,increament,0.6,100.0,standard,15.0,2.0,1.0,
801,5.0,increament,0.6,100.0,standard,15.0,2.0,1.0,
802,5.0,increament,0.6,100.0,standard,15.0,2.0,1.0,
803,5.0,increament,0.6,100.0,standard,15.0,2.0,1.0,
804,5.0,increament,0.6,100.0,standard,15.0,2.0,1.0,
805,5.0,increament,0.6,100.0,standard,15.0,2.0,1.0,
806,5.0,increament,0.84,140.0,oddball,17.0,2.0,1.0,0.5891956002451479
807,5.0,increament,0.6,100.0,standard,15.0,2.0,1.0,
808,5.0,increament,0.6,100.0,standard,15.0,2.0,1.0,
809,5.0,increament,0.6,100.0,standard,15.0,2.0,1.0,
810,5.0,decreament,0.6,100.0,standard,11.0,2.0,1.0,
811,5.0,decreament,0.6,100.0,standard,11.0,2.0,1.0,
812,5.0,decreament,0.6,100.0,standard,11.0,2.0,1.0,
813,5.0,decreament,0.6,100.0,standard,11.0,2.0,1.0,
814,5.0,decreament,0.6,100.0,standard,11.0,2.0,1.0,
815,5.0,decreament,0.6,100.0,standard,11.0,2.0,1.0,
816,5.0,decreament,0.6,100.0,standard,11.0,2.0,1.0,
817,5.0,decreament,0.6,100.0,standard,11.0,2.0,1.0,
818,5.0,decreament,0.6,100.0,standard,11.0,2.0,1.0,
819,5.0,decreament,0.6,100.0,standard,11.0,2.0,1.0,
820,5.0,decreament,0.6,100.0,standard,11.0,2.0,1.0,
821,5.0,decreament,0.6,100.0,standard,11.0,2.0,1.0,
822,5.0,decreament,0.36,60.0,oddball,13.0,2.0,1.0,1.1324402005411685
823,5.0,decreament,0.6,100.0,standard,11.0,2.0,1.0,
824,5.0,decreament,0.6,100.0,standard,11.0,2.0,1.0,
825,5.0,decreament,0.6,100.0,standard,11.0,2.0,1.0,
826,5.0,decreament,0.6,100.0,standard,11.0,2.0,1.0,
827,5.0,decreament,0.6,100.0,standard,11.0,2.0,1.0,
828,5.0,decreament,0.48,80.0,oddball,14.0,2.0,1.0,1.061291000340134
829,5.0,decreament,0.6,100.0,standard,11.0,2.0,1.0,
830,5.0,decreament,0.6,100.0,standard,11.0,2.0,1.0,
831,5.0,decreament,0.6,100.0,standard,11.0,2.0,1.0,
832,5.0,decreament,0.6,100.0,standard,11.0,2.0,1.0,
833,5.0,decreament,0.6,100.0,standard,11.0,2.0,1.0,
834,5.0,decreament,0.6,100.0,standard,11.0,2.0,1.0,
835,5.0,decreament,0.24,40.0,oddball,12.0,2.0,1.0,0.8195977001450956
836,5.0,decreament,0.6,100.0,standard,11.0,2.0,1.0,
837,5.0,decreament,0.6,100.0,standard,11.0,2.0,1.0,
838,5.0,decreament,0.6,100.0,standard,11.0,2.0,1.0,
839,5.0,decreament,0.6,100.0,standard,11.0,2.0,1.0,
840,5.0,increament,0.6,100.0,standard,15.0,2.0,1.0,
841,5.0,increament,0.6,100.0,standard,15.0,2.0,1.0,
842,5.0,increament,0.6,100.0,standard,15.0,2.0,1.0,
843,5.0,increament,0.6,100.0,standard,15.0,2.0,1.0,
844,5.0,increament,0.6,100.0,standard,15.0,2.0,1.0,
845,5.0,increament,0.6,100.0,standard,15.0,2.0,1.0,
846,5.0,increament,0.6,100.0,standard,15.0,2.0,1.0,
847,5.0,increament,0.6,100.0,standard,15.0,2.0,1.0,
848,5.0,increament,0.6,100.0,standard,15.0,2.0,1.0,
849,5.0,increament,0.6,100.0,standard,15.0,2.0,1.0,
850,5.0,increament,0.96,160.0,oddball,18.0,2.0,0.0,
851,5.0,increament,0.6,100.0,standard,15.0,2.0,1.0,
852,5.0,increament,0.6,100.0,standard,15.0,2.0,1.0,
853,5.0,increament,0.6,100.0,standard,15.0,2.0,1.0,
854,5.0,increament,0.6,100.0,standard,15.0,2.0,1.0,
855,5.0,increament,0.6,100.0,standard,15.0,2.0,1.0,
856,5.0,increament,0.72,120.0,oddball,16.0,2.0,0.0,
857,5.0,increament,0.6,100.0,standard,15.0,2.0,1.0,
858,5.0,increament,0.6,100.0,standard,15.0,2.0,1.0,
859,5.0,increament,0.6,100.0,standard,15.0,2.0,1.0,
860,5.0,increament,0.6,100.0,standard,15.0,2.0,1.0,
861,5.0,increament,0.6,100.0,standard,15.0,2.0,1.0,
862,5.0,increament,0.6,100.0,standard,15.0,2.0,1.0,
863,5.0,increament,0.6,100.0,standard,15.0,2.0,1.0,
864,5.0,increament,0.6,100.0,standard,15.0,2.0,1.0,
865,5.0,increament,0.6,100.0,standard,15.0,2.0,1.0,
866,5.0,increament,0.6,100.0,standard,15.0,2.0,1.0,
867,5.0,increament,0.6,100.0,standard,15.0,2.0,1.0,
868,5.0,increament,0.6,100.0,standard,15.0,2.0,1.0,
869,5.0,increament,0.84,140.0,oddball,17.0,2.0,1.0,0.6109923999756575
870,5.0,decreament,0.6,100.0,standard,11.0,2.0,1.0,
871,5.0,decreament,0.6,100.0,standard,11.0,2.0,1.0,
872,5.0,decreament,0.6,100.0,standard,11.0,2.0,1.0,
873,5.0,decreament,0.6,100.0,standard,11.0,2.0,1.0,
874,5.0,decreament,0.6,100.0,standard,11.0,2.0,1.0,
875,5.0,decreament,0.6,100.0,standard,11.0,2.0,1.0,
876,5.0,decreament,0.6,100.0,standard,11.0,2.0,1.0,
877,5.0,decreament,0.6,100.0,standard,11.0,2.0,1.0,
878,5.0,decreament,0.6,100.0,standard,11.0,2.0,1.0,
879,5.0,decreament,0.6,100.0,standard,11.0,2.0,1.0,
880,5.0,decreament,0.6,100.0,standard,11.0,2.0,1.0,
881,5.0,decreament,0.6,100.0,standard,11.0,2.0,1.0,
882,5.0,decreament,0.6,100.0,standard,11.0,2.0,1.0,
883,5.0,decreament,0.6,100.0,standard,11.0,2.0,1.0,
884,5.0,decreament,0.6,100.0,standard,11.0,2.0,1.0,
885,5.0,decreament,0.6,100.0,standard,11.0,2.0,1.0,
886,5.0,decreament,0.6,100.0,standard,11.0,2.0,1.0,
887,5.0,decreament,0.6,100.0,standard,11.0,2.0,1.0,
888,5.0,decreament,0.6,100.0,standard,11.0,2.0,1.0,
889,5.0,decreament,0.6,100.0,standard,11.0,2.0,1.0,
890,5.0,decreament,0.36,60.0,oddball,13.0,2.0,1.0,0.7234966000542045
891,5.0,decreament,0.6,100.0,standard,11.0,2.0,1.0,
892,5.0,decreament,0.6,100.0,standard,11.0,2.0,1.0,
893,5.0,decreament,0.6,100.0,standard,11.0,2.0,1.0,
894,5.0,decreament,0.48,80.0,oddball,14.0,2.0,0.0,
895,5.0,decreament,0.6,100.0,standard,11.0,2.0,1.0,
896,5.0,decreament,0.6,100.0,standard,11.0,2.0,1.0,
897,5.0,decreament,0.6,100.0,standard,11.0,2.0,1.0,
898,5.0,decreament,0.24,40.0,oddball,12.0,2.0,1.0,0.7259727003984153
899,5.0,decreament,0.6,100.0,standard,11.0,2.0,1.0,
900,10.0,increament,0.6,100.0,standard,25.0,3.0,1.0,
901,10.0,increament,0.6,100.0,standard,25.0,3.0,1.0,
902,10.0,increament,0.6,100.0,standard,25.0,3.0,1.0,
903,10.0,increament,0.6,100.0,standard,25.0,3.0,1.0,
904,10.0,increament,0.6,100.0,standard,25.0,3.0,1.0,
905,10.0,increament,0.6,100.0,standard,25.0,3.0,1.0,
906,10.0,increament,0.84,140.0,oddball,27.0,3.0,1.0,0.7021957002580166
907,10.0,increament,0.6,100.0,standard,25.0,3.0,1.0,
908,10.0,increament,0.6,100.0,standard,25.0,3.0,1.0,
909,10.0,increament,0.6,100.0,standard,25.0,3.0,1.0,
910,10.0,increament,0.6,100.0,standard,25.0,3.0,1.0,
911,10.0,increament,0.6,100.0,standard,25.0,3.0,1.0,
912,10.0,increament,0.6,100.0,standard,25.0,3.0,1.0,
913,10.0,increament,0.6,100.0,standard,25.0,3.0,1.0,
914,10.0,increament,0.6,100.0,standard,25.0,3.0,1.0,
915,10.0,increament,0.6,100.0,standard,25.0,3.0,1.0,
916,10.0,increament,0.6,100.0,standard,25.0,3.0,1.0,
917,10.0,increament,0.6,100.0,standard,25.0,3.0,1.0,
918,10.0,increament,0.72,120.0,oddball,26.0,3.0,0.0,
919,10.0,increament,0.6,100.0,standard,25.0,3.0,1.0,
920,10.0,increament,0.6,100.0,standard,25.0,3.0,1.0,
921,10.0,increament,0.6,100.0,standard,25.0,3.0,1.0,
922,10.0,increament,0.6,100.0,standard,25.0,3.0,1.0,
923,10.0,increament,0.6,100.0,standard,25.0,3.0,1.0,
924,10.0,increament,0.96,160.0,oddball,28.0,3.0,1.0,0.7363201002590358
925,10.0,increament,0.6,100.0,standard,25.0,3.0,1.0,
926,10.0,increament,0.6,100.0,standard,25.0,3.0,1.0,
927,10.0,increament,0.6,100.0,standard,25.0,3.0,1.0,
928,10.0,increament,0.6,100.0,standard,25.0,3.0,1.0,
929,10.0,increament,0.6,100.0,standard,25.0,3.0,1.0,
930,10.0,decreament,0.6,100.0,standard,21.0,3.0,1.0,
931,10.0,decreament,0.6,100.0,standard,21.0,3.0,1.0,
932,10.0,decreament,0.6,100.0,standard,21.0,3.0,1.0,
933,10.0,decreament,0.6,100.0,standard,21.0,3.0,1.0,
934,10.0,decreament,0.6,100.0,standard,21.0,3.0,1.0,
935,10.0,decreament,0.6,100.0,standard,21.0,3.0,1.0,
936,10.0,decreament,0.6,100.0,standard,21.0,3.0,1.0,
937,10.0,decreament,0.6,100.0,standard,21.0,3.0,1.0,
938,10.0,decreament,0.6,100.0,standard,21.0,3.0,1.0,
939,10.0,decreament,0.6,100.0,standard,21.0,3.0,1.0,
940,10.0,decreament,0.6,100.0,standard,21.0,3.0,1.0,
941,10.0,decreament,0.6,100.0,standard,21.0,3.0,1.0,
942,10.0,decreament,0.24,40.0,oddball,22.0,3.0,1.0,0.7970622004941106
943,10.0,decreament,0.6,100.0,standard,21.0,3.0,1.0,
944,10.0,decreament,0.6,100.0,standard,21.0,3.0,1.0,
945,10.0,decreament,0.6,100.0,standard,21.0,3.0,1.0,
946,10.0,decreament,0.6,100.0,standard,21.0,3.0,1.0,
947,10.0,decreament,0.6,100.0,standard,21.0,3.0,1.0,
948,10.0,decreament,0.6,100.0,standard,21.0,3.0,1.0,
949,10.0,decreament,0.48,80.0,oddball,24.0,3.0,0.0,
950,10.0,decreament,0.6,100.0,standard,21.0,3.0,1.0,
951,10.0,decreament,0.6,100.0,standard,21.0,3.0,1.0,
952,10.0,decreament,0.6,100.0,standard,21.0,3.0,1.0,
953,10.0,decreament,0.6,100.0,standard,21.0,3.0,1.0,
954,10.0,decreament,0.6,100.0,standard,21.0,3.0,1.0,
955,10.0,decreament,0.6,100.0,standard,21.0,3.0,1.0,
956,10.0,decreament,0.36,60.0,oddball,23.0,3.0,1.0,1.1328947003930807
957,10.0,decreament,0.6,100.0,standard,21.0,3.0,1.0,
958,10.0,decreament,0.6,100.0,standard,21.0,3.0,1.0,
959,10.0,decreament,0.6,100.0,standard,21.0,3.0,1.0,
960,10.0,increament,0.6,100.0,standard,25.0,3.0,1.0,
961,10.0,increament,0.6,100.0,standard,25.0,3.0,1.0,
962,10.0,increament,0.6,100.0,standard,25.0,3.0,1.0,
963,10.0,increament,0.6,100.0,standard,25.0,3.0,1.0,
964,10.0,increament,0.6,100.0,standard,25.0,3.0,1.0,
965,10.0,increament,0.6,100.0,standard,25.0,3.0,1.0,
966,10.0,increament,0.6,100.0,standard,25.0,3.0,1.0,
967,10.0,increament,0.6,100.0,standard,25.0,3.0,1.0,
968,10.0,increament,0.6,100.0,standard,25.0,3.0,1.0,
969,10.0,increament,0.96,160.0,oddball,28.0,3.0,1.0,0.4801230002194643
970,10.0,increament,0.6,100.0,standard,25.0,3.0,1.0,
971,10.0,increament,0.6,100.0,standard,25.0,3.0,1.0,
972,10.0,increament,0.6,100.0,standard,25.0,3.0,1.0,
973,10.0,increament,0.6,100.0,standard,25.0,3.0,1.0,
974,10.0,increament,0.6,100.0,standard,25.0,3.0,1.0,
975,10.0,increament,0.6,100.0,standard,25.0,3.0,1.0,
976,10.0,increament,0.72,120.0,oddball,26.0,3.0,0.0,
977,10.0,increament,0.6,100.0,standard,25.0,3.0,1.0,
978,10.0,increament,0.6,100.0,standard,25.0,3.0,1.0,
979,10.0,increament,0.6,100.0,standard,25.0,3.0,1.0,
980,10.0,increament,0.6,100.0,standard,25.0,3.0,1.0,
981,10.0,increament,0.6,100.0,standard,25.0,3.0,1.0,
982,10.0,increament,0.6,100.0,standard,25.0,3.0,1.0,
983,10.0,increament,0.6,100.0,standard,25.0,3.0,1.0,
984,10.0,increament,0.84,140.0,oddball,27.0,3.0,1.0,0.6313772001303732
985,10.0,increament,0.6,100.0,standard,25.0,3.0,1.0,
986,10.0,increament,0.6,100.0,standard,25.0,3.0,1.0,
987,10.0,increament,0.6,100.0,standard,25.0,3.0,1.0,
988,10.0,increament,0.6,100.0,standard,25.0,3.0,1.0,
989,10.0,increament,0.6,100.0,standard,25.0,3.0,1.0,
990,10.0,decreament,0.6,100.0,standard,21.0,3.0,1.0,
991,10.0,decreament,0.6,100.0,standard,21.0,3.0,1.0,
992,10.0,decreament,0.6,100.0,standard,21.0,3.0,1.0,
993,10.0,decreament,0.6,100.0,standard,21.0,3.0,1.0,
994,10.0,decreament,0.6,100.0,standard,21.0,3.0,1.0,
995,10.0,decreament,0.6,100.0,standard,21.0,3.0,1.0,
996,10.0,decreament,0.6,100.0,standard,21.0,3.0,1.0,
997,10.0,decreament,0.6,100.0,standard,21.0,3.0,1.0,
998,10.0,decreament,0.6,100.0,standard,21.0,3.0,1.0,
999,10.0,decreament,0.6,100.0,standard,21.0,3.0,1.0,
1000,10.0,decreament,0.6,100.0,standard,21.0,3.0,1.0,
1001,10.0,decreament,0.6,100.0,standard,21.0,3.0,1.0,
1002,10.0,decreament,0.6,100.0,standard,21.0,3.0,1.0,
1003,10.0,decreament,0.36,60.0,oddball,23.0,3.0,0.0,
1004,10.0,decreament,0.6,100.0,standard,21.0,3.0,1.0,
1005,10.0,decreament,0.6,100.0,standard,21.0,3.0,1.0,
1006,10.0,decreament,0.6,100.0,standard,21.0,3.0,1.0,
1007,10.0,decreament,0.24,40.0,oddball,22.0,3.0,1.0,0.7596884001977742
1008,10.0,decreament,0.6,100.0,standard,21.0,3.0,1.0,
1009,10.0,decreament,0.6,100.0,standard,21.0,3.0,1.0,
1010,10.0,decreament,0.6,100.0,standard,21.0,3.0,1.0,
1011,10.0,decreament,0.6,100.0,standard,21.0,3.0,1.0,
1012,10.0,decreament,0.6,100.0,standard,21.0,3.0,1.0,
1013,10.0,decreament,0.6,100.0,standard,21.0,3.0,1.0,
1014,10.0,decreament,0.48,80.0,oddball,24.0,3.0,0.0,
1015,10.0,decreament,0.6,100.0,standard,21.0,3.0,1.0,
1016,10.0,decreament,0.6,100.0,standard,21.0,3.0,1.0,
1017,10.0,decreament,0.6,100.0,standard,21.0,3.0,1.0,
1018,10.0,decreament,0.6,100.0,standard,21.0,3.0,1.0,
1019,10.0,decreament,0.6,100.0,standard,21.0,3.0,1.0,
1020,10.0,increament,0.6,100.0,standard,25.0,3.0,1.0,
1021,10.0,increament,0.6,100.0,standard,25.0,3.0,1.0,
1022,10.0,increament,0.6,100.0,standard,25.0,3.0,1.0,
1023,10.0,increament,0.6,100.0,standard,25.0,3.0,1.0,
1024,10.0,increament,0.6,100.0,standard,25.0,3.0,1.0,
1025,10.0,increament,0.6,100.0,standard,25.0,3.0,1.0,
1026,10.0,increament,0.72,120.0,oddball,26.0,3.0,0.0,
1027,10.0,increament,0.6,100.0,standard,25.0,3.0,1.0,
1028,10.0,increament,0.6,100.0,standard,25.0,3.0,1.0,
1029,10.0,increament,0.6,100.0,standard,25.0,3.0,1.0,
1030,10.0,increament,0.6,100.0,standard,25.0,3.0,1.0,
1031,10.0,increament,0.6,100.0,standard,25.0,3.0,1.0,
1032,10.0,increament,0.6,100.0,standard,25.0,3.0,1.0,
1033,10.0,increament,0.6,100.0,standard,25.0,3.0,1.0,
1034,10.0,increament,0.6,100.0,standard,25.0,3.0,1.0,
1035,10.0,increament,0.6,100.0,standard,25.0,3.0,1.0,
1036,10.0,increament,0.6,100.0,standard,25.0,3.0,1.0,
1037,10.0,increament,0.84,140.0,oddball,27.0,3.0,0.0,
1038,10.0,increament,0.6,100.0,standard,25.0,3.0,1.0,
1039,10.0,increament,0.6,100.0,standard,25.0,3.0,1.0,
1040,10.0,increament,0.6,100.0,standard,25.0,3.0,1.0,
1041,10.0,increament,0.6,100.0,standard,25.0,3.0,1.0,
1042,10.0,increament,0.6,100.0,standard,25.0,3.0,1.0,
1043,10.0,increament,0.6,100.0,standard,25.0,3.0,1.0,
1044,10.0,increament,0.6,100.0,standard,25.0,3.0,1.0,
1045,10.0,increament,0.6,100.0,standard,25.0,3.0,1.0,
1046,10.0,increament,0.96,160.0,oddball,28.0,3.0,1.0,0.5180546003393829
1047,10.0,increament,0.6,100.0,standard,25.0,3.0,1.0,
1048,10.0,increament,0.6,100.0,standard,25.0,3.0,1.0,
1049,10.0,increament,0.6,100.0,standard,25.0,3.0,1.0,
1050,10.0,decreament,0.6,100.0,standard,21.0,3.0,1.0,
1051,10.0,decreament,0.6,100.0,standard,21.0,3.0,1.0,
1052,10.0,decreament,0.6,100.0,standard,21.0,3.0,1.0,
1053,10.0,decreament,0.6,100.0,standard,21.0,3.0,1.0,
1054,10.0,decreament,0.6,100.0,standard,21.0,3.0,1.0,
1055,10.0,decreament,0.6,100.0,standard,21.0,3.0,1.0,
1056,10.0,decreament,0.24,40.0,oddball,22.0,3.0,1.0,0.8291428005322814
1057,10.0,decreament,0.6,100.0,standard,21.0,3.0,1.0,
1058,10.0,decreament,0.6,100.0,standard,21.0,3.0,1.0,
1059,10.0,decreament,0.6,100.0,standard,21.0,3.0,1.0,
1060,10.0,decreament,0.6,100.0,standard,21.0,3.0,1.0,
1061,10.0,decreament,0.6,100.0,standard,21.0,3.0,1.0,
1062,10.0,decreament,0.48,80.0,oddball,24.0,3.0,0.0,
1063,10.0,decreament,0.6,100.0,standard,21.0,3.0,1.0,
1064,10.0,decreament,0.6,100.0,standard,21.0,3.0,1.0,
1065,10.0,decreament,0.6,100.0,standard,21.0,3.0,1.0,
1066,10.0,decreament,0.6,100.0,standard,21.0,3.0,1.0,
1067,10.0,decreament,0.6,100.0,standard,21.0,3.0,1.0,
1068,10.0,decreament,0.6,100.0,standard,21.0,3.0,1.0,
1069,10.0,decreament,0.6,100.0,standard,21.0,3.0,1.0,
1070,10.0,decreament,0.6,100.0,standard,21.0,3.0,1.0,
1071,10.0,decreament,0.36,60.0,oddball,23.0,3.0,1.0,0.9275903003290296
1072,10.0,decreament,0.6,100.0,standard,21.0,3.0,1.0,
1073,10.0,decreament,0.6,100.0,standard,21.0,3.0,1.0,
1074,10.0,decreament,0.6,100.0,standard,21.0,3.0,1.0,
1075,10.0,decreament,0.6,100.0,standard,21.0,3.0,1.0,
1076,10.0,decreament,0.6,100.0,standard,21.0,3.0,1.0,
1077,10.0,decreament,0.6,100.0,standard,21.0,3.0,1.0,
1078,10.0,decreament,0.6,100.0,standard,21.0,3.0,1.0,
1079,10.0,decreament,0.6,100.0,standard,21.0,3.0,1.0,
1080,10.0,increament,0.6,100.0,standard,25.0,3.0,1.0,
1081,10.0,increament,0.6,100.0,standard,25.0,3.0,1.0,
1082,10.0,increament,0.6,100.0,standard,25.0,3.0,1.0,
1083,10.0,increament,0.6,100.0,standard,25.0,3.0,1.0,
1084,10.0,increament,0.6,100.0,standard,25.0,3.0,1.0,
1085,10.0,increament,0.6,100.0,standard,25.0,3.0,1.0,
1086,10.0,increament,0.6,100.0,standard,25.0,3.0,1.0,
1087,10.0,increament,0.6,100.0,standard,25.0,3.0,1.0,
1088,10.0,increament,0.6,100.0,standard,25.0,3.0,1.0,
1089,10.0,increament,0.6,100.0,standard,25.0,3.0,1.0,
1090,10.0,increament,0.6,100.0,standard,25.0,3.0,1.0,
1091,10.0,increament,0.6,100.0,standard,25.0,3.0,1.0,
1092,10.0,increament,0.6,100.0,standard,25.0,3.0,1.0,
1093,10.0,increament,0.6,100.0,standard,25.0,3.0,1.0,
1094,10.0,increament,0.6,100.0,standard,25.0,3.0,1.0,
1095,10.0,increament,0.96,160.0,oddball,28.0,3.0,1.0,0.6532580005005002
1096,10.0,increament,0.6,100.0,standard,25.0,3.0,1.0,
1097,10.0,increament,0.6,100.0,standard,25.0,3.0,1.0,
1098,10.0,increament,0.6,100.0,standard,25.0,3.0,1.0,
1099,10.0,increament,0.6,100.0,standard,25.0,3.0,1.0,
1100,10.0,increament,0.6,100.0,standard,25.0,3.0,1.0,
1101,10.0,increament,0.6,100.0,standard,25.0,3.0,1.0,
1102,10.0,increament,0.84,140.0,oddball,27.0,3.0,1.0,1.076282000169158
1103,10.0,increament,0.6,100.0,standard,25.0,3.0,1.0,
1104,10.0,increament,0.6,100.0,standard,25.0,3.0,1.0,
1105,10.0,increament,0.6,100.0,standard,25.0,3.0,1.0,
1106,10.0,increament,0.6,100.0,standard,25.0,3.0,1.0,
1107,10.0,increament,0.6,100.0,standard,25.0,3.0,1.0,
1108,10.0,increament,0.72,120.0,oddball,26.0,3.0,0.0,
1109,10.0,increament,0.6,100.0,standard,25.0,3.0,1.0,
1110,10.0,decreament,0.6,100.0,standard,21.0,3.0,1.0,
1111,10.0,decreament,0.6,100.0,standard,21.0,3.0,1.0,
1112,10.0,decreament,0.6,100.0,standard,21.0,3.0,1.0,
1113,10.0,decreament,0.6,100.0,standard,21.0,3.0,1.0,
1114,10.0,decreament,0.6,100.0,standard,21.0,3.0,1.0,
1115,10.0,decreament,0.6,100.0,standard,21.0,3.0,1.0,
1116,10.0,decreament,0.6,100.0,standard,21.0,3.0,1.0,
1117,10.0,decreament,0.6,100.0,standard,21.0,3.0,1.0,
1118,10.0,decreament,0.24,40.0,oddball,22.0,3.0,1.0,0.7026862003840506
1119,10.0,decreament,0.6,100.0,standard,21.0,3.0,1.0,
1120,10.0,decreament,0.6,100.0,standard,21.0,3.0,1.0,
1121,10.0,decreament,0.6,100.0,standard,21.0,3.0,1.0,
1122,10.0,decreament,0.6,100.0,standard,21.0,3.0,1.0,
1123,10.0,decreament,0.6,100.0,standard,21.0,3.0,1.0,
1124,10.0,decreament,0.6,100.0,standard,21.0,3.0,1.0,
1125,10.0,decreament,0.6,100.0,standard,21.0,3.0,1.0,
1126,10.0,decreament,0.6,100.0,standard,21.0,3.0,1.0,
1127,10.0,decreament,0.36,60.0,oddball,23.0,3.0,1.0,0.874399300199002
1128,10.0,decreament,0.6,100.0,standard,21.0,3.0,1.0,
1129,10.0,decreament,0.6,100.0,standard,21.0,3.0,1.0,
1130,10.0,decreament,0.6,100.0,standard,21.0,3.0,1.0,
1131,10.0,decreament,0.6,100.0,standard,21.0,3.0,1.0,
1132,10.0,decreament,0.6,100.0,standard,21.0,3.0,1.0,
1133,10.0,decreament,0.6,100.0,standard,21.0,3.0,1.0,
1134,10.0,decreament,0.6,100.0,standard,21.0,3.0,1.0,
1135,10.0,decreament,0.48,80.0,oddball,24.0,3.0,0.0,
1136,10.0,decreament,0.6,100.0,standard,21.0,3.0,1.0,
1137,10.0,decreament,0.6,100.0,standard,21.0,3.0,1.0,
1138,10.0,decreament,0.6,100.0,standard,21.0,3.0,1.0,
1139,10.0,decreament,0.6,100.0,standard,21.0,3.0,1.0,
1140,10.0,increament,0.6,100.0,standard,25.0,3.0,1.0,
1141,10.0,increament,0.6,100.0,standard,25.0,3.0,1.0,
1142,10.0,increament,0.6,100.0,standard,25.0,3.0,1.0,
1143,10.0,increament,0.6,100.0,standard,25.0,3.0,1.0,
1144,10.0,increament,0.6,100.0,standard,25.0,3.0,1.0,
1145,10.0,increament,0.84,140.0,oddball,27.0,3.0,1.0,0.6113319001160562
1146,10.0,increament,0.6,100.0,standard,25.0,3.0,1.0,
1147,10.0,increament,0.6,100.0,standard,25.0,3.0,1.0,
1148,10.0,increament,0.6,100.0,standard,25.0,3.0,1.0,
1149,10.0,increament,0.6,100.0,standard,25.0,3.0,1.0,
1150,10.0,increament,0.6,100.0,standard,25.0,3.0,1.0,
1151,10.0,increament,0.6,100.0,standard,25.0,3.0,1.0,
1152,10.0,increament,0.6,100.0,standard,25.0,3.0,1.0,
1153,10.0,increament,0.6,100.0,standard,25.0,3.0,1.0,
1154,10.0,increament,0.6,100.0,standard,25.0,3.0,1.0,
1155,10.0,increament,0.6,100.0,standard,25.0,3.0,1.0,
1156,10.0,increament,0.96,160.0,oddball,28.0,3.0,1.0,0.7901306003332138
1157,10.0,increament,0.6,100.0,standard,25.0,3.0,1.0,
1158,10.0,increament,0.6,100.0,standard,25.0,3.0,1.0,
1159,10.0,increament,0.6,100.0,standard,25.0,3.0,1.0,
1160,10.0,increament,0.6,100.0,standard,25.0,3.0,1.0,
1161,10.0,increament,0.6,100.0,standard,25.0,3.0,1.0,
1162,10.0,increament,0.6,100.0,standard,25.0,3.0,1.0,
1163,10.0,increament,0.6,100.0,standard,25.0,3.0,1.0,
1164,10.0,increament,0.6,100.0,standard,25.0,3.0,1.0,
1165,10.0,increament,0.6,100.0,standard,25.0,3.0,1.0,
1166,10.0,increament,0.72,120.0,oddball,26.0,3.0,0.0,
1167,10.0,increament,0.6,100.0,standard,25.0,3.0,1.0,
1168,10.0,increament,0.6,100.0,standard,25.0,3.0,1.0,
1169,10.0,increament,0.6,100.0,standard,25.0,3.0,1.0,
1170,10.0,decreament,0.6,100.0,standard,21.0,3.0,1.0,
1171,10.0,decreament,0.6,100.0,standard,21.0,3.0,1.0,
1172,10.0,decreament,0.6,100.0,standard,21.0,3.0,1.0,
1173,10.0,decreament,0.6,100.0,standard,21.0,3.0,1.0,
1174,10.0,decreament,0.6,100.0,standard,21.0,3.0,1.0,
1175,10.0,decreament,0.36,60.0,oddball,23.0,3.0,1.0,0.7577157001942396
1176,10.0,decreament,0.6,100.0,standard,21.0,3.0,1.0,
1177,10.0,decreament,0.6,100.0,standard,21.0,3.0,1.0,
1178,10.0,decreament,0.6,100.0,standard,21.0,3.0,1.0,
1179,10.0,decreament,0.6,100.0,standard,21.0,3.0,1.0,
1180,10.0,decreament,0.6,100.0,standard,21.0,3.0,0.0,1.0701349000446498
1181,10.0,decreament,0.6,100.0,standard,21.0,3.0,1.0,
1182,10.0,decreament,0.6,100.0,standard,21.0,3.0,1.0,
1183,10.0,decreament,0.6,100.0,standard,21.0,3.0,1.0,
1184,10.0,decreament,0.48,80.0,oddball,24.0,3.0,0.0,
1185,10.0,decreament,0.6,100.0,standard,21.0,3.0,1.0,
1186,10.0,decreament,0.6,100.0,standard,21.0,3.0,1.0,
1187,10.0,decreament,0.6,100.0,standard,21.0,3.0,1.0,
1188,10.0,decreament,0.6,100.0,standard,21.0,3.0,1.0,
1189,10.0,decreament,0.6,100.0,standard,21.0,3.0,1.0,
1190,10.0,decreament,0.6,100.0,standard,21.0,3.0,1.0,
1191,10.0,decreament,0.6,100.0,standard,21.0,3.0,1.0,
1192,10.0,decreament,0.6,100.0,standard,21.0,3.0,1.0,
1193,10.0,decreament,0.6,100.0,standard,21.0,3.0,1.0,
1194,10.0,decreament,0.6,100.0,standard,21.0,3.0,1.0,
1195,10.0,decreament,0.6,100.0,standard,21.0,3.0,1.0,
1196,10.0,decreament,0.24,40.0,oddball,22.0,3.0,1.0,0.6433009002357721
1197,10.0,decreament,0.6,100.0,standard,21.0,3.0,1.0,
1198,10.0,decreament,0.6,100.0,standard,21.0,3.0,1.0,
1199,10.0,decreament,0.6,100.0,standard,21.0,3.0,1.0,
