,grating_freq,direction,duration,scaling,stim_type,trigger,blocks.thisN,resp.corr,resp.rt
0,0.0,decreament,0.6,100.0,standard,1.0,0.0,1.0,
1,0.0,decreament,0.6,100.0,standard,1.0,0.0,1.0,
2,0.0,decreament,0.6,100.0,standard,1.0,0.0,1.0,
3,0.0,decreament,0.6,100.0,standard,1.0,0.0,1.0,
4,0.0,decreament,0.6,100.0,standard,1.0,0.0,1.0,
5,0.0,decreament,0.6,100.0,standard,1.0,0.0,1.0,
6,0.0,decreament,0.48,80.0,oddball,4.0,0.0,1.0,0.5218703000573441
7,0.0,decreament,0.6,100.0,standard,1.0,0.0,1.0,
8,0.0,decreament,0.6,100.0,standard,1.0,0.0,1.0,
9,0.0,decreament,0.6,100.0,standard,1.0,0.0,1.0,
10,0.0,decreament,0.6,100.0,standard,1.0,0.0,1.0,
11,0.0,decreament,0.6,100.0,standard,1.0,0.0,1.0,
12,0.0,decreament,0.6,100.0,standard,1.0,0.0,1.0,
13,0.0,decreament,0.6,100.0,standard,1.0,0.0,1.0,
14,0.0,decreament,0.6,100.0,standard,1.0,0.0,0.0,0.5005273000570014
15,0.0,decreament,0.6,100.0,standard,1.0,0.0,0.0,0.4861768999835476
16,0.0,decreament,0.36,60.0,oddball,3.0,0.0,1.0,0.7568999000359327
17,0.0,decreament,0.6,100.0,standard,1.0,0.0,1.0,
18,0.0,decreament,0.6,100.0,standard,1.0,0.0,1.0,
19,0.0,decreament,0.6,100.0,standard,1.0,0.0,1.0,
20,0.0,decreament,0.6,100.0,standard,1.0,0.0,1.0,
21,0.0,decreament,0.6,100.0,standard,1.0,0.0,1.0,
22,0.0,decreament,0.6,100.0,standard,1.0,0.0,1.0,
23,0.0,decreament,0.6,100.0,standard,1.0,0.0,0.0,0.9176138999173418
24,0.0,decreament,0.24,40.0,oddball,2.0,0.0,1.0,0.5039019000250846
25,0.0,decreament,0.6,100.0,standard,1.0,0.0,1.0,
26,0.0,decreament,0.6,100.0,standard,1.0,0.0,1.0,
27,0.0,decreament,0.6,100.0,standard,1.0,0.0,1.0,
28,0.0,decreament,0.6,100.0,standard,1.0,0.0,1.0,
29,0.0,decreament,0.6,100.0,standard,1.0,0.0,1.0,
30,0.0,increament,0.6,100.0,standard,5.0,0.0,1.0,
31,0.0,increament,0.6,100.0,standard,5.0,0.0,1.0,
32,0.0,increament,0.6,100.0,standard,5.0,0.0,1.0,
33,0.0,increament,0.6,100.0,standard,5.0,0.0,1.0,
34,0.0,increament,0.6,100.0,standard,5.0,0.0,1.0,
35,0.0,increament,0.6,100.0,standard,5.0,0.0,1.0,
36,0.0,increament,0.6,100.0,standard,5.0,0.0,1.0,
37,0.0,increament,0.6,100.0,standard,5.0,0.0,1.0,
38,0.0,increament,0.96,160.0,oddball,8.0,0.0,1.0,0.5697345999069512
39,0.0,increament,0.6,100.0,standard,5.0,0.0,1.0,
40,0.0,increament,0.6,100.0,standard,5.0,0.0,1.0,
41,0.0,increament,0.6,100.0,standard,5.0,0.0,1.0,
42,0.0,increament,0.6,100.0,standard,5.0,0.0,1.0,
43,0.0,increament,0.6,100.0,standard,5.0,0.0,1.0,
44,0.0,increament,0.6,100.0,standard,5.0,0.0,1.0,
45,0.0,increament,0.6,100.0,standard,5.0,0.0,1.0,
46,0.0,increament,0.6,100.0,standard,5.0,0.0,1.0,
47,0.0,increament,0.84,140.0,oddball,7.0,0.0,1.0,0.6786534999264404
48,0.0,increament,0.6,100.0,standard,5.0,0.0,1.0,
49,0.0,increament,0.6,100.0,standard,5.0,0.0,1.0,
50,0.0,increament,0.6,100.0,standard,5.0,0.0,1.0,
51,0.0,increament,0.6,100.0,standard,5.0,0.0,1.0,
52,0.0,increament,0.6,100.0,standard,5.0,0.0,0.0,0.5580263000447303
53,0.0,increament,0.72,120.0,oddball,6.0,0.0,1.0,0.5626997000072151
54,0.0,increament,0.6,100.0,standard,5.0,0.0,1.0,
55,0.0,increament,0.6,100.0,standard,5.0,0.0,1.0,
56,0.0,increament,0.6,100.0,standard,5.0,0.0,1.0,
57,0.0,increament,0.6,100.0,standard,5.0,0.0,1.0,
58,0.0,increament,0.6,100.0,standard,5.0,0.0,1.0,
59,0.0,increament,0.6,100.0,standard,5.0,0.0,1.0,
60,0.0,decreament,0.6,100.0,standard,1.0,0.0,1.0,
61,0.0,decreament,0.6,100.0,standard,1.0,0.0,1.0,
62,0.0,decreament,0.6,100.0,standard,1.0,0.0,0.0,0.6251627000747249
63,0.0,decreament,0.6,100.0,standard,1.0,0.0,1.0,
64,0.0,decreament,0.6,100.0,standard,1.0,0.0,1.0,
65,0.0,decreament,0.6,100.0,standard,1.0,0.0,1.0,
66,0.0,decreament,0.6,100.0,standard,1.0,0.0,1.0,
67,0.0,decreament,0.6,100.0,standard,1.0,0.0,1.0,
68,0.0,decreament,0.6,100.0,standard,1.0,0.0,0.0,0.738397799897939
69,0.0,decreament,0.6,100.0,standard,1.0,0.0,0.0,1.3419458999997005
70,0.0,decreament,0.6,100.0,standard,1.0,0.0,0.0,0.7327845999971032
71,0.0,decreament,0.6,100.0,standard,1.0,0.0,1.0,
72,0.0,decreament,0.6,100.0,standard,1.0,0.0,1.0,
73,0.0,decreament,0.6,100.0,standard,1.0,0.0,1.0,
74,0.0,decreament,0.24,40.0,oddball,2.0,0.0,1.0,0.6838680999353528
75,0.0,decreament,0.6,100.0,standard,1.0,0.0,1.0,
76,0.0,decreament,0.6,100.0,standard,1.0,0.0,1.0,
77,0.0,decreament,0.6,100.0,standard,1.0,0.0,1.0,
78,0.0,decreament,0.6,100.0,standard,1.0,0.0,1.0,
79,0.0,decreament,0.6,100.0,standard,1.0,0.0,1.0,
80,0.0,decreament,0.6,100.0,standard,1.0,0.0,1.0,
81,0.0,decreament,0.48,80.0,oddball,4.0,0.0,1.0,0.5952993000391871
82,0.0,decreament,0.6,100.0,standard,1.0,0.0,0.0,0.4675990999676287
83,0.0,decreament,0.6,100.0,standard,1.0,0.0,1.0,
84,0.0,decreament,0.6,100.0,standard,1.0,0.0,1.0,
85,0.0,decreament,0.6,100.0,standard,1.0,0.0,1.0,
86,0.0,decreament,0.6,100.0,standard,1.0,0.0,1.0,
87,0.0,decreament,0.6,100.0,standard,1.0,0.0,1.0,
88,0.0,decreament,0.6,100.0,standard,1.0,0.0,1.0,
89,0.0,decreament,0.36,60.0,oddball,3.0,0.0,1.0,0.6847433999646455
90,0.0,increament,0.6,100.0,standard,5.0,0.0,1.0,
91,0.0,increament,0.6,100.0,standard,5.0,0.0,1.0,
92,0.0,increament,0.6,100.0,standard,5.0,0.0,1.0,
93,0.0,increament,0.6,100.0,standard,5.0,0.0,1.0,
94,0.0,increament,0.6,100.0,standard,5.0,0.0,1.0,
95,0.0,increament,0.6,100.0,standard,5.0,0.0,1.0,
96,0.0,increament,0.6,100.0,standard,5.0,0.0,1.0,
97,0.0,increament,0.6,100.0,standard,5.0,0.0,1.0,
98,0.0,increament,0.6,100.0,standard,5.0,0.0,1.0,
99,0.0,increament,0.6,100.0,standard,5.0,0.0,1.0,
100,0.0,increament,0.96,160.0,oddball,8.0,0.0,1.0,0.8853159000864252
101,0.0,increament,0.6,100.0,standard,5.0,0.0,1.0,
102,0.0,increament,0.6,100.0,standard,5.0,0.0,1.0,
103,0.0,increament,0.6,100.0,standard,5.0,0.0,1.0,
104,0.0,increament,0.6,100.0,standard,5.0,0.0,1.0,
105,0.0,increament,0.6,100.0,standard,5.0,0.0,1.0,
106,0.0,increament,0.6,100.0,standard,5.0,0.0,1.0,
107,0.0,increament,0.84,140.0,oddball,7.0,0.0,1.0,0.3315932999830693
108,0.0,increament,0.6,100.0,standard,5.0,0.0,1.0,
109,0.0,increament,0.6,100.0,standard,5.0,0.0,1.0,
110,0.0,increament,0.6,100.0,standard,5.0,0.0,1.0,
111,0.0,increament,0.6,100.0,standard,5.0,0.0,1.0,
112,0.0,increament,0.6,100.0,standard,5.0,0.0,1.0,
113,0.0,increament,0.6,100.0,standard,5.0,0.0,1.0,
114,0.0,increament,0.72,120.0,oddball,6.0,0.0,0.0,
115,0.0,increament,0.6,100.0,standard,5.0,0.0,1.0,
116,0.0,increament,0.6,100.0,standard,5.0,0.0,1.0,
117,0.0,increament,0.6,100.0,standard,5.0,0.0,1.0,
118,0.0,increament,0.6,100.0,standard,5.0,0.0,1.0,
119,0.0,increament,0.6,100.0,standard,5.0,0.0,1.0,
120,0.0,decreament,0.6,100.0,standard,1.0,0.0,1.0,
121,0.0,decreament,0.6,100.0,standard,1.0,0.0,1.0,
122,0.0,decreament,0.6,100.0,standard,1.0,0.0,1.0,
123,0.0,decreament,0.6,100.0,standard,1.0,0.0,1.0,
124,0.0,decreament,0.6,100.0,standard,1.0,0.0,1.0,
125,0.0,decreament,0.6,100.0,standard,1.0,0.0,1.0,
126,0.0,decreament,0.6,100.0,standard,1.0,0.0,1.0,
127,0.0,decreament,0.6,100.0,standard,1.0,0.0,0.0,0.8872091000666842
128,0.0,decreament,0.36,60.0,oddball,3.0,0.0,1.0,0.8113275000359863
129,0.0,decreament,0.6,100.0,standard,1.0,0.0,1.0,
130,0.0,decreament,0.6,100.0,standard,1.0,0.0,1.0,
131,0.0,decreament,0.6,100.0,standard,1.0,0.0,1.0,
132,0.0,decreament,0.6,100.0,standard,1.0,0.0,1.0,
133,0.0,decreament,0.6,100.0,standard,1.0,0.0,1.0,
134,0.0,decreament,0.6,100.0,standard,1.0,0.0,1.0,
135,0.0,decreament,0.6,100.0,standard,1.0,0.0,1.0,
136,0.0,decreament,0.6,100.0,standard,1.0,0.0,1.0,
137,0.0,decreament,0.6,100.0,standard,1.0,0.0,0.0,0.5401285999687389
138,0.0,decreament,0.24,40.0,oddball,2.0,0.0,1.0,0.6909249000018463
139,0.0,decreament,0.6,100.0,standard,1.0,0.0,1.0,
140,0.0,decreament,0.6,100.0,standard,1.0,0.0,1.0,
141,0.0,decreament,0.6,100.0,standard,1.0,0.0,1.0,
142,0.0,decreament,0.48,80.0,oddball,4.0,0.0,1.0,0.6217387999640778
143,0.0,decreament,0.6,100.0,standard,1.0,0.0,1.0,
144,0.0,decreament,0.6,100.0,standard,1.0,0.0,1.0,
145,0.0,decreament,0.6,100.0,standard,1.0,0.0,1.0,
146,0.0,decreament,0.6,100.0,standard,1.0,0.0,1.0,
147,0.0,decreament,0.6,100.0,standard,1.0,0.0,1.0,
148,0.0,decreament,0.6,100.0,standard,1.0,0.0,1.0,
149,0.0,decreament,0.6,100.0,standard,1.0,0.0,1.0,
150,0.0,increament,0.6,100.0,standard,5.0,0.0,1.0,
151,0.0,increament,0.6,100.0,standard,5.0,0.0,1.0,
152,0.0,increament,0.6,100.0,standard,5.0,0.0,1.0,
153,0.0,increament,0.6,100.0,standard,5.0,0.0,1.0,
154,0.0,increament,0.6,100.0,standard,5.0,0.0,1.0,
155,0.0,increament,0.6,100.0,standard,5.0,0.0,1.0,
156,0.0,increament,0.6,100.0,standard,5.0,0.0,1.0,
157,0.0,increament,0.6,100.0,standard,5.0,0.0,1.0,
158,0.0,increament,0.6,100.0,standard,5.0,0.0,1.0,
159,0.0,increament,0.6,100.0,standard,5.0,0.0,1.0,
160,0.0,increament,0.6,100.0,standard,5.0,0.0,1.0,
161,0.0,increament,0.84,140.0,oddball,7.0,0.0,1.0,0.7181198999751359
162,0.0,increament,0.6,100.0,standard,5.0,0.0,1.0,
163,0.0,increament,0.6,100.0,standard,5.0,0.0,1.0,
164,0.0,increament,0.6,100.0,standard,5.0,0.0,1.0,
165,0.0,increament,0.6,100.0,standard,5.0,0.0,1.0,
166,0.0,increament,0.6,100.0,standard,5.0,0.0,1.0,
167,0.0,increament,0.6,100.0,standard,5.0,0.0,1.0,
168,0.0,increament,0.96,160.0,oddball,8.0,0.0,1.0,0.806431399891153
169,0.0,increament,0.6,100.0,standard,5.0,0.0,1.0,
170,0.0,increament,0.6,100.0,standard,5.0,0.0,1.0,
171,0.0,increament,0.6,100.0,standard,5.0,0.0,1.0,
172,0.0,increament,0.6,100.0,standard,5.0,0.0,1.0,
173,0.0,increament,0.6,100.0,standard,5.0,0.0,1.0,
174,0.0,increament,0.6,100.0,standard,5.0,0.0,1.0,
175,0.0,increament,0.6,100.0,standard,5.0,0.0,1.0,
176,0.0,increament,0.6,100.0,standard,5.0,0.0,1.0,
177,0.0,increament,0.6,100.0,standard,5.0,0.0,1.0,
178,0.0,increament,0.6,100.0,standard,5.0,0.0,0.0,0.7970255999825895
179,0.0,increament,0.72,120.0,oddball,6.0,0.0,1.0,0.6872900000307709
180,0.0,decreament,0.6,100.0,standard,1.0,0.0,1.0,
181,0.0,decreament,0.6,100.0,standard,1.0,0.0,1.0,
182,0.0,decreament,0.6,100.0,standard,1.0,0.0,1.0,
183,0.0,decreament,0.6,100.0,standard,1.0,0.0,1.0,
184,0.0,decreament,0.6,100.0,standard,1.0,0.0,1.0,
185,0.0,decreament,0.6,100.0,standard,1.0,0.0,1.0,
186,0.0,decreament,0.24,40.0,oddball,2.0,0.0,1.0,0.785446299938485
187,0.0,decreament,0.6,100.0,standard,1.0,0.0,1.0,
188,0.0,decreament,0.6,100.0,standard,1.0,0.0,1.0,
189,0.0,decreament,0.6,100.0,standard,1.0,0.0,1.0,
190,0.0,decreament,0.6,100.0,standard,1.0,0.0,1.0,
191,0.0,decreament,0.48,80.0,oddball,4.0,0.0,0.0,
192,0.0,decreament,0.6,100.0,standard,1.0,0.0,1.0,
193,0.0,decreament,0.6,100.0,standard,1.0,0.0,1.0,
194,0.0,decreament,0.6,100.0,standard,1.0,0.0,1.0,
195,0.0,decreament,0.6,100.0,standard,1.0,0.0,1.0,
196,0.0,decreament,0.6,100.0,standard,1.0,0.0,1.0,
197,0.0,decreament,0.6,100.0,standard,1.0,0.0,0.0,1.0004381000762803
198,0.0,decreament,0.6,100.0,standard,1.0,0.0,1.0,
199,0.0,decreament,0.6,100.0,standard,1.0,0.0,0.0,0.7264468999346718
200,0.0,decreament,0.6,100.0,standard,1.0,0.0,1.0,
201,0.0,decreament,0.6,100.0,standard,1.0,0.0,1.0,
202,0.0,decreament,0.36,60.0,oddball,3.0,0.0,1.0,0.9155992000596598
203,0.0,decreament,0.6,100.0,standard,1.0,0.0,1.0,
204,0.0,decreament,0.6,100.0,standard,1.0,0.0,1.0,
205,0.0,decreament,0.6,100.0,standard,1.0,0.0,1.0,
206,0.0,decreament,0.6,100.0,standard,1.0,0.0,1.0,
207,0.0,decreament,0.6,100.0,standard,1.0,0.0,1.0,
208,0.0,decreament,0.6,100.0,standard,1.0,0.0,1.0,
209,0.0,decreament,0.6,100.0,standard,1.0,0.0,1.0,
210,0.0,increament,0.6,100.0,standard,5.0,0.0,1.0,
211,0.0,increament,0.6,100.0,standard,5.0,0.0,1.0,
212,0.0,increament,0.6,100.0,standard,5.0,0.0,1.0,
213,0.0,increament,0.6,100.0,standard,5.0,0.0,1.0,
214,0.0,increament,0.6,100.0,standard,5.0,0.0,1.0,
215,0.0,increament,0.6,100.0,standard,5.0,0.0,1.0,
216,0.0,increament,0.6,100.0,standard,5.0,0.0,1.0,
217,0.0,increament,0.6,100.0,standard,5.0,0.0,1.0,
218,0.0,increament,0.6,100.0,standard,5.0,0.0,1.0,
219,0.0,increament,0.84,140.0,oddball,7.0,0.0,1.0,0.6845011999830604
220,0.0,increament,0.6,100.0,standard,5.0,0.0,1.0,
221,0.0,increament,0.6,100.0,standard,5.0,0.0,1.0,
222,0.0,increament,0.6,100.0,standard,5.0,0.0,1.0,
223,0.0,increament,0.6,100.0,standard,5.0,0.0,1.0,
224,0.0,increament,0.6,100.0,standard,5.0,0.0,1.0,
225,0.0,increament,0.6,100.0,standard,5.0,0.0,1.0,
226,0.0,increament,0.6,100.0,standard,5.0,0.0,1.0,
227,0.0,increament,0.6,100.0,standard,5.0,0.0,1.0,
228,0.0,increament,0.6,100.0,standard,5.0,0.0,1.0,
229,0.0,increament,0.6,100.0,standard,5.0,0.0,1.0,
230,0.0,increament,0.6,100.0,standard,5.0,0.0,0.0,0.7318619999568909
231,0.0,increament,0.6,100.0,standard,5.0,0.0,0.0,0.7528923000209033
232,0.0,increament,0.6,100.0,standard,5.0,0.0,1.0,
233,0.0,increament,0.6,100.0,standard,5.0,0.0,1.0,
234,0.0,increament,0.6,100.0,standard,5.0,0.0,1.0,
235,0.0,increament,0.96,160.0,oddball,8.0,0.0,0.0,
236,0.0,increament,0.6,100.0,standard,5.0,0.0,1.0,
237,0.0,increament,0.6,100.0,standard,5.0,0.0,1.0,
238,0.0,increament,0.6,100.0,standard,5.0,0.0,1.0,
239,0.0,increament,0.72,120.0,oddball,6.0,0.0,1.0,0.5583607000298798
240,0.0,decreament,0.6,100.0,standard,1.0,0.0,1.0,
241,0.0,decreament,0.6,100.0,standard,1.0,0.0,1.0,
242,0.0,decreament,0.6,100.0,standard,1.0,0.0,1.0,
243,0.0,decreament,0.6,100.0,standard,1.0,0.0,1.0,
244,0.0,decreament,0.6,100.0,standard,1.0,0.0,1.0,
245,0.0,decreament,0.6,100.0,standard,1.0,0.0,1.0,
246,0.0,decreament,0.6,100.0,standard,1.0,0.0,0.0,0.5754361000144854
247,0.0,decreament,0.6,100.0,standard,1.0,0.0,0.0,1.0237396999727937
248,0.0,decreament,0.6,100.0,standard,1.0,0.0,0.0,0.9135304000228645
249,0.0,decreament,0.6,100.0,standard,1.0,0.0,1.0,
250,0.0,decreament,0.6,100.0,standard,1.0,0.0,1.0,
251,0.0,decreament,0.6,100.0,standard,1.0,0.0,1.0,
252,0.0,decreament,0.6,100.0,standard,1.0,0.0,1.0,
253,0.0,decreament,0.24,40.0,oddball,2.0,0.0,1.0,0.5891694999299943
254,0.0,decreament,0.6,100.0,standard,1.0,0.0,0.0,1.612549400073476
255,0.0,decreament,0.6,100.0,standard,1.0,0.0,1.0,
256,0.0,decreament,0.6,100.0,standard,1.0,0.0,1.0,
257,0.0,decreament,0.6,100.0,standard,1.0,0.0,1.0,
258,0.0,decreament,0.6,100.0,standard,1.0,0.0,1.0,
259,0.0,decreament,0.6,100.0,standard,1.0,0.0,1.0,
260,0.0,decreament,0.6,100.0,standard,1.0,0.0,1.0,
261,0.0,decreament,0.36,60.0,oddball,3.0,0.0,1.0,0.5989741999655962
262,0.0,decreament,0.6,100.0,standard,1.0,0.0,1.0,
263,0.0,decreament,0.6,100.0,standard,1.0,0.0,1.0,
264,0.0,decreament,0.6,100.0,standard,1.0,0.0,1.0,
265,0.0,decreament,0.6,100.0,standard,1.0,0.0,1.0,
266,0.0,decreament,0.48,80.0,oddball,4.0,0.0,0.0,
267,0.0,decreament,0.6,100.0,standard,1.0,0.0,1.0,
268,0.0,decreament,0.6,100.0,standard,1.0,0.0,1.0,
269,0.0,decreament,0.6,100.0,standard,1.0,0.0,1.0,
270,0.0,increament,0.6,100.0,standard,5.0,0.0,1.0,
271,0.0,increament,0.6,100.0,standard,5.0,0.0,1.0,
272,0.0,increament,0.6,100.0,standard,5.0,0.0,1.0,
273,0.0,increament,0.6,100.0,standard,5.0,0.0,1.0,
274,0.0,increament,0.6,100.0,standard,5.0,0.0,1.0,
275,0.0,increament,0.6,100.0,standard,5.0,0.0,1.0,
276,0.0,increament,0.6,100.0,standard,5.0,0.0,1.0,
277,0.0,increament,0.6,100.0,standard,5.0,0.0,1.0,
278,0.0,increament,0.6,100.0,standard,5.0,0.0,1.0,
279,0.0,increament,0.6,100.0,standard,5.0,0.0,1.0,
280,0.0,increament,0.6,100.0,standard,5.0,0.0,1.0,
281,0.0,increament,0.6,100.0,standard,5.0,0.0,0.0,0.5888120000017807
282,0.0,increament,0.96,160.0,oddball,8.0,0.0,1.0,0.6156674999510869
283,0.0,increament,0.6,100.0,standard,5.0,0.0,1.0,
284,0.0,increament,0.6,100.0,standard,5.0,0.0,1.0,
285,0.0,increament,0.6,100.0,standard,5.0,0.0,1.0,
286,0.0,increament,0.6,100.0,standard,5.0,0.0,1.0,
287,0.0,increament,0.6,100.0,standard,5.0,0.0,1.0,
288,0.0,increament,0.6,100.0,standard,5.0,0.0,1.0,
289,0.0,increament,0.6,100.0,standard,5.0,0.0,1.0,
290,0.0,increament,0.6,100.0,standard,5.0,0.0,1.0,
291,0.0,increament,0.6,100.0,standard,5.0,0.0,1.0,
292,0.0,increament,0.6,100.0,standard,5.0,0.0,1.0,
293,0.0,increament,0.6,100.0,standard,5.0,0.0,1.0,
294,0.0,increament,0.72,120.0,oddball,6.0,0.0,1.0,0.6572980000637472
295,0.0,increament,0.6,100.0,standard,5.0,0.0,1.0,
296,0.0,increament,0.6,100.0,standard,5.0,0.0,1.0,
297,0.0,increament,0.6,100.0,standard,5.0,0.0,1.0,
298,0.0,increament,0.6,100.0,standard,5.0,0.0,1.0,
299,0.0,increament,0.84,140.0,oddball,7.0,0.0,1.0,0.7011585000436753
300,20.0,decreament,0.6,100.0,standard,41.0,1.0,1.0,
301,20.0,decreament,0.6,100.0,standard,41.0,1.0,1.0,
302,20.0,decreament,0.6,100.0,standard,41.0,1.0,1.0,
303,20.0,decreament,0.6,100.0,standard,41.0,1.0,1.0,
304,20.0,decreament,0.6,100.0,standard,41.0,1.0,1.0,
305,20.0,decreament,0.6,100.0,standard,41.0,1.0,1.0,
306,20.0,decreament,0.24,40.0,oddball,42.0,1.0,1.0,0.846179399988614
307,20.0,decreament,0.6,100.0,standard,41.0,1.0,1.0,
308,20.0,decreament,0.6,100.0,standard,41.0,1.0,1.0,
309,20.0,decreament,0.6,100.0,standard,41.0,1.0,1.0,
310,20.0,decreament,0.6,100.0,standard,41.0,1.0,1.0,
311,20.0,decreament,0.6,100.0,standard,41.0,1.0,1.0,
312,20.0,decreament,0.6,100.0,standard,41.0,1.0,1.0,
313,20.0,decreament,0.6,100.0,standard,41.0,1.0,1.0,
314,20.0,decreament,0.6,100.0,standard,41.0,1.0,1.0,
315,20.0,decreament,0.6,100.0,standard,41.0,1.0,1.0,
316,20.0,decreament,0.6,100.0,standard,41.0,1.0,1.0,
317,20.0,decreament,0.6,100.0,standard,41.0,1.0,1.0,
318,20.0,decreament,0.48,80.0,oddball,44.0,1.0,0.0,
319,20.0,decreament,0.6,100.0,standard,41.0,1.0,1.0,
320,20.0,decreament,0.6,100.0,standard,41.0,1.0,1.0,
321,20.0,decreament,0.6,100.0,standard,41.0,1.0,0.0,0.7641656999476254
322,20.0,decreament,0.6,100.0,standard,41.0,1.0,1.0,
323,20.0,decreament,0.6,100.0,standard,41.0,1.0,1.0,
324,20.0,decreament,0.6,100.0,standard,41.0,1.0,1.0,
325,20.0,decreament,0.36,60.0,oddball,43.0,1.0,1.0,0.6855987999588251
326,20.0,decreament,0.6,100.0,standard,41.0,1.0,1.0,
327,20.0,decreament,0.6,100.0,standard,41.0,1.0,1.0,
328,20.0,decreament,0.6,100.0,standard,41.0,1.0,1.0,
329,20.0,decreament,0.6,100.0,standard,41.0,1.0,1.0,
330,20.0,increament,0.6,100.0,standard,45.0,1.0,1.0,
331,20.0,increament,0.6,100.0,standard,45.0,1.0,1.0,
332,20.0,increament,0.6,100.0,standard,45.0,1.0,1.0,
333,20.0,increament,0.6,100.0,standard,45.0,1.0,1.0,
334,20.0,increament,0.6,100.0,standard,45.0,1.0,1.0,
335,20.0,increament,0.6,100.0,standard,45.0,1.0,1.0,
336,20.0,increament,0.72,120.0,oddball,46.0,1.0,1.0,0.659680699929595
337,20.0,increament,0.6,100.0,standard,45.0,1.0,1.0,
338,20.0,increament,0.6,100.0,standard,45.0,1.0,1.0,
339,20.0,increament,0.6,100.0,standard,45.0,1.0,1.0,
340,20.0,increament,0.6,100.0,standard,45.0,1.0,1.0,
341,20.0,increament,0.6,100.0,standard,45.0,1.0,1.0,
342,20.0,increament,0.6,100.0,standard,45.0,1.0,1.0,
343,20.0,increament,0.6,100.0,standard,45.0,1.0,1.0,
344,20.0,increament,0.6,100.0,standard,45.0,1.0,0.0,0.6909429000224918
345,20.0,increament,0.6,100.0,standard,45.0,1.0,1.0,
346,20.0,increament,0.6,100.0,standard,45.0,1.0,1.0,
347,20.0,increament,0.6,100.0,standard,45.0,1.0,1.0,
348,20.0,increament,0.6,100.0,standard,45.0,1.0,1.0,
349,20.0,increament,0.6,100.0,standard,45.0,1.0,1.0,
350,20.0,increament,0.6,100.0,standard,45.0,1.0,1.0,
351,20.0,increament,0.6,100.0,standard,45.0,1.0,1.0,
352,20.0,increament,0.96,160.0,oddball,48.0,1.0,1.0,0.4904048000462353
353,20.0,increament,0.6,100.0,standard,45.0,1.0,1.0,
354,20.0,increament,0.6,100.0,standard,45.0,1.0,1.0,
355,20.0,increament,0.6,100.0,standard,45.0,1.0,1.0,
356,20.0,increament,0.6,100.0,standard,45.0,1.0,1.0,
357,20.0,increament,0.6,100.0,standard,45.0,1.0,1.0,
358,20.0,increament,0.84,140.0,oddball,47.0,1.0,1.0,0.743516799993813
359,20.0,increament,0.6,100.0,standard,45.0,1.0,1.0,
360,20.0,decreament,0.6,100.0,standard,41.0,1.0,1.0,
361,20.0,decreament,0.6,100.0,standard,41.0,1.0,1.0,
362,20.0,decreament,0.6,100.0,standard,41.0,1.0,1.0,
363,20.0,decreament,0.6,100.0,standard,41.0,1.0,1.0,
364,20.0,decreament,0.6,100.0,standard,41.0,1.0,1.0,
365,20.0,decreament,0.6,100.0,standard,41.0,1.0,1.0,
366,20.0,decreament,0.6,100.0,standard,41.0,1.0,0.0,1.1784127000719309
367,20.0,decreament,0.6,100.0,standard,41.0,1.0,1.0,
368,20.0,decreament,0.6,100.0,standard,41.0,1.0,1.0,
369,20.0,decreament,0.6,100.0,standard,41.0,1.0,1.0,
370,20.0,decreament,0.6,100.0,standard,41.0,1.0,0.0,1.0224642999237403
371,20.0,decreament,0.6,100.0,standard,41.0,1.0,1.0,
372,20.0,decreament,0.24,40.0,oddball,42.0,1.0,1.0,0.7396755999652669
373,20.0,decreament,0.6,100.0,standard,41.0,1.0,1.0,
374,20.0,decreament,0.6,100.0,standard,41.0,1.0,1.0,
375,20.0,decreament,0.6,100.0,standard,41.0,1.0,1.0,
376,20.0,decreament,0.6,100.0,standard,41.0,1.0,0.0,1.3029641999164596
377,20.0,decreament,0.6,100.0,standard,41.0,1.0,1.0,
378,20.0,decreament,0.6,100.0,standard,41.0,1.0,0.0,0.8058823000174016
379,20.0,decreament,0.36,60.0,oddball,43.0,1.0,1.0,0.938703199964948
380,20.0,decreament,0.6,100.0,standard,41.0,1.0,1.0,
381,20.0,decreament,0.6,100.0,standard,41.0,1.0,1.0,
382,20.0,decreament,0.6,100.0,standard,41.0,1.0,1.0,
383,20.0,decreament,0.6,100.0,standard,41.0,1.0,1.0,
384,20.0,decreament,0.6,100.0,standard,41.0,1.0,1.0,
385,20.0,decreament,0.6,100.0,standard,41.0,1.0,1.0,
386,20.0,decreament,0.6,100.0,standard,41.0,1.0,1.0,
387,20.0,decreament,0.48,80.0,oddball,44.0,1.0,1.0,0.6868045000592247
388,20.0,decreament,0.6,100.0,standard,41.0,1.0,1.0,
389,20.0,decreament,0.6,100.0,standard,41.0,1.0,0.0,0.8154677000129595
390,20.0,increament,0.6,100.0,standard,45.0,1.0,1.0,
391,20.0,increament,0.6,100.0,standard,45.0,1.0,1.0,
392,20.0,increament,0.6,100.0,standard,45.0,1.0,1.0,
393,20.0,increament,0.6,100.0,standard,45.0,1.0,1.0,
394,20.0,increament,0.6,100.0,standard,45.0,1.0,1.0,
395,20.0,increament,0.6,100.0,standard,45.0,1.0,1.0,
396,20.0,increament,0.96,160.0,oddball,48.0,1.0,0.0,
397,20.0,increament,0.6,100.0,standard,45.0,1.0,1.0,
398,20.0,increament,0.6,100.0,standard,45.0,1.0,1.0,
399,20.0,increament,0.6,100.0,standard,45.0,1.0,1.0,
400,20.0,increament,0.84,140.0,oddball,47.0,1.0,1.0,0.5312778999796137
401,20.0,increament,0.6,100.0,standard,45.0,1.0,1.0,
402,20.0,increament,0.6,100.0,standard,45.0,1.0,1.0,
403,20.0,increament,0.6,100.0,standard,45.0,1.0,1.0,
404,20.0,increament,0.6,100.0,standard,45.0,1.0,1.0,
405,20.0,increament,0.6,100.0,standard,45.0,1.0,1.0,
406,20.0,increament,0.6,100.0,standard,45.0,1.0,1.0,
407,20.0,increament,0.6,100.0,standard,45.0,1.0,1.0,
408,20.0,increament,0.6,100.0,standard,45.0,1.0,1.0,
409,20.0,increament,0.6,100.0,standard,45.0,1.0,1.0,
410,20.0,increament,0.6,100.0,standard,45.0,1.0,1.0,
411,20.0,increament,0.72,120.0,oddball,46.0,1.0,1.0,0.6616799000184983
412,20.0,increament,0.6,100.0,standard,45.0,1.0,0.0,0.8821162000531331
413,20.0,increament,0.6,100.0,standard,45.0,1.0,1.0,
414,20.0,increament,0.6,100.0,standard,45.0,1.0,1.0,
415,20.0,increament,0.6,100.0,standard,45.0,1.0,1.0,
416,20.0,increament,0.6,100.0,standard,45.0,1.0,1.0,
417,20.0,increament,0.6,100.0,standard,45.0,1.0,1.0,
418,20.0,increament,0.6,100.0,standard,45.0,1.0,1.0,
419,20.0,increament,0.6,100.0,standard,45.0,1.0,1.0,
420,20.0,decreament,0.6,100.0,standard,41.0,1.0,1.0,
421,20.0,decreament,0.6,100.0,standard,41.0,1.0,1.0,
422,20.0,decreament,0.6,100.0,standard,41.0,1.0,1.0,
423,20.0,decreament,0.6,100.0,standard,41.0,1.0,1.0,
424,20.0,decreament,0.6,100.0,standard,41.0,1.0,1.0,
425,20.0,decreament,0.6,100.0,standard,41.0,1.0,1.0,
426,20.0,decreament,0.6,100.0,standard,41.0,1.0,1.0,
427,20.0,decreament,0.6,100.0,standard,41.0,1.0,1.0,
428,20.0,decreament,0.6,100.0,standard,41.0,1.0,1.0,
429,20.0,decreament,0.6,100.0,standard,41.0,1.0,1.0,
430,20.0,decreament,0.6,100.0,standard,41.0,1.0,1.0,
431,20.0,decreament,0.48,80.0,oddball,44.0,1.0,1.0,0.6309743000892922
432,20.0,decreament,0.6,100.0,standard,41.0,1.0,1.0,
433,20.0,decreament,0.6,100.0,standard,41.0,1.0,1.0,
434,20.0,decreament,0.6,100.0,standard,41.0,1.0,1.0,
435,20.0,decreament,0.24,40.0,oddball,42.0,1.0,1.0,0.8141274999361485
436,20.0,decreament,0.6,100.0,standard,41.0,1.0,1.0,
437,20.0,decreament,0.6,100.0,standard,41.0,1.0,1.0,
438,20.0,decreament,0.6,100.0,standard,41.0,1.0,1.0,
439,20.0,decreament,0.6,100.0,standard,41.0,1.0,1.0,
440,20.0,decreament,0.6,100.0,standard,41.0,1.0,1.0,
441,20.0,decreament,0.6,100.0,standard,41.0,1.0,1.0,
442,20.0,decreament,0.6,100.0,standard,41.0,1.0,1.0,
443,20.0,decreament,0.6,100.0,standard,41.0,1.0,1.0,
444,20.0,decreament,0.6,100.0,standard,41.0,1.0,1.0,
445,20.0,decreament,0.6,100.0,standard,41.0,1.0,1.0,
446,20.0,decreament,0.36,60.0,oddball,43.0,1.0,1.0,0.5687514999881387
447,20.0,decreament,0.6,100.0,standard,41.0,1.0,1.0,
448,20.0,decreament,0.6,100.0,standard,41.0,1.0,1.0,
449,20.0,decreament,0.6,100.0,standard,41.0,1.0,1.0,
450,20.0,increament,0.6,100.0,standard,45.0,1.0,1.0,
451,20.0,increament,0.6,100.0,standard,45.0,1.0,1.0,
452,20.0,increament,0.6,100.0,standard,45.0,1.0,1.0,
453,20.0,increament,0.6,100.0,standard,45.0,1.0,1.0,
454,20.0,increament,0.6,100.0,standard,45.0,1.0,1.0,
455,20.0,increament,0.6,100.0,standard,45.0,1.0,1.0,
456,20.0,increament,0.6,100.0,standard,45.0,1.0,1.0,
457,20.0,increament,0.72,120.0,oddball,46.0,1.0,0.0,
458,20.0,increament,0.6,100.0,standard,45.0,1.0,1.0,
459,20.0,increament,0.6,100.0,standard,45.0,1.0,1.0,
460,20.0,increament,0.6,100.0,standard,45.0,1.0,1.0,
461,20.0,increament,0.6,100.0,standard,45.0,1.0,1.0,
462,20.0,increament,0.6,100.0,standard,45.0,1.0,1.0,
463,20.0,increament,0.6,100.0,standard,45.0,1.0,0.0,0.6308352999622002
464,20.0,increament,0.84,140.0,oddball,47.0,1.0,1.0,0.6110771000385284
465,20.0,increament,0.6,100.0,standard,45.0,1.0,1.0,
466,20.0,increament,0.6,100.0,standard,45.0,1.0,1.0,
467,20.0,increament,0.6,100.0,standard,45.0,1.0,1.0,
468,20.0,increament,0.96,160.0,oddball,48.0,1.0,0.0,
469,20.0,increament,0.6,100.0,standard,45.0,1.0,1.0,
470,20.0,increament,0.6,100.0,standard,45.0,1.0,1.0,
471,20.0,increament,0.6,100.0,standard,45.0,1.0,1.0,
472,20.0,increament,0.6,100.0,standard,45.0,1.0,1.0,
473,20.0,increament,0.6,100.0,standard,45.0,1.0,1.0,
474,20.0,increament,0.6,100.0,standard,45.0,1.0,1.0,
475,20.0,increament,0.6,100.0,standard,45.0,1.0,1.0,
476,20.0,increament,0.6,100.0,standard,45.0,1.0,1.0,
477,20.0,increament,0.6,100.0,standard,45.0,1.0,0.0,0.6258712999988347
478,20.0,increament,0.6,100.0,standard,45.0,1.0,0.0,0.7802392999874428
479,20.0,increament,0.6,100.0,standard,45.0,1.0,1.0,
480,20.0,decreament,0.6,100.0,standard,41.0,1.0,1.0,
481,20.0,decreament,0.6,100.0,standard,41.0,1.0,1.0,
482,20.0,decreament,0.6,100.0,standard,41.0,1.0,1.0,
483,20.0,decreament,0.6,100.0,standard,41.0,1.0,1.0,
484,20.0,decreament,0.6,100.0,standard,41.0,1.0,1.0,
485,20.0,decreament,0.48,80.0,oddball,44.0,1.0,0.0,
486,20.0,decreament,0.6,100.0,standard,41.0,1.0,1.0,
487,20.0,decreament,0.6,100.0,standard,41.0,1.0,1.0,
488,20.0,decreament,0.6,100.0,standard,41.0,1.0,1.0,
489,20.0,decreament,0.6,100.0,standard,41.0,1.0,1.0,
490,20.0,decreament,0.6,100.0,standard,41.0,1.0,1.0,
491,20.0,decreament,0.6,100.0,standard,41.0,1.0,1.0,
492,20.0,decreament,0.6,100.0,standard,41.0,1.0,1.0,
493,20.0,decreament,0.6,100.0,standard,41.0,1.0,1.0,
494,20.0,decreament,0.6,100.0,standard,41.0,1.0,1.0,
495,20.0,decreament,0.6,100.0,standard,41.0,1.0,0.0,0.5468583999900147
496,20.0,decreament,0.6,100.0,standard,41.0,1.0,1.0,
497,20.0,decreament,0.6,100.0,standard,41.0,1.0,0.0,0.5259206000482664
498,20.0,decreament,0.24,40.0,oddball,42.0,1.0,1.0,0.8347809000406414
499,20.0,decreament,0.6,100.0,standard,41.0,1.0,1.0,
500,20.0,decreament,0.6,100.0,standard,41.0,1.0,1.0,
501,20.0,decreament,0.6,100.0,standard,41.0,1.0,1.0,
502,20.0,decreament,0.6,100.0,standard,41.0,1.0,0.0,0.9609412000281736
503,20.0,decreament,0.6,100.0,standard,41.0,1.0,1.0,
504,20.0,decreament,0.6,100.0,standard,41.0,1.0,1.0,
505,20.0,decreament,0.6,100.0,standard,41.0,1.0,1.0,
506,20.0,decreament,0.6,100.0,standard,41.0,1.0,1.0,
507,20.0,decreament,0.36,60.0,oddball,43.0,1.0,1.0,0.7262577000074089
508,20.0,decreament,0.6,100.0,standard,41.0,1.0,1.0,
509,20.0,decreament,0.6,100.0,standard,41.0,1.0,1.0,
510,20.0,increament,0.6,100.0,standard,45.0,1.0,1.0,
511,20.0,increament,0.6,100.0,standard,45.0,1.0,1.0,
512,20.0,increament,0.6,100.0,standard,45.0,1.0,1.0,
513,20.0,increament,0.6,100.0,standard,45.0,1.0,1.0,
514,20.0,increament,0.6,100.0,standard,45.0,1.0,1.0,
515,20.0,increament,0.6,100.0,standard,45.0,1.0,0.0,0.615078300004825
516,20.0,increament,0.96,160.0,oddball,48.0,1.0,1.0,0.8394101000158116
517,20.0,increament,0.6,100.0,standard,45.0,1.0,1.0,
518,20.0,increament,0.6,100.0,standard,45.0,1.0,1.0,
519,20.0,increament,0.6,100.0,standard,45.0,1.0,1.0,
520,20.0,increament,0.6,100.0,standard,45.0,1.0,1.0,
521,20.0,increament,0.6,100.0,standard,45.0,1.0,1.0,
522,20.0,increament,0.72,120.0,oddball,46.0,1.0,0.0,
523,20.0,increament,0.6,100.0,standard,45.0,1.0,1.0,
524,20.0,increament,0.6,100.0,standard,45.0,1.0,1.0,
525,20.0,increament,0.6,100.0,standard,45.0,1.0,1.0,
526,20.0,increament,0.6,100.0,standard,45.0,1.0,1.0,
527,20.0,increament,0.6,100.0,standard,45.0,1.0,1.0,
528,20.0,increament,0.6,100.0,standard,45.0,1.0,1.0,
529,20.0,increament,0.6,100.0,standard,45.0,1.0,1.0,
530,20.0,increament,0.6,100.0,standard,45.0,1.0,1.0,
531,20.0,increament,0.6,100.0,standard,45.0,1.0,1.0,
532,20.0,increament,0.6,100.0,standard,45.0,1.0,0.0,0.8716541000176221
533,20.0,increament,0.6,100.0,standard,45.0,1.0,0.0,1.0150306000141427
534,20.0,increament,0.6,100.0,standard,45.0,1.0,1.0,
535,20.0,increament,0.6,100.0,standard,45.0,1.0,1.0,
536,20.0,increament,0.6,100.0,standard,45.0,1.0,1.0,
537,20.0,increament,0.84,140.0,oddball,47.0,1.0,0.0,
538,20.0,increament,0.6,100.0,standard,45.0,1.0,1.0,
539,20.0,increament,0.6,100.0,standard,45.0,1.0,1.0,
540,20.0,decreament,0.6,100.0,standard,41.0,1.0,1.0,
541,20.0,decreament,0.6,100.0,standard,41.0,1.0,1.0,
542,20.0,decreament,0.6,100.0,standard,41.0,1.0,1.0,
543,20.0,decreament,0.6,100.0,standard,41.0,1.0,1.0,
544,20.0,decreament,0.6,100.0,standard,41.0,1.0,1.0,
545,20.0,decreament,0.36,60.0,oddball,43.0,1.0,1.0,0.5753579000011086
546,20.0,decreament,0.6,100.0,standard,41.0,1.0,1.0,
547,20.0,decreament,0.6,100.0,standard,41.0,1.0,1.0,
548,20.0,decreament,0.6,100.0,standard,41.0,1.0,1.0,
549,20.0,decreament,0.6,100.0,standard,41.0,1.0,1.0,
550,20.0,decreament,0.48,80.0,oddball,44.0,1.0,1.0,0.7093614999903366
551,20.0,decreament,0.6,100.0,standard,41.0,1.0,1.0,
552,20.0,decreament,0.6,100.0,standard,41.0,1.0,1.0,
553,20.0,decreament,0.6,100.0,standard,41.0,1.0,1.0,
554,20.0,decreament,0.6,100.0,standard,41.0,1.0,1.0,
555,20.0,decreament,0.6,100.0,standard,41.0,1.0,1.0,
556,20.0,decreament,0.6,100.0,standard,41.0,1.0,0.0,0.4690568000078201
557,20.0,decreament,0.6,100.0,standard,41.0,1.0,1.0,
558,20.0,decreament,0.6,100.0,standard,41.0,1.0,1.0,
559,20.0,decreament,0.6,100.0,standard,41.0,1.0,1.0,
560,20.0,decreament,0.6,100.0,standard,41.0,1.0,1.0,
561,20.0,decreament,0.6,100.0,standard,41.0,1.0,1.0,
562,20.0,decreament,0.6,100.0,standard,41.0,1.0,1.0,
563,20.0,decreament,0.24,40.0,oddball,42.0,1.0,1.0,1.0282949999673292
564,20.0,decreament,0.6,100.0,standard,41.0,1.0,1.0,
565,20.0,decreament,0.6,100.0,standard,41.0,1.0,1.0,
566,20.0,decreament,0.6,100.0,standard,41.0,1.0,1.0,
567,20.0,decreament,0.6,100.0,standard,41.0,1.0,1.0,
568,20.0,decreament,0.6,100.0,standard,41.0,1.0,1.0,
569,20.0,decreament,0.6,100.0,standard,41.0,1.0,1.0,
570,20.0,increament,0.6,100.0,standard,45.0,1.0,1.0,
571,20.0,increament,0.6,100.0,standard,45.0,1.0,1.0,
572,20.0,increament,0.6,100.0,standard,45.0,1.0,1.0,
573,20.0,increament,0.6,100.0,standard,45.0,1.0,1.0,
574,20.0,increament,0.6,100.0,standard,45.0,1.0,1.0,
575,20.0,increament,0.6,100.0,standard,45.0,1.0,1.0,
576,20.0,increament,0.6,100.0,standard,45.0,1.0,1.0,
577,20.0,increament,0.6,100.0,standard,45.0,1.0,1.0,
578,20.0,increament,0.6,100.0,standard,45.0,1.0,0.0,0.4871182999340817
579,20.0,increament,0.6,100.0,standard,45.0,1.0,1.0,
580,20.0,increament,0.6,100.0,standard,45.0,1.0,0.0,0.7010114999720827
581,20.0,increament,0.6,100.0,standard,45.0,1.0,1.0,
582,20.0,increament,0.6,100.0,standard,45.0,1.0,1.0,
583,20.0,increament,0.6,100.0,standard,45.0,1.0,1.0,
584,20.0,increament,0.6,100.0,standard,45.0,1.0,1.0,
585,20.0,increament,0.96,160.0,oddball,48.0,1.0,1.0,0.7349466999294236
586,20.0,increament,0.6,100.0,standard,45.0,1.0,1.0,
587,20.0,increament,0.6,100.0,standard,45.0,1.0,1.0,
588,20.0,increament,0.6,100.0,standard,45.0,1.0,1.0,
589,20.0,increament,0.6,100.0,standard,45.0,1.0,1.0,
590,20.0,increament,0.6,100.0,standard,45.0,1.0,1.0,
591,20.0,increament,0.6,100.0,standard,45.0,1.0,1.0,
592,20.0,increament,0.6,100.0,standard,45.0,1.0,1.0,
593,20.0,increament,0.72,120.0,oddball,46.0,1.0,0.0,
594,20.0,increament,0.6,100.0,standard,45.0,1.0,1.0,
595,20.0,increament,0.6,100.0,standard,45.0,1.0,1.0,
596,20.0,increament,0.6,100.0,standard,45.0,1.0,1.0,
597,20.0,increament,0.6,100.0,standard,45.0,1.0,1.0,
598,20.0,increament,0.6,100.0,standard,45.0,1.0,0.0,0.6278102000942454
599,20.0,increament,0.84,140.0,oddball,47.0,1.0,1.0,0.7286128000123426
600,10.0,decreament,0.6,100.0,standard,21.0,2.0,1.0,
601,10.0,decreament,0.6,100.0,standard,21.0,2.0,1.0,
602,10.0,decreament,0.6,100.0,standard,21.0,2.0,1.0,
603,10.0,decreament,0.6,100.0,standard,21.0,2.0,1.0,
604,10.0,decreament,0.6,100.0,standard,21.0,2.0,1.0,
605,10.0,decreament,0.6,100.0,standard,21.0,2.0,1.0,
606,10.0,decreament,0.6,100.0,standard,21.0,2.0,1.0,
607,10.0,decreament,0.6,100.0,standard,21.0,2.0,1.0,
608,10.0,decreament,0.6,100.0,standard,21.0,2.0,1.0,
609,10.0,decreament,0.6,100.0,standard,21.0,2.0,1.0,
610,10.0,decreament,0.6,100.0,standard,21.0,2.0,1.0,
611,10.0,decreament,0.36,60.0,oddball,23.0,2.0,1.0,0.7648525999393314
612,10.0,decreament,0.6,100.0,standard,21.0,2.0,1.0,
613,10.0,decreament,0.6,100.0,standard,21.0,2.0,0.0,0.5882241000654176
614,10.0,decreament,0.6,100.0,standard,21.0,2.0,1.0,
615,10.0,decreament,0.6,100.0,standard,21.0,2.0,1.0,
616,10.0,decreament,0.6,100.0,standard,21.0,2.0,0.0,0.7828446000348777
617,10.0,decreament,0.6,100.0,standard,21.0,2.0,1.0,
618,10.0,decreament,0.6,100.0,standard,21.0,2.0,1.0,
619,10.0,decreament,0.6,100.0,standard,21.0,2.0,0.0,0.6821046000113711
620,10.0,decreament,0.6,100.0,standard,21.0,2.0,1.0,
621,10.0,decreament,0.6,100.0,standard,21.0,2.0,1.0,
622,10.0,decreament,0.6,100.0,standard,21.0,2.0,0.0,0.786752299987711
623,10.0,decreament,0.6,100.0,standard,21.0,2.0,1.0,
624,10.0,decreament,0.24,40.0,oddball,22.0,2.0,1.0,0.7530538000864908
625,10.0,decreament,0.6,100.0,standard,21.0,2.0,1.0,
626,10.0,decreament,0.6,100.0,standard,21.0,2.0,1.0,
627,10.0,decreament,0.6,100.0,standard,21.0,2.0,1.0,
628,10.0,decreament,0.48,80.0,oddball,24.0,2.0,1.0,0.6777848999481648
629,10.0,decreament,0.6,100.0,standard,21.0,2.0,1.0,
630,10.0,increament,0.6,100.0,standard,25.0,2.0,1.0,
631,10.0,increament,0.6,100.0,standard,25.0,2.0,1.0,
632,10.0,increament,0.6,100.0,standard,25.0,2.0,1.0,
633,10.0,increament,0.6,100.0,standard,25.0,2.0,1.0,
634,10.0,increament,0.6,100.0,standard,25.0,2.0,1.0,
635,10.0,increament,0.6,100.0,standard,25.0,2.0,1.0,
636,10.0,increament,0.96,160.0,oddball,28.0,2.0,1.0,0.6774496999569237
637,10.0,increament,0.6,100.0,standard,25.0,2.0,1.0,
638,10.0,increament,0.6,100.0,standard,25.0,2.0,1.0,
639,10.0,increament,0.6,100.0,standard,25.0,2.0,1.0,
640,10.0,increament,0.6,100.0,standard,25.0,2.0,1.0,
641,10.0,increament,0.6,100.0,standard,25.0,2.0,1.0,
642,10.0,increament,0.6,100.0,standard,25.0,2.0,1.0,
643,10.0,increament,0.6,100.0,standard,25.0,2.0,1.0,
644,10.0,increament,0.6,100.0,standard,25.0,2.0,1.0,
645,10.0,increament,0.72,120.0,oddball,26.0,2.0,0.0,
646,10.0,increament,0.6,100.0,standard,25.0,2.0,1.0,
647,10.0,increament,0.6,100.0,standard,25.0,2.0,1.0,
648,10.0,increament,0.6,100.0,standard,25.0,2.0,1.0,
649,10.0,increament,0.6,100.0,standard,25.0,2.0,1.0,
650,10.0,increament,0.6,100.0,standard,25.0,2.0,1.0,
651,10.0,increament,0.6,100.0,standard,25.0,2.0,1.0,
652,10.0,increament,0.6,100.0,standard,25.0,2.0,1.0,
653,10.0,increament,0.6,100.0,standard,25.0,2.0,1.0,
654,10.0,increament,0.84,140.0,oddball,27.0,2.0,1.0,0.6408423000248149
655,10.0,increament,0.6,100.0,standard,25.0,2.0,1.0,
656,10.0,increament,0.6,100.0,standard,25.0,2.0,1.0,
657,10.0,increament,0.6,100.0,standard,25.0,2.0,1.0,
658,10.0,increament,0.6,100.0,standard,25.0,2.0,1.0,
659,10.0,increament,0.6,100.0,standard,25.0,2.0,1.0,
660,10.0,decreament,0.6,100.0,standard,21.0,2.0,1.0,
661,10.0,decreament,0.6,100.0,standard,21.0,2.0,1.0,
662,10.0,decreament,0.6,100.0,standard,21.0,2.0,1.0,
663,10.0,decreament,0.6,100.0,standard,21.0,2.0,1.0,
664,10.0,decreament,0.6,100.0,standard,21.0,2.0,1.0,
665,10.0,decreament,0.6,100.0,standard,21.0,2.0,0.0,0.8783056000247598
666,10.0,decreament,0.6,100.0,standard,21.0,2.0,1.0,
667,10.0,decreament,0.36,60.0,oddball,23.0,2.0,1.0,0.855585900018923
668,10.0,decreament,0.6,100.0,standard,21.0,2.0,1.0,
669,10.0,decreament,0.6,100.0,standard,21.0,2.0,1.0,
670,10.0,decreament,0.6,100.0,standard,21.0,2.0,1.0,
671,10.0,decreament,0.6,100.0,standard,21.0,2.0,1.0,
672,10.0,decreament,0.6,100.0,standard,21.0,2.0,1.0,
673,10.0,decreament,0.6,100.0,standard,21.0,2.0,1.0,
674,10.0,decreament,0.6,100.0,standard,21.0,2.0,1.0,
675,10.0,decreament,0.6,100.0,standard,21.0,2.0,1.0,
676,10.0,decreament,0.48,80.0,oddball,24.0,2.0,1.0,0.5245867000194266
677,10.0,decreament,0.6,100.0,standard,21.0,2.0,1.0,
678,10.0,decreament,0.6,100.0,standard,21.0,2.0,1.0,
679,10.0,decreament,0.6,100.0,standard,21.0,2.0,1.0,
680,10.0,decreament,0.6,100.0,standard,21.0,2.0,1.0,
681,10.0,decreament,0.6,100.0,standard,21.0,2.0,0.0,0.8271420999662951
682,10.0,decreament,0.24,40.0,oddball,22.0,2.0,1.0,0.4969865999883041
683,10.0,decreament,0.6,100.0,standard,21.0,2.0,1.0,
684,10.0,decreament,0.6,100.0,standard,21.0,2.0,1.0,
685,10.0,decreament,0.6,100.0,standard,21.0,2.0,1.0,
686,10.0,decreament,0.6,100.0,standard,21.0,2.0,1.0,
687,10.0,decreament,0.6,100.0,standard,21.0,2.0,1.0,
688,10.0,decreament,0.6,100.0,standard,21.0,2.0,1.0,
689,10.0,decreament,0.6,100.0,standard,21.0,2.0,1.0,
690,10.0,increament,0.6,100.0,standard,25.0,2.0,1.0,
691,10.0,increament,0.6,100.0,standard,25.0,2.0,1.0,
692,10.0,increament,0.6,100.0,standard,25.0,2.0,1.0,
693,10.0,increament,0.6,100.0,standard,25.0,2.0,1.0,
694,10.0,increament,0.6,100.0,standard,25.0,2.0,1.0,
695,10.0,increament,0.6,100.0,standard,25.0,2.0,1.0,
696,10.0,increament,0.6,100.0,standard,25.0,2.0,1.0,
697,10.0,increament,0.72,120.0,oddball,26.0,2.0,1.0,0.6553441999712959
698,10.0,increament,0.6,100.0,standard,25.0,2.0,1.0,
699,10.0,increament,0.6,100.0,standard,25.0,2.0,1.0,
700,10.0,increament,0.6,100.0,standard,25.0,2.0,1.0,
701,10.0,increament,0.96,160.0,oddball,28.0,2.0,0.0,
702,10.0,increament,0.6,100.0,standard,25.0,2.0,1.0,
703,10.0,increament,0.6,100.0,standard,25.0,2.0,1.0,
704,10.0,increament,0.6,100.0,standard,25.0,2.0,1.0,
705,10.0,increament,0.6,100.0,standard,25.0,2.0,1.0,
706,10.0,increament,0.6,100.0,standard,25.0,2.0,1.0,
707,10.0,increament,0.6,100.0,standard,25.0,2.0,1.0,
708,10.0,increament,0.6,100.0,standard,25.0,2.0,1.0,
709,10.0,increament,0.6,100.0,standard,25.0,2.0,1.0,
710,10.0,increament,0.6,100.0,standard,25.0,2.0,1.0,
711,10.0,increament,0.6,100.0,standard,25.0,2.0,1.0,
712,10.0,increament,0.6,100.0,standard,25.0,2.0,0.0,0.6655273999786004
713,10.0,increament,0.6,100.0,standard,25.0,2.0,1.0,
714,10.0,increament,0.6,100.0,standard,25.0,2.0,1.0,
715,10.0,increament,0.6,100.0,standard,25.0,2.0,1.0,
716,10.0,increament,0.84,140.0,oddball,27.0,2.0,1.0,0.9807246999116614
717,10.0,increament,0.6,100.0,standard,25.0,2.0,1.0,
718,10.0,increament,0.6,100.0,standard,25.0,2.0,1.0,
719,10.0,increament,0.6,100.0,standard,25.0,2.0,1.0,
720,10.0,decreament,0.6,100.0,standard,21.0,2.0,1.0,
721,10.0,decreament,0.6,100.0,standard,21.0,2.0,1.0,
722,10.0,decreament,0.6,100.0,standard,21.0,2.0,1.0,
723,10.0,decreament,0.6,100.0,standard,21.0,2.0,1.0,
724,10.0,decreament,0.6,100.0,standard,21.0,2.0,1.0,
725,10.0,decreament,0.6,100.0,standard,21.0,2.0,1.0,
726,10.0,decreament,0.6,100.0,standard,21.0,2.0,1.0,
727,10.0,decreament,0.6,100.0,standard,21.0,2.0,1.0,
728,10.0,decreament,0.6,100.0,standard,21.0,2.0,1.0,
729,10.0,decreament,0.6,100.0,standard,21.0,2.0,1.0,
730,10.0,decreament,0.6,100.0,standard,21.0,2.0,1.0,
731,10.0,decreament,0.6,100.0,standard,21.0,2.0,1.0,
732,10.0,decreament,0.6,100.0,standard,21.0,2.0,1.0,
733,10.0,decreament,0.6,100.0,standard,21.0,2.0,1.0,
734,10.0,decreament,0.6,100.0,standard,21.0,2.0,1.0,
735,10.0,decreament,0.6,100.0,standard,21.0,2.0,1.0,
736,10.0,decreament,0.6,100.0,standard,21.0,2.0,1.0,
737,10.0,decreament,0.6,100.0,standard,21.0,2.0,1.0,
738,10.0,decreament,0.24,40.0,oddball,22.0,2.0,1.0,0.6601618999848142
739,10.0,decreament,0.6,100.0,standard,21.0,2.0,1.0,
740,10.0,decreament,0.6,100.0,standard,21.0,2.0,1.0,
741,10.0,decreament,0.6,100.0,standard,21.0,2.0,1.0,
742,10.0,decreament,0.6,100.0,standard,21.0,2.0,1.0,
743,10.0,decreament,0.36,60.0,oddball,23.0,2.0,1.0,0.7799903999548405
744,10.0,decreament,0.6,100.0,standard,21.0,2.0,1.0,
745,10.0,decreament,0.6,100.0,standard,21.0,2.0,1.0,
746,10.0,decreament,0.6,100.0,standard,21.0,2.0,1.0,
747,10.0,decreament,0.48,80.0,oddball,24.0,2.0,0.0,
748,10.0,decreament,0.6,100.0,standard,21.0,2.0,1.0,
749,10.0,decreament,0.6,100.0,standard,21.0,2.0,1.0,
750,10.0,increament,0.6,100.0,standard,25.0,2.0,1.0,
751,10.0,increament,0.6,100.0,standard,25.0,2.0,1.0,
752,10.0,increament,0.6,100.0,standard,25.0,2.0,1.0,
753,10.0,increament,0.6,100.0,standard,25.0,2.0,1.0,
754,10.0,increament,0.6,100.0,standard,25.0,2.0,1.0,
755,10.0,increament,0.6,100.0,standard,25.0,2.0,1.0,
756,10.0,increament,0.6,100.0,standard,25.0,2.0,1.0,
757,10.0,increament,0.6,100.0,standard,25.0,2.0,1.0,
758,10.0,increament,0.6,100.0,standard,25.0,2.0,1.0,
759,10.0,increament,0.6,100.0,standard,25.0,2.0,1.0,
760,10.0,increament,0.6,100.0,standard,25.0,2.0,1.0,
761,10.0,increament,0.6,100.0,standard,25.0,2.0,1.0,
762,10.0,increament,0.6,100.0,standard,25.0,2.0,1.0,
763,10.0,increament,0.6,100.0,standard,25.0,2.0,1.0,
764,10.0,increament,0.6,100.0,standard,25.0,2.0,0.0,0.773236499982886
765,10.0,increament,0.72,120.0,oddball,26.0,2.0,1.0,0.7774578999960795
766,10.0,increament,0.6,100.0,standard,25.0,2.0,1.0,
767,10.0,increament,0.6,100.0,standard,25.0,2.0,1.0,
768,10.0,increament,0.6,100.0,standard,25.0,2.0,1.0,
769,10.0,increament,0.6,100.0,standard,25.0,2.0,1.0,
770,10.0,increament,0.6,100.0,standard,25.0,2.0,1.0,
771,10.0,increament,0.84,140.0,oddball,27.0,2.0,0.0,
772,10.0,increament,0.6,100.0,standard,25.0,2.0,1.0,
773,10.0,increament,0.6,100.0,standard,25.0,2.0,1.0,
774,10.0,increament,0.6,100.0,standard,25.0,2.0,1.0,
775,10.0,increament,0.6,100.0,standard,25.0,2.0,1.0,
776,10.0,increament,0.6,100.0,standard,25.0,2.0,1.0,
777,10.0,increament,0.96,160.0,oddball,28.0,2.0,1.0,0.7601829998893663
778,10.0,increament,0.6,100.0,standard,25.0,2.0,1.0,
779,10.0,increament,0.6,100.0,standard,25.0,2.0,1.0,
780,10.0,decreament,0.6,100.0,standard,21.0,2.0,1.0,
781,10.0,decreament,0.6,100.0,standard,21.0,2.0,1.0,
782,10.0,decreament,0.6,100.0,standard,21.0,2.0,1.0,
783,10.0,decreament,0.6,100.0,standard,21.0,2.0,1.0,
784,10.0,decreament,0.6,100.0,standard,21.0,2.0,1.0,
785,10.0,decreament,0.6,100.0,standard,21.0,2.0,1.0,
786,10.0,decreament,0.6,100.0,standard,21.0,2.0,1.0,
787,10.0,decreament,0.6,100.0,standard,21.0,2.0,1.0,
788,10.0,decreament,0.36,60.0,oddball,23.0,2.0,1.0,0.6280116999987513
789,10.0,decreament,0.6,100.0,standard,21.0,2.0,1.0,
790,10.0,decreament,0.6,100.0,standard,21.0,2.0,1.0,
791,10.0,decreament,0.6,100.0,standard,21.0,2.0,1.0,
792,10.0,decreament,0.6,100.0,standard,21.0,2.0,1.0,
793,10.0,decreament,0.24,40.0,oddball,22.0,2.0,1.0,0.8792421999387443
794,10.0,decreament,0.6,100.0,standard,21.0,2.0,1.0,
795,10.0,decreament,0.6,100.0,standard,21.0,2.0,1.0,
796,10.0,decreament,0.6,100.0,standard,21.0,2.0,1.0,
797,10.0,decreament,0.6,100.0,standard,21.0,2.0,1.0,
798,10.0,decreament,0.6,100.0,standard,21.0,2.0,1.0,
799,10.0,decreament,0.6,100.0,standard,21.0,2.0,1.0,
800,10.0,decreament,0.6,100.0,standard,21.0,2.0,1.0,
801,10.0,decreament,0.6,100.0,standard,21.0,2.0,1.0,
802,10.0,decreament,0.6,100.0,standard,21.0,2.0,1.0,
803,10.0,decreament,0.6,100.0,standard,21.0,2.0,1.0,
804,10.0,decreament,0.6,100.0,standard,21.0,2.0,1.0,
805,10.0,decreament,0.48,80.0,oddball,24.0,2.0,1.0,1.008590599987656
806,10.0,decreament,0.6,100.0,standard,21.0,2.0,1.0,
807,10.0,decreament,0.6,100.0,standard,21.0,2.0,1.0,
808,10.0,decreament,0.6,100.0,standard,21.0,2.0,1.0,
809,10.0,decreament,0.6,100.0,standard,21.0,2.0,1.0,
810,10.0,increament,0.6,100.0,standard,25.0,2.0,1.0,
811,10.0,increament,0.6,100.0,standard,25.0,2.0,1.0,
812,10.0,increament,0.6,100.0,standard,25.0,2.0,1.0,
813,10.0,increament,0.6,100.0,standard,25.0,2.0,1.0,
814,10.0,increament,0.6,100.0,standard,25.0,2.0,1.0,
815,10.0,increament,0.96,160.0,oddball,28.0,2.0,1.0,0.6353002999676391
816,10.0,increament,0.6,100.0,standard,25.0,2.0,1.0,
817,10.0,increament,0.6,100.0,standard,25.0,2.0,1.0,
818,10.0,increament,0.6,100.0,standard,25.0,2.0,1.0,
819,10.0,increament,0.6,100.0,standard,25.0,2.0,1.0,
820,10.0,increament,0.6,100.0,standard,25.0,2.0,1.0,
821,10.0,increament,0.6,100.0,standard,25.0,2.0,1.0,
822,10.0,increament,0.6,100.0,standard,25.0,2.0,1.0,
823,10.0,increament,0.6,100.0,standard,25.0,2.0,1.0,
824,10.0,increament,0.6,100.0,standard,25.0,2.0,1.0,
825,10.0,increament,0.6,100.0,standard,25.0,2.0,1.0,
826,10.0,increament,0.6,100.0,standard,25.0,2.0,1.0,
827,10.0,increament,0.6,100.0,standard,25.0,2.0,1.0,
828,10.0,increament,0.84,140.0,oddball,27.0,2.0,1.0,0.8383713000221178
829,10.0,increament,0.6,100.0,standard,25.0,2.0,1.0,
830,10.0,increament,0.6,100.0,standard,25.0,2.0,1.0,
831,10.0,increament,0.6,100.0,standard,25.0,2.0,1.0,
832,10.0,increament,0.6,100.0,standard,25.0,2.0,1.0,
833,10.0,increament,0.6,100.0,standard,25.0,2.0,1.0,
834,10.0,increament,0.6,100.0,standard,25.0,2.0,1.0,
835,10.0,increament,0.6,100.0,standard,25.0,2.0,1.0,
836,10.0,increament,0.6,100.0,standard,25.0,2.0,0.0,1.0805771000450477
837,10.0,increament,0.72,120.0,oddball,26.0,2.0,1.0,0.8687658999115229
838,10.0,increament,0.6,100.0,standard,25.0,2.0,1.0,
839,10.0,increament,0.6,100.0,standard,25.0,2.0,1.0,
840,10.0,decreament,0.6,100.0,standard,21.0,2.0,1.0,
841,10.0,decreament,0.6,100.0,standard,21.0,2.0,1.0,
842,10.0,decreament,0.6,100.0,standard,21.0,2.0,1.0,
843,10.0,decreament,0.6,100.0,standard,21.0,2.0,1.0,
844,10.0,decreament,0.6,100.0,standard,21.0,2.0,1.0,
845,10.0,decreament,0.24,40.0,oddball,22.0,2.0,1.0,0.696148999966681
846,10.0,decreament,0.6,100.0,standard,21.0,2.0,1.0,
847,10.0,decreament,0.6,100.0,standard,21.0,2.0,1.0,
848,10.0,decreament,0.6,100.0,standard,21.0,2.0,1.0,
849,10.0,decreament,0.6,100.0,standard,21.0,2.0,1.0,
850,10.0,decreament,0.6,100.0,standard,21.0,2.0,1.0,
851,10.0,decreament,0.6,100.0,standard,21.0,2.0,1.0,
852,10.0,decreament,0.36,60.0,oddball,23.0,2.0,1.0,0.7656949999509379
853,10.0,decreament,0.6,100.0,standard,21.0,2.0,1.0,
854,10.0,decreament,0.6,100.0,standard,21.0,2.0,1.0,
855,10.0,decreament,0.6,100.0,standard,21.0,2.0,1.0,
856,10.0,decreament,0.6,100.0,standard,21.0,2.0,1.0,
857,10.0,decreament,0.6,100.0,standard,21.0,2.0,1.0,
858,10.0,decreament,0.6,100.0,standard,21.0,2.0,1.0,
859,10.0,decreament,0.6,100.0,standard,21.0,2.0,1.0,
860,10.0,decreament,0.6,100.0,standard,21.0,2.0,1.0,
861,10.0,decreament,0.6,100.0,standard,21.0,2.0,1.0,
862,10.0,decreament,0.6,100.0,standard,21.0,2.0,1.0,
863,10.0,decreament,0.48,80.0,oddball,24.0,2.0,1.0,0.7911638000514358
864,10.0,decreament,0.6,100.0,standard,21.0,2.0,1.0,
865,10.0,decreament,0.6,100.0,standard,21.0,2.0,1.0,
866,10.0,decreament,0.6,100.0,standard,21.0,2.0,1.0,
867,10.0,decreament,0.6,100.0,standard,21.0,2.0,1.0,
868,10.0,decreament,0.6,100.0,standard,21.0,2.0,0.0,0.6447440000483766
869,10.0,decreament,0.6,100.0,standard,21.0,2.0,1.0,
870,10.0,increament,0.6,100.0,standard,25.0,2.0,1.0,
871,10.0,increament,0.6,100.0,standard,25.0,2.0,1.0,
872,10.0,increament,0.6,100.0,standard,25.0,2.0,1.0,
873,10.0,increament,0.6,100.0,standard,25.0,2.0,1.0,
874,10.0,increament,0.6,100.0,standard,25.0,2.0,0.0,0.7794373000506312
875,10.0,increament,0.6,100.0,standard,25.0,2.0,1.0,
876,10.0,increament,0.6,100.0,standard,25.0,2.0,1.0,
877,10.0,increament,0.6,100.0,standard,25.0,2.0,1.0,
878,10.0,increament,0.6,100.0,standard,25.0,2.0,1.0,
879,10.0,increament,0.6,100.0,standard,25.0,2.0,1.0,
880,10.0,increament,0.6,100.0,standard,25.0,2.0,1.0,
881,10.0,increament,0.6,100.0,standard,25.0,2.0,1.0,
882,10.0,increament,0.6,100.0,standard,25.0,2.0,1.0,
883,10.0,increament,0.6,100.0,standard,25.0,2.0,1.0,
884,10.0,increament,0.6,100.0,standard,25.0,2.0,1.0,
885,10.0,increament,0.6,100.0,standard,25.0,2.0,1.0,
886,10.0,increament,0.6,100.0,standard,25.0,2.0,1.0,
887,10.0,increament,0.72,120.0,oddball,26.0,2.0,1.0,0.9311723000137136
888,10.0,increament,0.6,100.0,standard,25.0,2.0,1.0,
889,10.0,increament,0.6,100.0,standard,25.0,2.0,1.0,
890,10.0,increament,0.6,100.0,standard,25.0,2.0,1.0,
891,10.0,increament,0.6,100.0,standard,25.0,2.0,1.0,
892,10.0,increament,0.6,100.0,standard,25.0,2.0,1.0,
893,10.0,increament,0.96,160.0,oddball,28.0,2.0,0.0,
894,10.0,increament,0.6,100.0,standard,25.0,2.0,1.0,
895,10.0,increament,0.6,100.0,standard,25.0,2.0,1.0,
896,10.0,increament,0.6,100.0,standard,25.0,2.0,1.0,
897,10.0,increament,0.84,140.0,oddball,27.0,2.0,1.0,0.744395799934864
898,10.0,increament,0.6,100.0,standard,25.0,2.0,1.0,
899,10.0,increament,0.6,100.0,standard,25.0,2.0,1.0,
900,5.0,decreament,0.6,100.0,standard,11.0,3.0,1.0,
901,5.0,decreament,0.6,100.0,standard,11.0,3.0,1.0,
902,5.0,decreament,0.6,100.0,standard,11.0,3.0,1.0,
903,5.0,decreament,0.6,100.0,standard,11.0,3.0,1.0,
904,5.0,decreament,0.6,100.0,standard,11.0,3.0,1.0,
905,5.0,decreament,0.6,100.0,standard,11.0,3.0,1.0,
906,5.0,decreament,0.6,100.0,standard,11.0,3.0,1.0,
907,5.0,decreament,0.6,100.0,standard,11.0,3.0,1.0,
908,5.0,decreament,0.6,100.0,standard,11.0,3.0,1.0,
909,5.0,decreament,0.6,100.0,standard,11.0,3.0,1.0,
910,5.0,decreament,0.6,100.0,standard,11.0,3.0,1.0,
911,5.0,decreament,0.36,60.0,oddball,13.0,3.0,1.0,0.728431100025773
912,5.0,decreament,0.6,100.0,standard,11.0,3.0,1.0,
913,5.0,decreament,0.6,100.0,standard,11.0,3.0,1.0,
914,5.0,decreament,0.6,100.0,standard,11.0,3.0,1.0,
915,5.0,decreament,0.6,100.0,standard,11.0,3.0,1.0,
916,5.0,decreament,0.6,100.0,standard,11.0,3.0,1.0,
917,5.0,decreament,0.6,100.0,standard,11.0,3.0,1.0,
918,5.0,decreament,0.48,80.0,oddball,14.0,3.0,1.0,1.4654486998915672
919,5.0,decreament,0.6,100.0,standard,11.0,3.0,1.0,
920,5.0,decreament,0.6,100.0,standard,11.0,3.0,0.0,0.7419209000654519
921,5.0,decreament,0.6,100.0,standard,11.0,3.0,1.0,
922,5.0,decreament,0.6,100.0,standard,11.0,3.0,0.0,0.6839370999950916
923,5.0,decreament,0.6,100.0,standard,11.0,3.0,0.0,0.8415320999920368
924,5.0,decreament,0.6,100.0,standard,11.0,3.0,1.0,
925,5.0,decreament,0.6,100.0,standard,11.0,3.0,1.0,
926,5.0,decreament,0.6,100.0,standard,11.0,3.0,1.0,
927,5.0,decreament,0.6,100.0,standard,11.0,3.0,0.0,0.6978075000224635
928,5.0,decreament,0.6,100.0,standard,11.0,3.0,1.0,
929,5.0,decreament,0.24,40.0,oddball,12.0,3.0,1.0,0.7819276000373065
930,5.0,increament,0.6,100.0,standard,15.0,3.0,1.0,
931,5.0,increament,0.6,100.0,standard,15.0,3.0,1.0,
932,5.0,increament,0.6,100.0,standard,15.0,3.0,1.0,
933,5.0,increament,0.6,100.0,standard,15.0,3.0,0.0,0.7185462000779808
934,5.0,increament,0.6,100.0,standard,15.0,3.0,1.0,
935,5.0,increament,0.6,100.0,standard,15.0,3.0,1.0,
936,5.0,increament,0.6,100.0,standard,15.0,3.0,1.0,
937,5.0,increament,0.6,100.0,standard,15.0,3.0,0.0,0.6561696999706328
938,5.0,increament,0.6,100.0,standard,15.0,3.0,1.0,
939,5.0,increament,0.6,100.0,standard,15.0,3.0,1.0,
940,5.0,increament,0.6,100.0,standard,15.0,3.0,1.0,
941,5.0,increament,0.6,100.0,standard,15.0,3.0,0.0,0.6195004000328481
942,5.0,increament,0.6,100.0,standard,15.0,3.0,0.0,0.755263700033538
943,5.0,increament,0.6,100.0,standard,15.0,3.0,1.0,
944,5.0,increament,0.6,100.0,standard,15.0,3.0,1.0,
945,5.0,increament,0.84,140.0,oddball,17.0,3.0,1.0,0.6241927000228316
946,5.0,increament,0.6,100.0,standard,15.0,3.0,1.0,
947,5.0,increament,0.6,100.0,standard,15.0,3.0,1.0,
948,5.0,increament,0.6,100.0,standard,15.0,3.0,1.0,
949,5.0,increament,0.6,100.0,standard,15.0,3.0,1.0,
950,5.0,increament,0.72,120.0,oddball,16.0,3.0,1.0,0.7154128000838682
951,5.0,increament,0.6,100.0,standard,15.0,3.0,1.0,
952,5.0,increament,0.6,100.0,standard,15.0,3.0,1.0,
953,5.0,increament,0.6,100.0,standard,15.0,3.0,1.0,
954,5.0,increament,0.6,100.0,standard,15.0,3.0,1.0,
955,5.0,increament,0.6,100.0,standard,15.0,3.0,1.0,
956,5.0,increament,0.6,100.0,standard,15.0,3.0,1.0,
957,5.0,increament,0.6,100.0,standard,15.0,3.0,1.0,
958,5.0,increament,0.96,160.0,oddball,18.0,3.0,1.0,0.6720038000494242
959,5.0,increament,0.6,100.0,standard,15.0,3.0,1.0,
960,5.0,decreament,0.6,100.0,standard,11.0,3.0,1.0,
961,5.0,decreament,0.6,100.0,standard,11.0,3.0,1.0,
962,5.0,decreament,0.6,100.0,standard,11.0,3.0,1.0,
963,5.0,decreament,0.6,100.0,standard,11.0,3.0,1.0,
964,5.0,decreament,0.6,100.0,standard,11.0,3.0,1.0,
965,5.0,decreament,0.6,100.0,standard,11.0,3.0,1.0,
966,5.0,decreament,0.6,100.0,standard,11.0,3.0,1.0,
967,5.0,decreament,0.6,100.0,standard,11.0,3.0,1.0,
968,5.0,decreament,0.6,100.0,standard,11.0,3.0,1.0,
969,5.0,decreament,0.6,100.0,standard,11.0,3.0,1.0,
970,5.0,decreament,0.6,100.0,standard,11.0,3.0,1.0,
971,5.0,decreament,0.6,100.0,standard,11.0,3.0,1.0,
972,5.0,decreament,0.6,100.0,standard,11.0,3.0,1.0,
973,5.0,decreament,0.36,60.0,oddball,13.0,3.0,1.0,0.5679542000871152
974,5.0,decreament,0.6,100.0,standard,11.0,3.0,1.0,
975,5.0,decreament,0.6,100.0,standard,11.0,3.0,1.0,
976,5.0,decreament,0.6,100.0,standard,11.0,3.0,1.0,
977,5.0,decreament,0.6,100.0,standard,11.0,3.0,1.0,
978,5.0,decreament,0.6,100.0,standard,11.0,3.0,1.0,
979,5.0,decreament,0.48,80.0,oddball,14.0,3.0,1.0,0.8707367000170052
980,5.0,decreament,0.6,100.0,standard,11.0,3.0,1.0,
981,5.0,decreament,0.6,100.0,standard,11.0,3.0,1.0,
982,5.0,decreament,0.6,100.0,standard,11.0,3.0,1.0,
983,5.0,decreament,0.6,100.0,standard,11.0,3.0,1.0,
984,5.0,decreament,0.6,100.0,standard,11.0,3.0,1.0,
985,5.0,decreament,0.24,40.0,oddball,12.0,3.0,1.0,0.8451870999997482
986,5.0,decreament,0.6,100.0,standard,11.0,3.0,1.0,
987,5.0,decreament,0.6,100.0,standard,11.0,3.0,1.0,
988,5.0,decreament,0.6,100.0,standard,11.0,3.0,1.0,
989,5.0,decreament,0.6,100.0,standard,11.0,3.0,1.0,
990,5.0,increament,0.6,100.0,standard,15.0,3.0,1.0,
991,5.0,increament,0.6,100.0,standard,15.0,3.0,1.0,
992,5.0,increament,0.6,100.0,standard,15.0,3.0,1.0,
993,5.0,increament,0.6,100.0,standard,15.0,3.0,1.0,
994,5.0,increament,0.6,100.0,standard,15.0,3.0,1.0,
995,5.0,increament,0.6,100.0,standard,15.0,3.0,1.0,
996,5.0,increament,0.6,100.0,standard,15.0,3.0,1.0,
997,5.0,increament,0.96,160.0,oddball,18.0,3.0,1.0,0.7816588999703526
998,5.0,increament,0.6,100.0,standard,15.0,3.0,1.0,
999,5.0,increament,0.6,100.0,standard,15.0,3.0,1.0,
1000,5.0,increament,0.6,100.0,standard,15.0,3.0,1.0,
1001,5.0,increament,0.6,100.0,standard,15.0,3.0,1.0,
1002,5.0,increament,0.6,100.0,standard,15.0,3.0,1.0,
1003,5.0,increament,0.6,100.0,standard,15.0,3.0,1.0,
1004,5.0,increament,0.6,100.0,standard,15.0,3.0,1.0,
1005,5.0,increament,0.84,140.0,oddball,17.0,3.0,1.0,0.6056601000018418
1006,5.0,increament,0.6,100.0,standard,15.0,3.0,1.0,
1007,5.0,increament,0.6,100.0,standard,15.0,3.0,1.0,
1008,5.0,increament,0.6,100.0,standard,15.0,3.0,1.0,
1009,5.0,increament,0.6,100.0,standard,15.0,3.0,1.0,
1010,5.0,increament,0.6,100.0,standard,15.0,3.0,1.0,
1011,5.0,increament,0.6,100.0,standard,15.0,3.0,1.0,
1012,5.0,increament,0.6,100.0,standard,15.0,3.0,1.0,
1013,5.0,increament,0.6,100.0,standard,15.0,3.0,1.0,
1014,5.0,increament,0.6,100.0,standard,15.0,3.0,1.0,
1015,5.0,increament,0.6,100.0,standard,15.0,3.0,1.0,
1016,5.0,increament,0.6,100.0,standard,15.0,3.0,1.0,
1017,5.0,increament,0.6,100.0,standard,15.0,3.0,1.0,
1018,5.0,increament,0.6,100.0,standard,15.0,3.0,1.0,
1019,5.0,increament,0.72,120.0,oddball,16.0,3.0,0.0,
1020,5.0,decreament,0.6,100.0,standard,11.0,3.0,1.0,
1021,5.0,decreament,0.6,100.0,standard,11.0,3.0,1.0,
1022,5.0,decreament,0.6,100.0,standard,11.0,3.0,1.0,
1023,5.0,decreament,0.6,100.0,standard,11.0,3.0,1.0,
1024,5.0,decreament,0.6,100.0,standard,11.0,3.0,1.0,
1025,5.0,decreament,0.6,100.0,standard,11.0,3.0,1.0,
1026,5.0,decreament,0.6,100.0,standard,11.0,3.0,1.0,
1027,5.0,decreament,0.6,100.0,standard,11.0,3.0,1.0,
1028,5.0,decreament,0.6,100.0,standard,11.0,3.0,1.0,
1029,5.0,decreament,0.6,100.0,standard,11.0,3.0,1.0,
1030,5.0,decreament,0.6,100.0,standard,11.0,3.0,1.0,
1031,5.0,decreament,0.6,100.0,standard,11.0,3.0,1.0,
1032,5.0,decreament,0.6,100.0,standard,11.0,3.0,1.0,
1033,5.0,decreament,0.6,100.0,standard,11.0,3.0,1.0,
1034,5.0,decreament,0.6,100.0,standard,11.0,3.0,1.0,
1035,5.0,decreament,0.36,60.0,oddball,13.0,3.0,1.0,0.856961999903433
1036,5.0,decreament,0.6,100.0,standard,11.0,3.0,1.0,
1037,5.0,decreament,0.6,100.0,standard,11.0,3.0,1.0,
1038,5.0,decreament,0.6,100.0,standard,11.0,3.0,1.0,
1039,5.0,decreament,0.6,100.0,standard,11.0,3.0,0.0,1.0186776000773534
1040,5.0,decreament,0.48,80.0,oddball,14.0,3.0,1.0,0.8717768000205979
1041,5.0,decreament,0.6,100.0,standard,11.0,3.0,1.0,
1042,5.0,decreament,0.6,100.0,standard,11.0,3.0,1.0,
1043,5.0,decreament,0.6,100.0,standard,11.0,3.0,1.0,
1044,5.0,decreament,0.6,100.0,standard,11.0,3.0,1.0,
1045,5.0,decreament,0.24,40.0,oddball,12.0,3.0,1.0,0.6921062000328675
1046,5.0,decreament,0.6,100.0,standard,11.0,3.0,1.0,
1047,5.0,decreament,0.6,100.0,standard,11.0,3.0,1.0,
1048,5.0,decreament,0.6,100.0,standard,11.0,3.0,1.0,
1049,5.0,decreament,0.6,100.0,standard,11.0,3.0,1.0,
1050,5.0,increament,0.6,100.0,standard,15.0,3.0,1.0,
1051,5.0,increament,0.6,100.0,standard,15.0,3.0,1.0,
1052,5.0,increament,0.6,100.0,standard,15.0,3.0,1.0,
1053,5.0,increament,0.6,100.0,standard,15.0,3.0,1.0,
1054,5.0,increament,0.6,100.0,standard,15.0,3.0,0.0,0.9684997000731528
1055,5.0,increament,0.6,100.0,standard,15.0,3.0,1.0,
1056,5.0,increament,0.6,100.0,standard,15.0,3.0,1.0,
1057,5.0,increament,0.96,160.0,oddball,18.0,3.0,1.0,0.8480549999512732
1058,5.0,increament,0.6,100.0,standard,15.0,3.0,1.0,
1059,5.0,increament,0.6,100.0,standard,15.0,3.0,1.0,
1060,5.0,increament,0.6,100.0,standard,15.0,3.0,1.0,
1061,5.0,increament,0.6,100.0,standard,15.0,3.0,1.0,
1062,5.0,increament,0.72,120.0,oddball,16.0,3.0,0.0,
1063,5.0,increament,0.6,100.0,standard,15.0,3.0,1.0,
1064,5.0,increament,0.6,100.0,standard,15.0,3.0,1.0,
1065,5.0,increament,0.6,100.0,standard,15.0,3.0,1.0,
1066,5.0,increament,0.6,100.0,standard,15.0,3.0,1.0,
1067,5.0,increament,0.84,140.0,oddball,17.0,3.0,1.0,0.6202841000631452
1068,5.0,increament,0.6,100.0,standard,15.0,3.0,1.0,
1069,5.0,increament,0.6,100.0,standard,15.0,3.0,1.0,
1070,5.0,increament,0.6,100.0,standard,15.0,3.0,1.0,
1071,5.0,increament,0.6,100.0,standard,15.0,3.0,1.0,
1072,5.0,increament,0.6,100.0,standard,15.0,3.0,1.0,
1073,5.0,increament,0.6,100.0,standard,15.0,3.0,1.0,
1074,5.0,increament,0.6,100.0,standard,15.0,3.0,1.0,
1075,5.0,increament,0.6,100.0,standard,15.0,3.0,1.0,
1076,5.0,increament,0.6,100.0,standard,15.0,3.0,1.0,
1077,5.0,increament,0.6,100.0,standard,15.0,3.0,1.0,
1078,5.0,increament,0.6,100.0,standard,15.0,3.0,1.0,
1079,5.0,increament,0.6,100.0,standard,15.0,3.0,1.0,
1080,5.0,decreament,0.6,100.0,standard,11.0,3.0,1.0,
1081,5.0,decreament,0.6,100.0,standard,11.0,3.0,1.0,
1082,5.0,decreament,0.6,100.0,standard,11.0,3.0,1.0,
1083,5.0,decreament,0.6,100.0,standard,11.0,3.0,1.0,
1084,5.0,decreament,0.6,100.0,standard,11.0,3.0,1.0,
1085,5.0,decreament,0.6,100.0,standard,11.0,3.0,1.0,
1086,5.0,decreament,0.6,100.0,standard,11.0,3.0,1.0,
1087,5.0,decreament,0.6,100.0,standard,11.0,3.0,1.0,
1088,5.0,decreament,0.6,100.0,standard,11.0,3.0,1.0,
1089,5.0,decreament,0.6,100.0,standard,11.0,3.0,1.0,
1090,5.0,decreament,0.6,100.0,standard,11.0,3.0,1.0,
1091,5.0,decreament,0.6,100.0,standard,11.0,3.0,1.0,
1092,5.0,decreament,0.6,100.0,standard,11.0,3.0,1.0,
1093,5.0,decreament,0.6,100.0,standard,11.0,3.0,1.0,
1094,5.0,decreament,0.6,100.0,standard,11.0,3.0,1.0,
1095,5.0,decreament,0.6,100.0,standard,11.0,3.0,1.0,
1096,5.0,decreament,0.48,80.0,oddball,14.0,3.0,1.0,0.8573070999700576
1097,5.0,decreament,0.6,100.0,standard,11.0,3.0,1.0,
1098,5.0,decreament,0.6,100.0,standard,11.0,3.0,1.0,
1099,5.0,decreament,0.6,100.0,standard,11.0,3.0,1.0,
1100,5.0,decreament,0.6,100.0,standard,11.0,3.0,1.0,
1101,5.0,decreament,0.6,100.0,standard,11.0,3.0,0.0,0.6305975000141189
1102,5.0,decreament,0.6,100.0,standard,11.0,3.0,1.0,
1103,5.0,decreament,0.6,100.0,standard,11.0,3.0,1.0,
1104,5.0,decreament,0.36,60.0,oddball,13.0,3.0,1.0,0.8186069000512362
1105,5.0,decreament,0.6,100.0,standard,11.0,3.0,1.0,
1106,5.0,decreament,0.6,100.0,standard,11.0,3.0,1.0,
1107,5.0,decreament,0.6,100.0,standard,11.0,3.0,0.0,0.9157712999731302
1108,5.0,decreament,0.24,40.0,oddball,12.0,3.0,1.0,0.6989525000099093
1109,5.0,decreament,0.6,100.0,standard,11.0,3.0,1.0,
1110,5.0,increament,0.6,100.0,standard,15.0,3.0,1.0,
1111,5.0,increament,0.6,100.0,standard,15.0,3.0,1.0,
1112,5.0,increament,0.6,100.0,standard,15.0,3.0,1.0,
1113,5.0,increament,0.6,100.0,standard,15.0,3.0,1.0,
1114,5.0,increament,0.6,100.0,standard,15.0,3.0,1.0,
1115,5.0,increament,0.6,100.0,standard,15.0,3.0,1.0,
1116,5.0,increament,0.6,100.0,standard,15.0,3.0,1.0,
1117,5.0,increament,0.6,100.0,standard,15.0,3.0,1.0,
1118,5.0,increament,0.96,160.0,oddball,18.0,3.0,1.0,0.5033409999450669
1119,5.0,increament,0.6,100.0,standard,15.0,3.0,1.0,
1120,5.0,increament,0.6,100.0,standard,15.0,3.0,1.0,
1121,5.0,increament,0.6,100.0,standard,15.0,3.0,1.0,
1122,5.0,increament,0.6,100.0,standard,15.0,3.0,1.0,
1123,5.0,increament,0.6,100.0,standard,15.0,3.0,1.0,
1124,5.0,increament,0.6,100.0,standard,15.0,3.0,1.0,
1125,5.0,increament,0.6,100.0,standard,15.0,3.0,1.0,
1126,5.0,increament,0.6,100.0,standard,15.0,3.0,1.0,
1127,5.0,increament,0.6,100.0,standard,15.0,3.0,1.0,
1128,5.0,increament,0.6,100.0,standard,15.0,3.0,1.0,
1129,5.0,increament,0.6,100.0,standard,15.0,3.0,1.0,
1130,5.0,increament,0.84,140.0,oddball,17.0,3.0,1.0,0.5939408000558615
1131,5.0,increament,0.6,100.0,standard,15.0,3.0,1.0,
1132,5.0,increament,0.6,100.0,standard,15.0,3.0,1.0,
1133,5.0,increament,0.6,100.0,standard,15.0,3.0,1.0,
1134,5.0,increament,0.6,100.0,standard,15.0,3.0,1.0,
1135,5.0,increament,0.6,100.0,standard,15.0,3.0,1.0,
1136,5.0,increament,0.6,100.0,standard,15.0,3.0,1.0,
1137,5.0,increament,0.6,100.0,standard,15.0,3.0,1.0,
1138,5.0,increament,0.72,120.0,oddball,16.0,3.0,0.0,
1139,5.0,increament,0.6,100.0,standard,15.0,3.0,1.0,
1140,5.0,decreament,0.6,100.0,standard,11.0,3.0,1.0,
1141,5.0,decreament,0.6,100.0,standard,11.0,3.0,1.0,
1142,5.0,decreament,0.6,100.0,standard,11.0,3.0,1.0,
1143,5.0,decreament,0.6,100.0,standard,11.0,3.0,1.0,
1144,5.0,decreament,0.6,100.0,standard,11.0,3.0,1.0,
1145,5.0,decreament,0.6,100.0,standard,11.0,3.0,1.0,
1146,5.0,decreament,0.6,100.0,standard,11.0,3.0,1.0,
1147,5.0,decreament,0.6,100.0,standard,11.0,3.0,1.0,
1148,5.0,decreament,0.6,100.0,standard,11.0,3.0,0.0,1.1019445999991149
1149,5.0,decreament,0.6,100.0,standard,11.0,3.0,1.0,
1150,5.0,decreament,0.6,100.0,standard,11.0,3.0,0.0,0.6990059999516234
1151,5.0,decreament,0.6,100.0,standard,11.0,3.0,1.0,
1152,5.0,decreament,0.6,100.0,standard,11.0,3.0,1.0,
1153,5.0,decreament,0.6,100.0,standard,11.0,3.0,1.0,
1154,5.0,decreament,0.6,100.0,standard,11.0,3.0,1.0,
1155,5.0,decreament,0.48,80.0,oddball,14.0,3.0,1.0,0.9114384999265894
1156,5.0,decreament,0.6,100.0,standard,11.0,3.0,1.0,
1157,5.0,decreament,0.6,100.0,standard,11.0,3.0,1.0,
1158,5.0,decreament,0.6,100.0,standard,11.0,3.0,1.0,
1159,5.0,decreament,0.24,40.0,oddball,12.0,3.0,1.0,0.5755970999598503
1160,5.0,decreament,0.6,100.0,standard,11.0,3.0,1.0,
1161,5.0,decreament,0.6,100.0,standard,11.0,3.0,1.0,
1162,5.0,decreament,0.6,100.0,standard,11.0,3.0,1.0,
1163,5.0,decreament,0.6,100.0,standard,11.0,3.0,1.0,
1164,5.0,decreament,0.6,100.0,standard,11.0,3.0,1.0,
1165,5.0,decreament,0.6,100.0,standard,11.0,3.0,0.0,0.844076499924995
1166,5.0,decreament,0.36,60.0,oddball,13.0,3.0,1.0,0.7873781999805942
1167,5.0,decreament,0.6,100.0,standard,11.0,3.0,1.0,
1168,5.0,decreament,0.6,100.0,standard,11.0,3.0,1.0,
1169,5.0,decreament,0.6,100.0,standard,11.0,3.0,0.0,0.921877000015229
1170,5.0,increament,0.6,100.0,standard,15.0,3.0,1.0,
1171,5.0,increament,0.6,100.0,standard,15.0,3.0,1.0,
1172,5.0,increament,0.6,100.0,standard,15.0,3.0,1.0,
1173,5.0,increament,0.6,100.0,standard,15.0,3.0,1.0,
1174,5.0,increament,0.6,100.0,standard,15.0,3.0,1.0,
1175,5.0,increament,0.6,100.0,standard,15.0,3.0,1.0,
1176,5.0,increament,0.6,100.0,standard,15.0,3.0,1.0,
1177,5.0,increament,0.6,100.0,standard,15.0,3.0,1.0,
1178,5.0,increament,0.6,100.0,standard,15.0,3.0,1.0,
1179,5.0,increament,0.72,120.0,oddball,16.0,3.0,0.0,
1180,5.0,increament,0.6,100.0,standard,15.0,3.0,1.0,
1181,5.0,increament,0.6,100.0,standard,15.0,3.0,1.0,
1182,5.0,increament,0.6,100.0,standard,15.0,3.0,1.0,
1183,5.0,increament,0.6,100.0,standard,15.0,3.0,1.0,
1184,5.0,increament,0.6,100.0,standard,15.0,3.0,1.0,
1185,5.0,increament,0.6,100.0,standard,15.0,3.0,1.0,
1186,5.0,increament,0.6,100.0,standard,15.0,3.0,0.0,0.6192345001036301
1187,5.0,increament,0.6,100.0,standard,15.0,3.0,0.0,0.7181801999686286
1188,5.0,increament,0.6,100.0,standard,15.0,3.0,1.0,
1189,5.0,increament,0.6,100.0,standard,15.0,3.0,1.0,
1190,5.0,increament,0.6,100.0,standard,15.0,3.0,1.0,
1191,5.0,increament,0.6,100.0,standard,15.0,3.0,1.0,
1192,5.0,increament,0.6,100.0,standard,15.0,3.0,1.0,
1193,5.0,increament,0.84,140.0,oddball,17.0,3.0,1.0,0.7015131000662223
1194,5.0,increament,0.6,100.0,standard,15.0,3.0,1.0,
1195,5.0,increament,0.6,100.0,standard,15.0,3.0,1.0,
1196,5.0,increament,0.6,100.0,standard,15.0,3.0,1.0,
1197,5.0,increament,0.96,160.0,oddball,18.0,3.0,1.0,0.813228499959223
1198,5.0,increament,0.6,100.0,standard,15.0,3.0,1.0,
1199,5.0,increament,0.6,100.0,standard,15.0,3.0,1.0,
