,grating_freq,direction,duration,scaling,stim_type,trigger,blocks.thisN,resp.corr,resp.rt
0,10.0,decreament,0.6,100.0,standard,21.0,0.0,1.0,
1,10.0,decreament,0.6,100.0,standard,21.0,0.0,1.0,
2,10.0,decreament,0.6,100.0,standard,21.0,0.0,1.0,
3,10.0,decreament,0.6,100.0,standard,21.0,0.0,1.0,
4,10.0,decreament,0.6,100.0,standard,21.0,0.0,1.0,
5,10.0,decreament,0.6,100.0,standard,21.0,0.0,1.0,
6,10.0,decreament,0.6,100.0,standard,21.0,0.0,1.0,
7,10.0,decreament,0.6,100.0,standard,21.0,0.0,1.0,
8,10.0,decreament,0.6,100.0,standard,21.0,0.0,1.0,
9,10.0,decreament,0.6,100.0,standard,21.0,0.0,0.0,0.983394800000042
10,10.0,decreament,0.24,40.0,oddball,22.0,0.0,1.0,0.4502007000000958
11,10.0,decreament,0.6,100.0,standard,21.0,0.0,1.0,
12,10.0,decreament,0.6,100.0,standard,21.0,0.0,1.0,
13,10.0,decreament,0.6,100.0,standard,21.0,0.0,1.0,
14,10.0,decreament,0.6,100.0,standard,21.0,0.0,1.0,
15,10.0,decreament,0.6,100.0,standard,21.0,0.0,1.0,
16,10.0,decreament,0.36,60.0,oddball,23.0,0.0,1.0,0.4439545999998699
17,10.0,decreament,0.6,100.0,standard,21.0,0.0,1.0,
18,10.0,decreament,0.6,100.0,standard,21.0,0.0,1.0,
19,10.0,decreament,0.6,100.0,standard,21.0,0.0,1.0,
20,10.0,decreament,0.6,100.0,standard,21.0,0.0,1.0,
21,10.0,decreament,0.6,100.0,standard,21.0,0.0,1.0,
22,10.0,decreament,0.48,80.0,oddball,24.0,0.0,0.0,
23,10.0,decreament,0.6,100.0,standard,21.0,0.0,1.0,
24,10.0,decreament,0.6,100.0,standard,21.0,0.0,1.0,
25,10.0,decreament,0.6,100.0,standard,21.0,0.0,1.0,
26,10.0,decreament,0.6,100.0,standard,21.0,0.0,1.0,
27,10.0,decreament,0.6,100.0,standard,21.0,0.0,1.0,
28,10.0,decreament,0.6,100.0,standard,21.0,0.0,1.0,
29,10.0,decreament,0.6,100.0,standard,21.0,0.0,1.0,
30,10.0,increament,0.6,100.0,standard,25.0,0.0,1.0,
31,10.0,increament,0.6,100.0,standard,25.0,0.0,1.0,
32,10.0,increament,0.6,100.0,standard,25.0,0.0,1.0,
33,10.0,increament,0.6,100.0,standard,25.0,0.0,1.0,
34,10.0,increament,0.6,100.0,standard,25.0,0.0,1.0,
35,10.0,increament,0.6,100.0,standard,25.0,0.0,1.0,
36,10.0,increament,0.6,100.0,standard,25.0,0.0,1.0,
37,10.0,increament,0.6,100.0,standard,25.0,0.0,1.0,
38,10.0,increament,0.72,120.0,oddball,26.0,0.0,1.0,0.3357522000001154
39,10.0,increament,0.6,100.0,standard,25.0,0.0,1.0,
40,10.0,increament,0.6,100.0,standard,25.0,0.0,1.0,
41,10.0,increament,0.6,100.0,standard,25.0,0.0,1.0,
42,10.0,increament,0.6,100.0,standard,25.0,0.0,1.0,
43,10.0,increament,0.6,100.0,standard,25.0,0.0,0.0,0.553820099999939
44,10.0,increament,0.6,100.0,standard,25.0,0.0,1.0,
45,10.0,increament,0.84,140.0,oddball,27.0,0.0,1.0,0.4348401000002013
46,10.0,increament,0.6,100.0,standard,25.0,0.0,1.0,
47,10.0,increament,0.6,100.0,standard,25.0,0.0,1.0,
48,10.0,increament,0.6,100.0,standard,25.0,0.0,1.0,
49,10.0,increament,0.6,100.0,standard,25.0,0.0,1.0,
50,10.0,increament,0.6,100.0,standard,25.0,0.0,1.0,
51,10.0,increament,0.6,100.0,standard,25.0,0.0,1.0,
52,10.0,increament,0.6,100.0,standard,25.0,0.0,1.0,
53,10.0,increament,0.6,100.0,standard,25.0,0.0,1.0,
54,10.0,increament,0.96,160.0,oddball,28.0,0.0,1.0,0.1287536999998337
55,10.0,increament,0.6,100.0,standard,25.0,0.0,1.0,
56,10.0,increament,0.6,100.0,standard,25.0,0.0,1.0,
57,10.0,increament,0.6,100.0,standard,25.0,0.0,1.0,
58,10.0,increament,0.6,100.0,standard,25.0,0.0,1.0,
59,10.0,increament,0.6,100.0,standard,25.0,0.0,1.0,
60,10.0,decreament,0.6,100.0,standard,21.0,0.0,1.0,
61,10.0,decreament,0.6,100.0,standard,21.0,0.0,1.0,
62,10.0,decreament,0.6,100.0,standard,21.0,0.0,1.0,
63,10.0,decreament,0.6,100.0,standard,21.0,0.0,1.0,
64,10.0,decreament,0.6,100.0,standard,21.0,0.0,1.0,
65,10.0,decreament,0.6,100.0,standard,21.0,0.0,1.0,
66,10.0,decreament,0.24,40.0,oddball,22.0,0.0,1.0,0.4561281999999664
67,10.0,decreament,0.6,100.0,standard,21.0,0.0,1.0,
68,10.0,decreament,0.6,100.0,standard,21.0,0.0,1.0,
69,10.0,decreament,0.6,100.0,standard,21.0,0.0,1.0,
70,10.0,decreament,0.6,100.0,standard,21.0,0.0,1.0,
71,10.0,decreament,0.6,100.0,standard,21.0,0.0,1.0,
72,10.0,decreament,0.48,80.0,oddball,24.0,0.0,1.0,0.6831694999996216
73,10.0,decreament,0.6,100.0,standard,21.0,0.0,1.0,
74,10.0,decreament,0.6,100.0,standard,21.0,0.0,1.0,
75,10.0,decreament,0.6,100.0,standard,21.0,0.0,1.0,
76,10.0,decreament,0.6,100.0,standard,21.0,0.0,1.0,
77,10.0,decreament,0.6,100.0,standard,21.0,0.0,1.0,
78,10.0,decreament,0.6,100.0,standard,21.0,0.0,0.0,0.6073719000000892
79,10.0,decreament,0.6,100.0,standard,21.0,0.0,0.0,0.6542097999999896
80,10.0,decreament,0.6,100.0,standard,21.0,0.0,1.0,
81,10.0,decreament,0.6,100.0,standard,21.0,0.0,1.0,
82,10.0,decreament,0.6,100.0,standard,21.0,0.0,1.0,
83,10.0,decreament,0.6,100.0,standard,21.0,0.0,0.0,0.6702790999997887
84,10.0,decreament,0.6,100.0,standard,21.0,0.0,1.0,
85,10.0,decreament,0.6,100.0,standard,21.0,0.0,1.0,
86,10.0,decreament,0.36,60.0,oddball,23.0,0.0,1.0,0.5392495999999483
87,10.0,decreament,0.6,100.0,standard,21.0,0.0,1.0,
88,10.0,decreament,0.6,100.0,standard,21.0,0.0,1.0,
89,10.0,decreament,0.6,100.0,standard,21.0,0.0,1.0,
90,10.0,increament,0.6,100.0,standard,25.0,0.0,1.0,
91,10.0,increament,0.6,100.0,standard,25.0,0.0,1.0,
92,10.0,increament,0.6,100.0,standard,25.0,0.0,1.0,
93,10.0,increament,0.6,100.0,standard,25.0,0.0,1.0,
94,10.0,increament,0.6,100.0,standard,25.0,0.0,1.0,
95,10.0,increament,0.84,140.0,oddball,27.0,0.0,0.0,
96,10.0,increament,0.6,100.0,standard,25.0,0.0,1.0,
97,10.0,increament,0.6,100.0,standard,25.0,0.0,0.0,1.1811592999997629
98,10.0,increament,0.6,100.0,standard,25.0,0.0,1.0,
99,10.0,increament,0.6,100.0,standard,25.0,0.0,1.0,
100,10.0,increament,0.72,120.0,oddball,26.0,0.0,1.0,0.407534399999804
101,10.0,increament,0.6,100.0,standard,25.0,0.0,1.0,
102,10.0,increament,0.6,100.0,standard,25.0,0.0,1.0,
103,10.0,increament,0.6,100.0,standard,25.0,0.0,1.0,
104,10.0,increament,0.6,100.0,standard,25.0,0.0,1.0,
105,10.0,increament,0.6,100.0,standard,25.0,0.0,1.0,
106,10.0,increament,0.6,100.0,standard,25.0,0.0,0.0,0.8904256999999234
107,10.0,increament,0.6,100.0,standard,25.0,0.0,1.0,
108,10.0,increament,0.6,100.0,standard,25.0,0.0,1.0,
109,10.0,increament,0.96,160.0,oddball,28.0,0.0,1.0,0.2231802000001153
110,10.0,increament,0.6,100.0,standard,25.0,0.0,1.0,
111,10.0,increament,0.6,100.0,standard,25.0,0.0,1.0,
112,10.0,increament,0.6,100.0,standard,25.0,0.0,1.0,
113,10.0,increament,0.6,100.0,standard,25.0,0.0,1.0,
114,10.0,increament,0.6,100.0,standard,25.0,0.0,1.0,
115,10.0,increament,0.6,100.0,standard,25.0,0.0,0.0,0.5883139000002302
116,10.0,increament,0.6,100.0,standard,25.0,0.0,1.0,
117,10.0,increament,0.6,100.0,standard,25.0,0.0,1.0,
118,10.0,increament,0.6,100.0,standard,25.0,0.0,1.0,
119,10.0,increament,0.6,100.0,standard,25.0,0.0,1.0,
120,10.0,decreament,0.6,100.0,standard,21.0,0.0,1.0,
121,10.0,decreament,0.6,100.0,standard,21.0,0.0,1.0,
122,10.0,decreament,0.6,100.0,standard,21.0,0.0,1.0,
123,10.0,decreament,0.6,100.0,standard,21.0,0.0,1.0,
124,10.0,decreament,0.6,100.0,standard,21.0,0.0,1.0,
125,10.0,decreament,0.6,100.0,standard,21.0,0.0,1.0,
126,10.0,decreament,0.6,100.0,standard,21.0,0.0,1.0,
127,10.0,decreament,0.6,100.0,standard,21.0,0.0,1.0,
128,10.0,decreament,0.6,100.0,standard,21.0,0.0,1.0,
129,10.0,decreament,0.6,100.0,standard,21.0,0.0,1.0,
130,10.0,decreament,0.6,100.0,standard,21.0,0.0,0.0,1.2262329999998656
131,10.0,decreament,0.6,100.0,standard,21.0,0.0,1.0,
132,10.0,decreament,0.6,100.0,standard,21.0,0.0,1.0,
133,10.0,decreament,0.48,80.0,oddball,24.0,0.0,1.0,0.4269237999997131
134,10.0,decreament,0.6,100.0,standard,21.0,0.0,1.0,
135,10.0,decreament,0.6,100.0,standard,21.0,0.0,1.0,
136,10.0,decreament,0.6,100.0,standard,21.0,0.0,1.0,
137,10.0,decreament,0.6,100.0,standard,21.0,0.0,0.0,1.0872749000000113
138,10.0,decreament,0.6,100.0,standard,21.0,0.0,1.0,
139,10.0,decreament,0.6,100.0,standard,21.0,0.0,1.0,
140,10.0,decreament,0.36,60.0,oddball,23.0,0.0,1.0,1.0731916999998248
141,10.0,decreament,0.6,100.0,standard,21.0,0.0,0.0,0.5236371999999392
142,10.0,decreament,0.6,100.0,standard,21.0,0.0,1.0,
143,10.0,decreament,0.6,100.0,standard,21.0,0.0,1.0,
144,10.0,decreament,0.6,100.0,standard,21.0,0.0,1.0,
145,10.0,decreament,0.6,100.0,standard,21.0,0.0,1.0,
146,10.0,decreament,0.6,100.0,standard,21.0,0.0,0.0,0.6264946000001146
147,10.0,decreament,0.24,40.0,oddball,22.0,0.0,1.0,0.4889162999998007
148,10.0,decreament,0.6,100.0,standard,21.0,0.0,1.0,
149,10.0,decreament,0.6,100.0,standard,21.0,0.0,1.0,
150,10.0,increament,0.6,100.0,standard,25.0,0.0,1.0,
151,10.0,increament,0.6,100.0,standard,25.0,0.0,1.0,
152,10.0,increament,0.6,100.0,standard,25.0,0.0,1.0,
153,10.0,increament,0.6,100.0,standard,25.0,0.0,1.0,
154,10.0,increament,0.6,100.0,standard,25.0,0.0,1.0,
155,10.0,increament,0.72,120.0,oddball,26.0,0.0,1.0,0.5832489999997961
156,10.0,increament,0.6,100.0,standard,25.0,0.0,1.0,
157,10.0,increament,0.6,100.0,standard,25.0,0.0,1.0,
158,10.0,increament,0.6,100.0,standard,25.0,0.0,1.0,
159,10.0,increament,0.6,100.0,standard,25.0,0.0,1.0,
160,10.0,increament,0.6,100.0,standard,25.0,0.0,1.0,
161,10.0,increament,0.6,100.0,standard,25.0,0.0,0.0,0.4960652999998274
162,10.0,increament,0.84,140.0,oddball,27.0,0.0,0.0,
163,10.0,increament,0.6,100.0,standard,25.0,0.0,1.0,
164,10.0,increament,0.6,100.0,standard,25.0,0.0,1.0,
165,10.0,increament,0.6,100.0,standard,25.0,0.0,1.0,
166,10.0,increament,0.6,100.0,standard,25.0,0.0,0.0,0.3447430000001077
167,10.0,increament,0.6,100.0,standard,25.0,0.0,1.0,
168,10.0,increament,0.6,100.0,standard,25.0,0.0,1.0,
169,10.0,increament,0.6,100.0,standard,25.0,0.0,0.0,0.3831143999996129
170,10.0,increament,0.6,100.0,standard,25.0,0.0,1.0,
171,10.0,increament,0.6,100.0,standard,25.0,0.0,1.0,
172,10.0,increament,0.6,100.0,standard,25.0,0.0,1.0,
173,10.0,increament,0.6,100.0,standard,25.0,0.0,1.0,
174,10.0,increament,0.6,100.0,standard,25.0,0.0,1.0,
175,10.0,increament,0.6,100.0,standard,25.0,0.0,1.0,
176,10.0,increament,0.6,100.0,standard,25.0,0.0,1.0,
177,10.0,increament,0.6,100.0,standard,25.0,0.0,1.0,
178,10.0,increament,0.96,160.0,oddball,28.0,0.0,1.0,0.3380204999998568
179,10.0,increament,0.6,100.0,standard,25.0,0.0,1.0,
180,10.0,decreament,0.6,100.0,standard,21.0,0.0,1.0,
181,10.0,decreament,0.6,100.0,standard,21.0,0.0,1.0,
182,10.0,decreament,0.6,100.0,standard,21.0,0.0,1.0,
183,10.0,decreament,0.6,100.0,standard,21.0,0.0,1.0,
184,10.0,decreament,0.6,100.0,standard,21.0,0.0,1.0,
185,10.0,decreament,0.6,100.0,standard,21.0,0.0,1.0,
186,10.0,decreament,0.6,100.0,standard,21.0,0.0,1.0,
187,10.0,decreament,0.6,100.0,standard,21.0,0.0,1.0,
188,10.0,decreament,0.6,100.0,standard,21.0,0.0,1.0,
189,10.0,decreament,0.36,60.0,oddball,23.0,0.0,1.0,0.4194561000003887
190,10.0,decreament,0.6,100.0,standard,21.0,0.0,1.0,
191,10.0,decreament,0.6,100.0,standard,21.0,0.0,1.0,
192,10.0,decreament,0.6,100.0,standard,21.0,0.0,1.0,
193,10.0,decreament,0.6,100.0,standard,21.0,0.0,1.0,
194,10.0,decreament,0.6,100.0,standard,21.0,0.0,0.0,0.3907722999997531
195,10.0,decreament,0.48,80.0,oddball,24.0,0.0,1.0,1.068792499999745
196,10.0,decreament,0.6,100.0,standard,21.0,0.0,1.0,
197,10.0,decreament,0.6,100.0,standard,21.0,0.0,1.0,
198,10.0,decreament,0.6,100.0,standard,21.0,0.0,1.0,
199,10.0,decreament,0.6,100.0,standard,21.0,0.0,1.0,
200,10.0,decreament,0.6,100.0,standard,21.0,0.0,0.0,0.4121239999999488
201,10.0,decreament,0.6,100.0,standard,21.0,0.0,1.0,
202,10.0,decreament,0.6,100.0,standard,21.0,0.0,1.0,
203,10.0,decreament,0.6,100.0,standard,21.0,0.0,1.0,
204,10.0,decreament,0.6,100.0,standard,21.0,0.0,1.0,
205,10.0,decreament,0.6,100.0,standard,21.0,0.0,0.0,0.5272648000000117
206,10.0,decreament,0.6,100.0,standard,21.0,0.0,1.0,
207,10.0,decreament,0.24,40.0,oddball,22.0,0.0,1.0,0.5936303000003136
208,10.0,decreament,0.6,100.0,standard,21.0,0.0,1.0,
209,10.0,decreament,0.6,100.0,standard,21.0,0.0,1.0,
210,10.0,increament,0.6,100.0,standard,25.0,0.0,1.0,
211,10.0,increament,0.6,100.0,standard,25.0,0.0,1.0,
212,10.0,increament,0.6,100.0,standard,25.0,0.0,1.0,
213,10.0,increament,0.6,100.0,standard,25.0,0.0,1.0,
214,10.0,increament,0.6,100.0,standard,25.0,0.0,1.0,
215,10.0,increament,0.6,100.0,standard,25.0,0.0,1.0,
216,10.0,increament,0.6,100.0,standard,25.0,0.0,0.0,1.1157963000000564
217,10.0,increament,0.6,100.0,standard,25.0,0.0,1.0,
218,10.0,increament,0.6,100.0,standard,25.0,0.0,1.0,
219,10.0,increament,0.6,100.0,standard,25.0,0.0,1.0,
220,10.0,increament,0.72,120.0,oddball,26.0,0.0,1.0,0.9407510999999432
221,10.0,increament,0.6,100.0,standard,25.0,0.0,1.0,
222,10.0,increament,0.6,100.0,standard,25.0,0.0,1.0,
223,10.0,increament,0.6,100.0,standard,25.0,0.0,0.0,1.4402635000001285
224,10.0,increament,0.6,100.0,standard,25.0,0.0,1.0,
225,10.0,increament,0.6,100.0,standard,25.0,0.0,1.0,
226,10.0,increament,0.6,100.0,standard,25.0,0.0,1.0,
227,10.0,increament,0.6,100.0,standard,25.0,0.0,1.0,
228,10.0,increament,0.96,160.0,oddball,28.0,0.0,1.0,0.397584100000131
229,10.0,increament,0.6,100.0,standard,25.0,0.0,1.0,
230,10.0,increament,0.6,100.0,standard,25.0,0.0,1.0,
231,10.0,increament,0.6,100.0,standard,25.0,0.0,1.0,
232,10.0,increament,0.6,100.0,standard,25.0,0.0,1.0,
233,10.0,increament,0.6,100.0,standard,25.0,0.0,1.0,
234,10.0,increament,0.6,100.0,standard,25.0,0.0,1.0,
235,10.0,increament,0.6,100.0,standard,25.0,0.0,1.0,
236,10.0,increament,0.6,100.0,standard,25.0,0.0,0.0,0.8327060000001438
237,10.0,increament,0.6,100.0,standard,25.0,0.0,1.0,
238,10.0,increament,0.84,140.0,oddball,27.0,0.0,1.0,0.6017632999996749
239,10.0,increament,0.6,100.0,standard,25.0,0.0,1.0,
240,10.0,decreament,0.6,100.0,standard,21.0,0.0,1.0,
241,10.0,decreament,0.6,100.0,standard,21.0,0.0,1.0,
242,10.0,decreament,0.6,100.0,standard,21.0,0.0,1.0,
243,10.0,decreament,0.6,100.0,standard,21.0,0.0,1.0,
244,10.0,decreament,0.6,100.0,standard,21.0,0.0,1.0,
245,10.0,decreament,0.24,40.0,oddball,22.0,0.0,1.0,0.5113630999999259
246,10.0,decreament,0.6,100.0,standard,21.0,0.0,1.0,
247,10.0,decreament,0.6,100.0,standard,21.0,0.0,0.0,0.9770260999998754
248,10.0,decreament,0.6,100.0,standard,21.0,0.0,1.0,
249,10.0,decreament,0.6,100.0,standard,21.0,0.0,1.0,
250,10.0,decreament,0.48,80.0,oddball,24.0,0.0,1.0,0.6932372999999643
251,10.0,decreament,0.6,100.0,standard,21.0,0.0,1.0,
252,10.0,decreament,0.6,100.0,standard,21.0,0.0,1.0,
253,10.0,decreament,0.6,100.0,standard,21.0,0.0,1.0,
254,10.0,decreament,0.6,100.0,standard,21.0,0.0,1.0,
255,10.0,decreament,0.6,100.0,standard,21.0,0.0,1.0,
256,10.0,decreament,0.6,100.0,standard,21.0,0.0,0.0,0.891185200000109
257,10.0,decreament,0.6,100.0,standard,21.0,0.0,1.0,
258,10.0,decreament,0.6,100.0,standard,21.0,0.0,0.0,0.4495117000001301
259,10.0,decreament,0.6,100.0,standard,21.0,0.0,1.0,
260,10.0,decreament,0.6,100.0,standard,21.0,0.0,1.0,
261,10.0,decreament,0.6,100.0,standard,21.0,0.0,0.0,0.4794043000001693
262,10.0,decreament,0.6,100.0,standard,21.0,0.0,1.0,
263,10.0,decreament,0.6,100.0,standard,21.0,0.0,0.0,0.8290657000002284
264,10.0,decreament,0.6,100.0,standard,21.0,0.0,1.0,
265,10.0,decreament,0.6,100.0,standard,21.0,0.0,1.0,
266,10.0,decreament,0.36,60.0,oddball,23.0,0.0,1.0,0.4612463000003117
267,10.0,decreament,0.6,100.0,standard,21.0,0.0,1.0,
268,10.0,decreament,0.6,100.0,standard,21.0,0.0,1.0,
269,10.0,decreament,0.6,100.0,standard,21.0,0.0,0.0,0.8223753000002034
270,10.0,increament,0.6,100.0,standard,25.0,0.0,1.0,
271,10.0,increament,0.6,100.0,standard,25.0,0.0,1.0,
272,10.0,increament,0.6,100.0,standard,25.0,0.0,1.0,
273,10.0,increament,0.6,100.0,standard,25.0,0.0,1.0,
274,10.0,increament,0.6,100.0,standard,25.0,0.0,1.0,
275,10.0,increament,0.6,100.0,standard,25.0,0.0,1.0,
276,10.0,increament,0.96,160.0,oddball,28.0,0.0,1.0,0.2229176999999254
277,10.0,increament,0.6,100.0,standard,25.0,0.0,1.0,
278,10.0,increament,0.6,100.0,standard,25.0,0.0,1.0,
279,10.0,increament,0.6,100.0,standard,25.0,0.0,1.0,
280,10.0,increament,0.6,100.0,standard,25.0,0.0,1.0,
281,10.0,increament,0.6,100.0,standard,25.0,0.0,1.0,
282,10.0,increament,0.6,100.0,standard,25.0,0.0,1.0,
283,10.0,increament,0.6,100.0,standard,25.0,0.0,0.0,0.8465467999999419
284,10.0,increament,0.72,120.0,oddball,26.0,0.0,1.0,1.7500403999997616
285,10.0,increament,0.6,100.0,standard,25.0,0.0,1.0,
286,10.0,increament,0.6,100.0,standard,25.0,0.0,1.0,
287,10.0,increament,0.6,100.0,standard,25.0,0.0,1.0,
288,10.0,increament,0.6,100.0,standard,25.0,0.0,1.0,
289,10.0,increament,0.6,100.0,standard,25.0,0.0,0.0,0.6940500000000611
290,10.0,increament,0.6,100.0,standard,25.0,0.0,1.0,
291,10.0,increament,0.6,100.0,standard,25.0,0.0,1.0,
292,10.0,increament,0.6,100.0,standard,25.0,0.0,1.0,
293,10.0,increament,0.6,100.0,standard,25.0,0.0,1.0,
294,10.0,increament,0.84,140.0,oddball,27.0,0.0,1.0,0.3710512000002381
295,10.0,increament,0.6,100.0,standard,25.0,0.0,1.0,
296,10.0,increament,0.6,100.0,standard,25.0,0.0,1.0,
297,10.0,increament,0.6,100.0,standard,25.0,0.0,1.0,
298,10.0,increament,0.6,100.0,standard,25.0,0.0,1.0,
299,10.0,increament,0.6,100.0,standard,25.0,0.0,1.0,
300,0.0,decreament,0.6,100.0,standard,1.0,1.0,1.0,
301,0.0,decreament,0.6,100.0,standard,1.0,1.0,1.0,
302,0.0,decreament,0.6,100.0,standard,1.0,1.0,0.0,1.7294381000001522
303,0.0,decreament,0.6,100.0,standard,1.0,1.0,1.0,
304,0.0,decreament,0.6,100.0,standard,1.0,1.0,1.0,
305,0.0,decreament,0.6,100.0,standard,1.0,1.0,1.0,
306,0.0,decreament,0.6,100.0,standard,1.0,1.0,1.0,
307,0.0,decreament,0.6,100.0,standard,1.0,1.0,1.0,
308,0.0,decreament,0.6,100.0,standard,1.0,1.0,1.0,
309,0.0,decreament,0.6,100.0,standard,1.0,1.0,0.0,0.442497099999855
310,0.0,decreament,0.24,40.0,oddball,2.0,1.0,1.0,0.4163254000000052
311,0.0,decreament,0.6,100.0,standard,1.0,1.0,1.0,
312,0.0,decreament,0.6,100.0,standard,1.0,1.0,1.0,
313,0.0,decreament,0.6,100.0,standard,1.0,1.0,1.0,
314,0.0,decreament,0.6,100.0,standard,1.0,1.0,1.0,
315,0.0,decreament,0.36,60.0,oddball,3.0,1.0,1.0,0.3878666999999041
316,0.0,decreament,0.6,100.0,standard,1.0,1.0,1.0,
317,0.0,decreament,0.6,100.0,standard,1.0,1.0,1.0,
318,0.0,decreament,0.6,100.0,standard,1.0,1.0,1.0,
319,0.0,decreament,0.6,100.0,standard,1.0,1.0,1.0,
320,0.0,decreament,0.6,100.0,standard,1.0,1.0,0.0,0.512809599999855
321,0.0,decreament,0.6,100.0,standard,1.0,1.0,1.0,
322,0.0,decreament,0.6,100.0,standard,1.0,1.0,1.0,
323,0.0,decreament,0.6,100.0,standard,1.0,1.0,1.0,
324,0.0,decreament,0.6,100.0,standard,1.0,1.0,0.0,1.0040388000002167
325,0.0,decreament,0.6,100.0,standard,1.0,1.0,1.0,
326,0.0,decreament,0.6,100.0,standard,1.0,1.0,1.0,
327,0.0,decreament,0.6,100.0,standard,1.0,1.0,0.0,0.4335801999995965
328,0.0,decreament,0.6,100.0,standard,1.0,1.0,1.0,
329,0.0,decreament,0.48,80.0,oddball,4.0,1.0,1.0,0.5377610999998979
330,0.0,increament,0.6,100.0,standard,5.0,1.0,1.0,
331,0.0,increament,0.6,100.0,standard,5.0,1.0,1.0,
332,0.0,increament,0.6,100.0,standard,5.0,1.0,1.0,
333,0.0,increament,0.6,100.0,standard,5.0,1.0,1.0,
334,0.0,increament,0.6,100.0,standard,5.0,1.0,1.0,
335,0.0,increament,0.6,100.0,standard,5.0,1.0,1.0,
336,0.0,increament,0.6,100.0,standard,5.0,1.0,1.0,
337,0.0,increament,0.96,160.0,oddball,8.0,1.0,1.0,0.1917813000000023
338,0.0,increament,0.6,100.0,standard,5.0,1.0,1.0,
339,0.0,increament,0.6,100.0,standard,5.0,1.0,1.0,
340,0.0,increament,0.6,100.0,standard,5.0,1.0,1.0,
341,0.0,increament,0.6,100.0,standard,5.0,1.0,1.0,
342,0.0,increament,0.6,100.0,standard,5.0,1.0,1.0,
343,0.0,increament,0.6,100.0,standard,5.0,1.0,0.0,0.2816340999997919
344,0.0,increament,0.6,100.0,standard,5.0,1.0,1.0,
345,0.0,increament,0.6,100.0,standard,5.0,1.0,1.0,
346,0.0,increament,0.6,100.0,standard,5.0,1.0,0.0,0.2519132000002173
347,0.0,increament,0.6,100.0,standard,5.0,1.0,1.0,
348,0.0,increament,0.84,140.0,oddball,7.0,1.0,1.0,0.2528681000003416
349,0.0,increament,0.6,100.0,standard,5.0,1.0,1.0,
350,0.0,increament,0.6,100.0,standard,5.0,1.0,1.0,
351,0.0,increament,0.6,100.0,standard,5.0,1.0,1.0,
352,0.0,increament,0.6,100.0,standard,5.0,1.0,1.0,
353,0.0,increament,0.6,100.0,standard,5.0,1.0,1.0,
354,0.0,increament,0.6,100.0,standard,5.0,1.0,0.0,0.1805807000000641
355,0.0,increament,0.6,100.0,standard,5.0,1.0,1.0,
356,0.0,increament,0.72,120.0,oddball,6.0,1.0,0.0,
357,0.0,increament,0.6,100.0,standard,5.0,1.0,1.0,
358,0.0,increament,0.6,100.0,standard,5.0,1.0,0.0,0.2747205999999096
359,0.0,increament,0.6,100.0,standard,5.0,1.0,1.0,
360,0.0,decreament,0.6,100.0,standard,1.0,1.0,1.0,
361,0.0,decreament,0.6,100.0,standard,1.0,1.0,1.0,
362,0.0,decreament,0.6,100.0,standard,1.0,1.0,1.0,
363,0.0,decreament,0.6,100.0,standard,1.0,1.0,1.0,
364,0.0,decreament,0.6,100.0,standard,1.0,1.0,1.0,
365,0.0,decreament,0.24,40.0,oddball,2.0,1.0,1.0,0.4166125000001557
366,0.0,decreament,0.6,100.0,standard,1.0,1.0,1.0,
367,0.0,decreament,0.6,100.0,standard,1.0,1.0,1.0,
368,0.0,decreament,0.6,100.0,standard,1.0,1.0,1.0,
369,0.0,decreament,0.6,100.0,standard,1.0,1.0,1.0,
370,0.0,decreament,0.6,100.0,standard,1.0,1.0,0.0,0.334733000000142
371,0.0,decreament,0.6,100.0,standard,1.0,1.0,1.0,
372,0.0,decreament,0.6,100.0,standard,1.0,1.0,0.0,0.5608941000000414
373,0.0,decreament,0.6,100.0,standard,1.0,1.0,1.0,
374,0.0,decreament,0.6,100.0,standard,1.0,1.0,1.0,
375,0.0,decreament,0.6,100.0,standard,1.0,1.0,0.0,0.3511081000001468
376,0.0,decreament,0.48,80.0,oddball,4.0,1.0,0.0,
377,0.0,decreament,0.6,100.0,standard,1.0,1.0,1.0,
378,0.0,decreament,0.6,100.0,standard,1.0,1.0,0.0,0.2966427999999723
379,0.0,decreament,0.6,100.0,standard,1.0,1.0,1.0,
380,0.0,decreament,0.6,100.0,standard,1.0,1.0,1.0,
381,0.0,decreament,0.6,100.0,standard,1.0,1.0,1.0,
382,0.0,decreament,0.36,60.0,oddball,3.0,1.0,1.0,0.4168398000001616
383,0.0,decreament,0.6,100.0,standard,1.0,1.0,1.0,
384,0.0,decreament,0.6,100.0,standard,1.0,1.0,1.0,
385,0.0,decreament,0.6,100.0,standard,1.0,1.0,0.0,0.5503073999998378
386,0.0,decreament,0.6,100.0,standard,1.0,1.0,1.0,
387,0.0,decreament,0.6,100.0,standard,1.0,1.0,1.0,
388,0.0,decreament,0.6,100.0,standard,1.0,1.0,1.0,
389,0.0,decreament,0.6,100.0,standard,1.0,1.0,1.0,
390,0.0,increament,0.6,100.0,standard,5.0,1.0,1.0,
391,0.0,increament,0.6,100.0,standard,5.0,1.0,1.0,
392,0.0,increament,0.6,100.0,standard,5.0,1.0,1.0,
393,0.0,increament,0.6,100.0,standard,5.0,1.0,1.0,
394,0.0,increament,0.6,100.0,standard,5.0,1.0,0.0,0.3323715999999876
395,0.0,increament,0.84,140.0,oddball,7.0,1.0,1.0,0.2856876000000738
396,0.0,increament,0.6,100.0,standard,5.0,1.0,1.0,
397,0.0,increament,0.6,100.0,standard,5.0,1.0,1.0,
398,0.0,increament,0.6,100.0,standard,5.0,1.0,1.0,
399,0.0,increament,0.6,100.0,standard,5.0,1.0,1.0,
400,0.0,increament,0.6,100.0,standard,5.0,1.0,0.0,0.8889282000000094
401,0.0,increament,0.6,100.0,standard,5.0,1.0,1.0,
402,0.0,increament,0.6,100.0,standard,5.0,1.0,1.0,
403,0.0,increament,0.96,160.0,oddball,8.0,1.0,1.0,0.3136308999996799
404,0.0,increament,0.6,100.0,standard,5.0,1.0,1.0,
405,0.0,increament,0.6,100.0,standard,5.0,1.0,1.0,
406,0.0,increament,0.6,100.0,standard,5.0,1.0,1.0,
407,0.0,increament,0.6,100.0,standard,5.0,1.0,1.0,
408,0.0,increament,0.6,100.0,standard,5.0,1.0,0.0,0.7783423999999286
409,0.0,increament,0.6,100.0,standard,5.0,1.0,1.0,
410,0.0,increament,0.72,120.0,oddball,6.0,1.0,0.0,
411,0.0,increament,0.6,100.0,standard,5.0,1.0,1.0,
412,0.0,increament,0.6,100.0,standard,5.0,1.0,1.0,
413,0.0,increament,0.6,100.0,standard,5.0,1.0,1.0,
414,0.0,increament,0.6,100.0,standard,5.0,1.0,0.0,0.6906723999995847
415,0.0,increament,0.6,100.0,standard,5.0,1.0,1.0,
416,0.0,increament,0.6,100.0,standard,5.0,1.0,1.0,
417,0.0,increament,0.6,100.0,standard,5.0,1.0,1.0,
418,0.0,increament,0.6,100.0,standard,5.0,1.0,1.0,
419,0.0,increament,0.6,100.0,standard,5.0,1.0,0.0,0.6138670999994247
420,0.0,decreament,0.6,100.0,standard,1.0,1.0,1.0,
421,0.0,decreament,0.6,100.0,standard,1.0,1.0,1.0,
422,0.0,decreament,0.6,100.0,standard,1.0,1.0,1.0,
423,0.0,decreament,0.6,100.0,standard,1.0,1.0,1.0,
424,0.0,decreament,0.6,100.0,standard,1.0,1.0,1.0,
425,0.0,decreament,0.48,80.0,oddball,4.0,1.0,1.0,0.6167991999996048
426,0.0,decreament,0.6,100.0,standard,1.0,1.0,1.0,
427,0.0,decreament,0.6,100.0,standard,1.0,1.0,1.0,
428,0.0,decreament,0.6,100.0,standard,1.0,1.0,1.0,
429,0.0,decreament,0.6,100.0,standard,1.0,1.0,1.0,
430,0.0,decreament,0.6,100.0,standard,1.0,1.0,1.0,
431,0.0,decreament,0.6,100.0,standard,1.0,1.0,0.0,0.8487516000000142
432,0.0,decreament,0.6,100.0,standard,1.0,1.0,1.0,
433,0.0,decreament,0.6,100.0,standard,1.0,1.0,1.0,
434,0.0,decreament,0.6,100.0,standard,1.0,1.0,0.0,0.56865069999958
435,0.0,decreament,0.6,100.0,standard,1.0,1.0,1.0,
436,0.0,decreament,0.6,100.0,standard,1.0,1.0,0.0,0.5633451999997305
437,0.0,decreament,0.36,60.0,oddball,3.0,1.0,1.0,0.4477667000005567
438,0.0,decreament,0.6,100.0,standard,1.0,1.0,1.0,
439,0.0,decreament,0.6,100.0,standard,1.0,1.0,0.0,1.1025761999994756
440,0.0,decreament,0.6,100.0,standard,1.0,1.0,1.0,
441,0.0,decreament,0.6,100.0,standard,1.0,1.0,1.0,
442,0.0,decreament,0.6,100.0,standard,1.0,1.0,1.0,
443,0.0,decreament,0.24,40.0,oddball,2.0,1.0,1.0,0.5925266999997802
444,0.0,decreament,0.6,100.0,standard,1.0,1.0,1.0,
445,0.0,decreament,0.6,100.0,standard,1.0,1.0,1.0,
446,0.0,decreament,0.6,100.0,standard,1.0,1.0,1.0,
447,0.0,decreament,0.6,100.0,standard,1.0,1.0,1.0,
448,0.0,decreament,0.6,100.0,standard,1.0,1.0,1.0,
449,0.0,decreament,0.6,100.0,standard,1.0,1.0,1.0,
450,0.0,increament,0.6,100.0,standard,5.0,1.0,1.0,
451,0.0,increament,0.6,100.0,standard,5.0,1.0,1.0,
452,0.0,increament,0.6,100.0,standard,5.0,1.0,1.0,
453,0.0,increament,0.6,100.0,standard,5.0,1.0,1.0,
454,0.0,increament,0.6,100.0,standard,5.0,1.0,1.0,
455,0.0,increament,0.6,100.0,standard,5.0,1.0,1.0,
456,0.0,increament,0.72,120.0,oddball,6.0,1.0,0.0,
457,0.0,increament,0.6,100.0,standard,5.0,1.0,1.0,
458,0.0,increament,0.6,100.0,standard,5.0,1.0,0.0,0.6591726000001472
459,0.0,increament,0.6,100.0,standard,5.0,1.0,1.0,
460,0.0,increament,0.6,100.0,standard,5.0,1.0,0.0,0.4053432000005159
461,0.0,increament,0.6,100.0,standard,5.0,1.0,1.0,
462,0.0,increament,0.6,100.0,standard,5.0,1.0,1.0,
463,0.0,increament,0.84,140.0,oddball,7.0,1.0,0.0,
464,0.0,increament,0.6,100.0,standard,5.0,1.0,0.0,0.4581428000005871
465,0.0,increament,0.6,100.0,standard,5.0,1.0,1.0,
466,0.0,increament,0.6,100.0,standard,5.0,1.0,1.0,
467,0.0,increament,0.6,100.0,standard,5.0,1.0,0.0,0.9293118000000504
468,0.0,increament,0.6,100.0,standard,5.0,1.0,1.0,
469,0.0,increament,0.6,100.0,standard,5.0,1.0,1.0,
470,0.0,increament,0.6,100.0,standard,5.0,1.0,1.0,
471,0.0,increament,0.6,100.0,standard,5.0,1.0,0.0,0.6133476999998493
472,0.0,increament,0.6,100.0,standard,5.0,1.0,1.0,
473,0.0,increament,0.6,100.0,standard,5.0,1.0,1.0,
474,0.0,increament,0.6,100.0,standard,5.0,1.0,1.0,
475,0.0,increament,0.6,100.0,standard,5.0,1.0,1.0,
476,0.0,increament,0.96,160.0,oddball,8.0,1.0,0.0,
477,0.0,increament,0.6,100.0,standard,5.0,1.0,0.0,0.3074940000001334
478,0.0,increament,0.6,100.0,standard,5.0,1.0,1.0,
479,0.0,increament,0.6,100.0,standard,5.0,1.0,1.0,
480,0.0,decreament,0.6,100.0,standard,1.0,1.0,1.0,
481,0.0,decreament,0.6,100.0,standard,1.0,1.0,1.0,
482,0.0,decreament,0.6,100.0,standard,1.0,1.0,1.0,
483,0.0,decreament,0.6,100.0,standard,1.0,1.0,1.0,
484,0.0,decreament,0.6,100.0,standard,1.0,1.0,1.0,
485,0.0,decreament,0.6,100.0,standard,1.0,1.0,1.0,
486,0.0,decreament,0.48,80.0,oddball,4.0,1.0,1.0,0.787084699999923
487,0.0,decreament,0.6,100.0,standard,1.0,1.0,1.0,
488,0.0,decreament,0.6,100.0,standard,1.0,1.0,1.0,
489,0.0,decreament,0.6,100.0,standard,1.0,1.0,0.0,0.5167771999999786
490,0.0,decreament,0.6,100.0,standard,1.0,1.0,1.0,
491,0.0,decreament,0.6,100.0,standard,1.0,1.0,1.0,
492,0.0,decreament,0.6,100.0,standard,1.0,1.0,1.0,
493,0.0,decreament,0.6,100.0,standard,1.0,1.0,1.0,
494,0.0,decreament,0.6,100.0,standard,1.0,1.0,1.0,
495,0.0,decreament,0.6,100.0,standard,1.0,1.0,0.0,0.5815035999999054
496,0.0,decreament,0.24,40.0,oddball,2.0,1.0,1.0,0.3431996000003892
497,0.0,decreament,0.6,100.0,standard,1.0,1.0,1.0,
498,0.0,decreament,0.6,100.0,standard,1.0,1.0,1.0,
499,0.0,decreament,0.6,100.0,standard,1.0,1.0,1.0,
500,0.0,decreament,0.6,100.0,standard,1.0,1.0,1.0,
501,0.0,decreament,0.6,100.0,standard,1.0,1.0,1.0,
502,0.0,decreament,0.6,100.0,standard,1.0,1.0,1.0,
503,0.0,decreament,0.6,100.0,standard,1.0,1.0,1.0,
504,0.0,decreament,0.6,100.0,standard,1.0,1.0,1.0,
505,0.0,decreament,0.6,100.0,standard,1.0,1.0,0.0,0.9167184000002636
506,0.0,decreament,0.6,100.0,standard,1.0,1.0,0.0,0.4584073999999418
507,0.0,decreament,0.36,60.0,oddball,3.0,1.0,1.0,0.6588920999997754
508,0.0,decreament,0.6,100.0,standard,1.0,1.0,1.0,
509,0.0,decreament,0.6,100.0,standard,1.0,1.0,1.0,
510,0.0,increament,0.6,100.0,standard,5.0,1.0,1.0,
511,0.0,increament,0.6,100.0,standard,5.0,1.0,1.0,
512,0.0,increament,0.6,100.0,standard,5.0,1.0,1.0,
513,0.0,increament,0.6,100.0,standard,5.0,1.0,1.0,
514,0.0,increament,0.6,100.0,standard,5.0,1.0,0.0,0.660282900000766
515,0.0,increament,0.6,100.0,standard,5.0,1.0,1.0,
516,0.0,increament,0.84,140.0,oddball,7.0,1.0,1.0,0.4102241000005051
517,0.0,increament,0.6,100.0,standard,5.0,1.0,1.0,
518,0.0,increament,0.6,100.0,standard,5.0,1.0,0.0,0.4977521000005254
519,0.0,increament,0.6,100.0,standard,5.0,1.0,1.0,
520,0.0,increament,0.6,100.0,standard,5.0,1.0,1.0,
521,0.0,increament,0.6,100.0,standard,5.0,1.0,1.0,
522,0.0,increament,0.6,100.0,standard,5.0,1.0,0.0,0.610423599999649
523,0.0,increament,0.6,100.0,standard,5.0,1.0,1.0,
524,0.0,increament,0.96,160.0,oddball,8.0,1.0,1.0,0.3661658000005445
525,0.0,increament,0.6,100.0,standard,5.0,1.0,1.0,
526,0.0,increament,0.6,100.0,standard,5.0,1.0,1.0,
527,0.0,increament,0.6,100.0,standard,5.0,1.0,1.0,
528,0.0,increament,0.72,120.0,oddball,6.0,1.0,0.0,
529,0.0,increament,0.6,100.0,standard,5.0,1.0,0.0,1.0067635999998856
530,0.0,increament,0.6,100.0,standard,5.0,1.0,0.0,0.5582893000005242
531,0.0,increament,0.6,100.0,standard,5.0,1.0,1.0,
532,0.0,increament,0.6,100.0,standard,5.0,1.0,1.0,
533,0.0,increament,0.6,100.0,standard,5.0,1.0,1.0,
534,0.0,increament,0.6,100.0,standard,5.0,1.0,0.0,1.9121819000006328
535,0.0,increament,0.6,100.0,standard,5.0,1.0,1.0,
536,0.0,increament,0.6,100.0,standard,5.0,1.0,1.0,
537,0.0,increament,0.6,100.0,standard,5.0,1.0,1.0,
538,0.0,increament,0.6,100.0,standard,5.0,1.0,1.0,
539,0.0,increament,0.6,100.0,standard,5.0,1.0,1.0,
540,0.0,decreament,0.6,100.0,standard,1.0,1.0,1.0,
541,0.0,decreament,0.6,100.0,standard,1.0,1.0,1.0,
542,0.0,decreament,0.6,100.0,standard,1.0,1.0,1.0,
543,0.0,decreament,0.6,100.0,standard,1.0,1.0,1.0,
544,0.0,decreament,0.6,100.0,standard,1.0,1.0,1.0,
545,0.0,decreament,0.48,80.0,oddball,4.0,1.0,1.0,0.5998169999998026
546,0.0,decreament,0.6,100.0,standard,1.0,1.0,1.0,
547,0.0,decreament,0.6,100.0,standard,1.0,1.0,1.0,
548,0.0,decreament,0.6,100.0,standard,1.0,1.0,1.0,
549,0.0,decreament,0.6,100.0,standard,1.0,1.0,1.0,
550,0.0,decreament,0.6,100.0,standard,1.0,1.0,1.0,
551,0.0,decreament,0.6,100.0,standard,1.0,1.0,1.0,
552,0.0,decreament,0.6,100.0,standard,1.0,1.0,1.0,
553,0.0,decreament,0.6,100.0,standard,1.0,1.0,1.0,
554,0.0,decreament,0.6,100.0,standard,1.0,1.0,0.0,0.5681094999995366
555,0.0,decreament,0.6,100.0,standard,1.0,1.0,1.0,
556,0.0,decreament,0.36,60.0,oddball,3.0,1.0,1.0,0.3598495999999613
557,0.0,decreament,0.6,100.0,standard,1.0,1.0,1.0,
558,0.0,decreament,0.6,100.0,standard,1.0,1.0,1.0,
559,0.0,decreament,0.6,100.0,standard,1.0,1.0,1.0,
560,0.0,decreament,0.6,100.0,standard,1.0,1.0,1.0,
561,0.0,decreament,0.6,100.0,standard,1.0,1.0,0.0,0.5087113000004138
562,0.0,decreament,0.6,100.0,standard,1.0,1.0,1.0,
563,0.0,decreament,0.6,100.0,standard,1.0,1.0,1.0,
564,0.0,decreament,0.24,40.0,oddball,2.0,1.0,0.0,
565,0.0,decreament,0.6,100.0,standard,1.0,1.0,0.0,0.5616760999996586
566,0.0,decreament,0.6,100.0,standard,1.0,1.0,1.0,
567,0.0,decreament,0.6,100.0,standard,1.0,1.0,0.0,1.6912701000005654
568,0.0,decreament,0.6,100.0,standard,1.0,1.0,1.0,
569,0.0,decreament,0.6,100.0,standard,1.0,1.0,1.0,
570,0.0,increament,0.6,100.0,standard,5.0,1.0,1.0,
571,0.0,increament,0.6,100.0,standard,5.0,1.0,1.0,
572,0.0,increament,0.6,100.0,standard,5.0,1.0,1.0,
573,0.0,increament,0.6,100.0,standard,5.0,1.0,1.0,
574,0.0,increament,0.6,100.0,standard,5.0,1.0,1.0,
575,0.0,increament,0.6,100.0,standard,5.0,1.0,1.0,
576,0.0,increament,0.6,100.0,standard,5.0,1.0,1.0,
577,0.0,increament,0.6,100.0,standard,5.0,1.0,1.0,
578,0.0,increament,0.6,100.0,standard,5.0,1.0,1.0,
579,0.0,increament,0.6,100.0,standard,5.0,1.0,1.0,
580,0.0,increament,0.6,100.0,standard,5.0,1.0,1.0,
581,0.0,increament,0.96,160.0,oddball,8.0,1.0,1.0,0.221684799999366
582,0.0,increament,0.6,100.0,standard,5.0,1.0,1.0,
583,0.0,increament,0.6,100.0,standard,5.0,1.0,1.0,
584,0.0,increament,0.6,100.0,standard,5.0,1.0,1.0,
585,0.0,increament,0.6,100.0,standard,5.0,1.0,1.0,
586,0.0,increament,0.72,120.0,oddball,6.0,1.0,1.0,0.4540228999999272
587,0.0,increament,0.6,100.0,standard,5.0,1.0,1.0,
588,0.0,increament,0.6,100.0,standard,5.0,1.0,1.0,
589,0.0,increament,0.6,100.0,standard,5.0,1.0,0.0,0.6065389000000323
590,0.0,increament,0.6,100.0,standard,5.0,1.0,1.0,
591,0.0,increament,0.6,100.0,standard,5.0,1.0,1.0,
592,0.0,increament,0.84,140.0,oddball,7.0,1.0,1.0,0.3098924999999326
593,0.0,increament,0.6,100.0,standard,5.0,1.0,1.0,
594,0.0,increament,0.6,100.0,standard,5.0,1.0,1.0,
595,0.0,increament,0.6,100.0,standard,5.0,1.0,0.0,0.4855110000003151
596,0.0,increament,0.6,100.0,standard,5.0,1.0,1.0,
597,0.0,increament,0.6,100.0,standard,5.0,1.0,1.0,
598,0.0,increament,0.6,100.0,standard,5.0,1.0,0.0,1.1939574000002722
599,0.0,increament,0.6,100.0,standard,5.0,1.0,1.0,
600,5.0,decreament,0.6,100.0,standard,11.0,2.0,1.0,
601,5.0,decreament,0.6,100.0,standard,11.0,2.0,1.0,
602,5.0,decreament,0.6,100.0,standard,11.0,2.0,1.0,
603,5.0,decreament,0.6,100.0,standard,11.0,2.0,1.0,
604,5.0,decreament,0.6,100.0,standard,11.0,2.0,1.0,
605,5.0,decreament,0.6,100.0,standard,11.0,2.0,1.0,
606,5.0,decreament,0.6,100.0,standard,11.0,2.0,1.0,
607,5.0,decreament,0.6,100.0,standard,11.0,2.0,1.0,
608,5.0,decreament,0.6,100.0,standard,11.0,2.0,0.0,0.4869975000005979
609,5.0,decreament,0.6,100.0,standard,11.0,2.0,1.0,
610,5.0,decreament,0.6,100.0,standard,11.0,2.0,0.0,0.4935053999993215
611,5.0,decreament,0.6,100.0,standard,11.0,2.0,1.0,
612,5.0,decreament,0.6,100.0,standard,11.0,2.0,0.0,0.5956859000002623
613,5.0,decreament,0.6,100.0,standard,11.0,2.0,1.0,
614,5.0,decreament,0.6,100.0,standard,11.0,2.0,1.0,
615,5.0,decreament,0.48,80.0,oddball,14.0,2.0,1.0,0.4913499999997839
616,5.0,decreament,0.6,100.0,standard,11.0,2.0,1.0,
617,5.0,decreament,0.6,100.0,standard,11.0,2.0,1.0,
618,5.0,decreament,0.6,100.0,standard,11.0,2.0,1.0,
619,5.0,decreament,0.6,100.0,standard,11.0,2.0,1.0,
620,5.0,decreament,0.6,100.0,standard,11.0,2.0,0.0,0.5561259999999493
621,5.0,decreament,0.24,40.0,oddball,12.0,2.0,1.0,0.6129919999998492
622,5.0,decreament,0.6,100.0,standard,11.0,2.0,1.0,
623,5.0,decreament,0.6,100.0,standard,11.0,2.0,1.0,
624,5.0,decreament,0.6,100.0,standard,11.0,2.0,1.0,
625,5.0,decreament,0.36,60.0,oddball,13.0,2.0,1.0,0.7078130000004421
626,5.0,decreament,0.6,100.0,standard,11.0,2.0,1.0,
627,5.0,decreament,0.6,100.0,standard,11.0,2.0,1.0,
628,5.0,decreament,0.6,100.0,standard,11.0,2.0,1.0,
629,5.0,decreament,0.6,100.0,standard,11.0,2.0,0.0,1.1830011999995804
630,5.0,increament,0.6,100.0,standard,15.0,2.0,1.0,
631,5.0,increament,0.6,100.0,standard,15.0,2.0,1.0,
632,5.0,increament,0.6,100.0,standard,15.0,2.0,1.0,
633,5.0,increament,0.6,100.0,standard,15.0,2.0,1.0,
634,5.0,increament,0.6,100.0,standard,15.0,2.0,1.0,
635,5.0,increament,0.6,100.0,standard,15.0,2.0,1.0,
636,5.0,increament,0.6,100.0,standard,15.0,2.0,0.0,0.9235500999998294
637,5.0,increament,0.6,100.0,standard,15.0,2.0,1.0,
638,5.0,increament,0.84,140.0,oddball,17.0,2.0,1.0,0.8501320999998825
639,5.0,increament,0.6,100.0,standard,15.0,2.0,1.0,
640,5.0,increament,0.6,100.0,standard,15.0,2.0,1.0,
641,5.0,increament,0.6,100.0,standard,15.0,2.0,1.0,
642,5.0,increament,0.6,100.0,standard,15.0,2.0,1.0,
643,5.0,increament,0.6,100.0,standard,15.0,2.0,1.0,
644,5.0,increament,0.6,100.0,standard,15.0,2.0,1.0,
645,5.0,increament,0.96,160.0,oddball,18.0,2.0,1.0,0.1963625000003048
646,5.0,increament,0.6,100.0,standard,15.0,2.0,1.0,
647,5.0,increament,0.6,100.0,standard,15.0,2.0,1.0,
648,5.0,increament,0.6,100.0,standard,15.0,2.0,1.0,
649,5.0,increament,0.72,120.0,oddball,16.0,2.0,0.0,
650,5.0,increament,0.6,100.0,standard,15.0,2.0,1.0,
651,5.0,increament,0.6,100.0,standard,15.0,2.0,1.0,
652,5.0,increament,0.6,100.0,standard,15.0,2.0,1.0,
653,5.0,increament,0.6,100.0,standard,15.0,2.0,1.0,
654,5.0,increament,0.6,100.0,standard,15.0,2.0,1.0,
655,5.0,increament,0.6,100.0,standard,15.0,2.0,1.0,
656,5.0,increament,0.6,100.0,standard,15.0,2.0,1.0,
657,5.0,increament,0.6,100.0,standard,15.0,2.0,1.0,
658,5.0,increament,0.6,100.0,standard,15.0,2.0,1.0,
659,5.0,increament,0.6,100.0,standard,15.0,2.0,1.0,
660,5.0,decreament,0.6,100.0,standard,11.0,2.0,1.0,
661,5.0,decreament,0.6,100.0,standard,11.0,2.0,1.0,
662,5.0,decreament,0.6,100.0,standard,11.0,2.0,1.0,
663,5.0,decreament,0.6,100.0,standard,11.0,2.0,1.0,
664,5.0,decreament,0.6,100.0,standard,11.0,2.0,1.0,
665,5.0,decreament,0.6,100.0,standard,11.0,2.0,1.0,
666,5.0,decreament,0.6,100.0,standard,11.0,2.0,1.0,
667,5.0,decreament,0.6,100.0,standard,11.0,2.0,0.0,0.675590800000009
668,5.0,decreament,0.24,40.0,oddball,12.0,2.0,1.0,0.4232857000001786
669,5.0,decreament,0.6,100.0,standard,11.0,2.0,1.0,
670,5.0,decreament,0.6,100.0,standard,11.0,2.0,1.0,
671,5.0,decreament,0.6,100.0,standard,11.0,2.0,1.0,
672,5.0,decreament,0.6,100.0,standard,11.0,2.0,1.0,
673,5.0,decreament,0.6,100.0,standard,11.0,2.0,1.0,
674,5.0,decreament,0.6,100.0,standard,11.0,2.0,1.0,
675,5.0,decreament,0.6,100.0,standard,11.0,2.0,1.0,
676,5.0,decreament,0.6,100.0,standard,11.0,2.0,0.0,0.4971560999997564
677,5.0,decreament,0.6,100.0,standard,11.0,2.0,0.0,0.4876133000002483
678,5.0,decreament,0.48,80.0,oddball,14.0,2.0,0.0,
679,5.0,decreament,0.6,100.0,standard,11.0,2.0,1.0,
680,5.0,decreament,0.6,100.0,standard,11.0,2.0,1.0,
681,5.0,decreament,0.6,100.0,standard,11.0,2.0,0.0,0.4485205999994832
682,5.0,decreament,0.6,100.0,standard,11.0,2.0,1.0,
683,5.0,decreament,0.6,100.0,standard,11.0,2.0,1.0,
684,5.0,decreament,0.6,100.0,standard,11.0,2.0,0.0,0.3569111000001612
685,5.0,decreament,0.6,100.0,standard,11.0,2.0,1.0,
686,5.0,decreament,0.6,100.0,standard,11.0,2.0,1.0,
687,5.0,decreament,0.6,100.0,standard,11.0,2.0,1.0,
688,5.0,decreament,0.36,60.0,oddball,13.0,2.0,1.0,0.8057888999996976
689,5.0,decreament,0.6,100.0,standard,11.0,2.0,1.0,
690,5.0,increament,0.6,100.0,standard,15.0,2.0,1.0,
691,5.0,increament,0.6,100.0,standard,15.0,2.0,1.0,
692,5.0,increament,0.6,100.0,standard,15.0,2.0,1.0,
693,5.0,increament,0.6,100.0,standard,15.0,2.0,1.0,
694,5.0,increament,0.6,100.0,standard,15.0,2.0,1.0,
695,5.0,increament,0.6,100.0,standard,15.0,2.0,1.0,
696,5.0,increament,0.6,100.0,standard,15.0,2.0,1.0,
697,5.0,increament,0.6,100.0,standard,15.0,2.0,1.0,
698,5.0,increament,0.6,100.0,standard,15.0,2.0,1.0,
699,5.0,increament,0.96,160.0,oddball,18.0,2.0,1.0,0.1310393999997359
700,5.0,increament,0.6,100.0,standard,15.0,2.0,1.0,
701,5.0,increament,0.6,100.0,standard,15.0,2.0,1.0,
702,5.0,increament,0.6,100.0,standard,15.0,2.0,1.0,
703,5.0,increament,0.6,100.0,standard,15.0,2.0,1.0,
704,5.0,increament,0.6,100.0,standard,15.0,2.0,1.0,
705,5.0,increament,0.6,100.0,standard,15.0,2.0,1.0,
706,5.0,increament,0.6,100.0,standard,15.0,2.0,1.0,
707,5.0,increament,0.6,100.0,standard,15.0,2.0,0.0,0.9312624999997752
708,5.0,increament,0.6,100.0,standard,15.0,2.0,1.0,
709,5.0,increament,0.6,100.0,standard,15.0,2.0,1.0,
710,5.0,increament,0.6,100.0,standard,15.0,2.0,1.0,
711,5.0,increament,0.6,100.0,standard,15.0,2.0,1.0,
712,5.0,increament,0.6,100.0,standard,15.0,2.0,1.0,
713,5.0,increament,0.84,140.0,oddball,17.0,2.0,1.0,0.5119595000001027
714,5.0,increament,0.6,100.0,standard,15.0,2.0,1.0,
715,5.0,increament,0.6,100.0,standard,15.0,2.0,1.0,
716,5.0,increament,0.6,100.0,standard,15.0,2.0,0.0,0.718311399999493
717,5.0,increament,0.72,120.0,oddball,16.0,2.0,1.0,1.1586901000005128
718,5.0,increament,0.6,100.0,standard,15.0,2.0,1.0,
719,5.0,increament,0.6,100.0,standard,15.0,2.0,1.0,
720,5.0,decreament,0.6,100.0,standard,11.0,2.0,1.0,
721,5.0,decreament,0.6,100.0,standard,11.0,2.0,1.0,
722,5.0,decreament,0.6,100.0,standard,11.0,2.0,1.0,
723,5.0,decreament,0.6,100.0,standard,11.0,2.0,1.0,
724,5.0,decreament,0.6,100.0,standard,11.0,2.0,1.0,
725,5.0,decreament,0.6,100.0,standard,11.0,2.0,1.0,
726,5.0,decreament,0.6,100.0,standard,11.0,2.0,1.0,
727,5.0,decreament,0.6,100.0,standard,11.0,2.0,1.0,
728,5.0,decreament,0.6,100.0,standard,11.0,2.0,0.0,0.5804961999997431
729,5.0,decreament,0.36,60.0,oddball,13.0,2.0,1.0,0.8260753999998087
730,5.0,decreament,0.6,100.0,standard,11.0,2.0,1.0,
731,5.0,decreament,0.6,100.0,standard,11.0,2.0,1.0,
732,5.0,decreament,0.6,100.0,standard,11.0,2.0,1.0,
733,5.0,decreament,0.6,100.0,standard,11.0,2.0,1.0,
734,5.0,decreament,0.6,100.0,standard,11.0,2.0,1.0,
735,5.0,decreament,0.6,100.0,standard,11.0,2.0,1.0,
736,5.0,decreament,0.6,100.0,standard,11.0,2.0,1.0,
737,5.0,decreament,0.24,40.0,oddball,12.0,2.0,1.0,1.3696158999996442
738,5.0,decreament,0.6,100.0,standard,11.0,2.0,1.0,
739,5.0,decreament,0.6,100.0,standard,11.0,2.0,1.0,
740,5.0,decreament,0.6,100.0,standard,11.0,2.0,1.0,
741,5.0,decreament,0.6,100.0,standard,11.0,2.0,0.0,0.3312068000000181
742,5.0,decreament,0.6,100.0,standard,11.0,2.0,0.0,0.4929842999995344
743,5.0,decreament,0.6,100.0,standard,11.0,2.0,0.0,0.7276574999991681
744,5.0,decreament,0.6,100.0,standard,11.0,2.0,1.0,
745,5.0,decreament,0.6,100.0,standard,11.0,2.0,1.0,
746,5.0,decreament,0.6,100.0,standard,11.0,2.0,1.0,
747,5.0,decreament,0.48,80.0,oddball,14.0,2.0,0.0,
748,5.0,decreament,0.6,100.0,standard,11.0,2.0,1.0,
749,5.0,decreament,0.6,100.0,standard,11.0,2.0,1.0,
750,5.0,increament,0.6,100.0,standard,15.0,2.0,1.0,
751,5.0,increament,0.6,100.0,standard,15.0,2.0,1.0,
752,5.0,increament,0.6,100.0,standard,15.0,2.0,1.0,
753,5.0,increament,0.6,100.0,standard,15.0,2.0,1.0,
754,5.0,increament,0.6,100.0,standard,15.0,2.0,1.0,
755,5.0,increament,0.6,100.0,standard,15.0,2.0,1.0,
756,5.0,increament,0.6,100.0,standard,15.0,2.0,1.0,
757,5.0,increament,0.6,100.0,standard,15.0,2.0,1.0,
758,5.0,increament,0.72,120.0,oddball,16.0,2.0,1.0,0.8523865000001933
759,5.0,increament,0.6,100.0,standard,15.0,2.0,1.0,
760,5.0,increament,0.6,100.0,standard,15.0,2.0,1.0,
761,5.0,increament,0.6,100.0,standard,15.0,2.0,0.0,0.3517698999999084
762,5.0,increament,0.96,160.0,oddball,18.0,2.0,0.0,
763,5.0,increament,0.6,100.0,standard,15.0,2.0,1.0,
764,5.0,increament,0.6,100.0,standard,15.0,2.0,1.0,
765,5.0,increament,0.6,100.0,standard,15.0,2.0,1.0,
766,5.0,increament,0.6,100.0,standard,15.0,2.0,1.0,
767,5.0,increament,0.6,100.0,standard,15.0,2.0,0.0,0.4679815000004055
768,5.0,increament,0.6,100.0,standard,15.0,2.0,1.0,
769,5.0,increament,0.6,100.0,standard,15.0,2.0,1.0,
770,5.0,increament,0.6,100.0,standard,15.0,2.0,0.0,0.9507753000002594
771,5.0,increament,0.6,100.0,standard,15.0,2.0,1.0,
772,5.0,increament,0.6,100.0,standard,15.0,2.0,1.0,
773,5.0,increament,0.6,100.0,standard,15.0,2.0,1.0,
774,5.0,increament,0.6,100.0,standard,15.0,2.0,1.0,
775,5.0,increament,0.84,140.0,oddball,17.0,2.0,1.0,0.3322070999997777
776,5.0,increament,0.6,100.0,standard,15.0,2.0,1.0,
777,5.0,increament,0.6,100.0,standard,15.0,2.0,1.0,
778,5.0,increament,0.6,100.0,standard,15.0,2.0,1.0,
779,5.0,increament,0.6,100.0,standard,15.0,2.0,0.0,0.3523788000006789
780,5.0,decreament,0.6,100.0,standard,11.0,2.0,1.0,
781,5.0,decreament,0.6,100.0,standard,11.0,2.0,1.0,
782,5.0,decreament,0.6,100.0,standard,11.0,2.0,1.0,
783,5.0,decreament,0.6,100.0,standard,11.0,2.0,1.0,
784,5.0,decreament,0.6,100.0,standard,11.0,2.0,1.0,
785,5.0,decreament,0.6,100.0,standard,11.0,2.0,1.0,
786,5.0,decreament,0.6,100.0,standard,11.0,2.0,0.0,0.5459143000002769
787,5.0,decreament,0.6,100.0,standard,11.0,2.0,0.0,1.3732140999995863
788,5.0,decreament,0.6,100.0,standard,11.0,2.0,1.0,
789,5.0,decreament,0.6,100.0,standard,11.0,2.0,1.0,
790,5.0,decreament,0.6,100.0,standard,11.0,2.0,0.0,0.5699579999995876
791,5.0,decreament,0.6,100.0,standard,11.0,2.0,1.0,
792,5.0,decreament,0.6,100.0,standard,11.0,2.0,1.0,
793,5.0,decreament,0.6,100.0,standard,11.0,2.0,1.0,
794,5.0,decreament,0.6,100.0,standard,11.0,2.0,1.0,
795,5.0,decreament,0.48,80.0,oddball,14.0,2.0,0.0,
796,5.0,decreament,0.6,100.0,standard,11.0,2.0,1.0,
797,5.0,decreament,0.6,100.0,standard,11.0,2.0,0.0,0.6407105000002957
798,5.0,decreament,0.6,100.0,standard,11.0,2.0,1.0,
799,5.0,decreament,0.6,100.0,standard,11.0,2.0,1.0,
800,5.0,decreament,0.6,100.0,standard,11.0,2.0,1.0,
801,5.0,decreament,0.6,100.0,standard,11.0,2.0,1.0,
802,5.0,decreament,0.36,60.0,oddball,13.0,2.0,1.0,0.411732099999881
803,5.0,decreament,0.6,100.0,standard,11.0,2.0,1.0,
804,5.0,decreament,0.6,100.0,standard,11.0,2.0,1.0,
805,5.0,decreament,0.6,100.0,standard,11.0,2.0,0.0,0.3930986000000303
806,5.0,decreament,0.24,40.0,oddball,12.0,2.0,1.0,0.5663297000005514
807,5.0,decreament,0.6,100.0,standard,11.0,2.0,1.0,
808,5.0,decreament,0.6,100.0,standard,11.0,2.0,1.0,
809,5.0,decreament,0.6,100.0,standard,11.0,2.0,1.0,
810,5.0,increament,0.6,100.0,standard,15.0,2.0,1.0,
811,5.0,increament,0.6,100.0,standard,15.0,2.0,1.0,
812,5.0,increament,0.6,100.0,standard,15.0,2.0,1.0,
813,5.0,increament,0.6,100.0,standard,15.0,2.0,1.0,
814,5.0,increament,0.6,100.0,standard,15.0,2.0,1.0,
815,5.0,increament,0.6,100.0,standard,15.0,2.0,1.0,
816,5.0,increament,0.6,100.0,standard,15.0,2.0,1.0,
817,5.0,increament,0.6,100.0,standard,15.0,2.0,1.0,
818,5.0,increament,0.6,100.0,standard,15.0,2.0,1.0,
819,5.0,increament,0.6,100.0,standard,15.0,2.0,0.0,0.3659457999997357
820,5.0,increament,0.6,100.0,standard,15.0,2.0,1.0,
821,5.0,increament,0.6,100.0,standard,15.0,2.0,1.0,
822,5.0,increament,0.96,160.0,oddball,18.0,2.0,1.0,0.3660357000003387
823,5.0,increament,0.6,100.0,standard,15.0,2.0,1.0,
824,5.0,increament,0.6,100.0,standard,15.0,2.0,1.0,
825,5.0,increament,0.6,100.0,standard,15.0,2.0,1.0,
826,5.0,increament,0.6,100.0,standard,15.0,2.0,1.0,
827,5.0,increament,0.6,100.0,standard,15.0,2.0,1.0,
828,5.0,increament,0.6,100.0,standard,15.0,2.0,1.0,
829,5.0,increament,0.6,100.0,standard,15.0,2.0,0.0,0.528088900000057
830,5.0,increament,0.72,120.0,oddball,16.0,2.0,0.0,
831,5.0,increament,0.6,100.0,standard,15.0,2.0,0.0,1.0090961999999308
832,5.0,increament,0.6,100.0,standard,15.0,2.0,1.0,
833,5.0,increament,0.6,100.0,standard,15.0,2.0,1.0,
834,5.0,increament,0.6,100.0,standard,15.0,2.0,1.0,
835,5.0,increament,0.6,100.0,standard,15.0,2.0,1.0,
836,5.0,increament,0.6,100.0,standard,15.0,2.0,0.0,0.9633709000004274
837,5.0,increament,0.84,140.0,oddball,17.0,2.0,0.0,
838,5.0,increament,0.6,100.0,standard,15.0,2.0,1.0,
839,5.0,increament,0.6,100.0,standard,15.0,2.0,1.0,
840,5.0,decreament,0.6,100.0,standard,11.0,2.0,1.0,
841,5.0,decreament,0.6,100.0,standard,11.0,2.0,1.0,
842,5.0,decreament,0.6,100.0,standard,11.0,2.0,1.0,
843,5.0,decreament,0.6,100.0,standard,11.0,2.0,1.0,
844,5.0,decreament,0.6,100.0,standard,11.0,2.0,1.0,
845,5.0,decreament,0.6,100.0,standard,11.0,2.0,1.0,
846,5.0,decreament,0.6,100.0,standard,11.0,2.0,1.0,
847,5.0,decreament,0.6,100.0,standard,11.0,2.0,0.0,0.8940558999997847
848,5.0,decreament,0.6,100.0,standard,11.0,2.0,1.0,
849,5.0,decreament,0.6,100.0,standard,11.0,2.0,1.0,
850,5.0,decreament,0.6,100.0,standard,11.0,2.0,1.0,
851,5.0,decreament,0.6,100.0,standard,11.0,2.0,0.0,0.4925544000002446
852,5.0,decreament,0.6,100.0,standard,11.0,2.0,1.0,
853,5.0,decreament,0.6,100.0,standard,11.0,2.0,1.0,
854,5.0,decreament,0.6,100.0,standard,11.0,2.0,1.0,
855,5.0,decreament,0.6,100.0,standard,11.0,2.0,1.0,
856,5.0,decreament,0.6,100.0,standard,11.0,2.0,1.0,
857,5.0,decreament,0.24,40.0,oddball,12.0,2.0,1.0,0.3514548999996805
858,5.0,decreament,0.6,100.0,standard,11.0,2.0,0.0,0.4877784000004794
859,5.0,decreament,0.6,100.0,standard,11.0,2.0,1.0,
860,5.0,decreament,0.6,100.0,standard,11.0,2.0,1.0,
861,5.0,decreament,0.6,100.0,standard,11.0,2.0,1.0,
862,5.0,decreament,0.36,60.0,oddball,13.0,2.0,1.0,0.4981567999998333
863,5.0,decreament,0.6,100.0,standard,11.0,2.0,1.0,
864,5.0,decreament,0.6,100.0,standard,11.0,2.0,1.0,
865,5.0,decreament,0.6,100.0,standard,11.0,2.0,1.0,
866,5.0,decreament,0.6,100.0,standard,11.0,2.0,1.0,
867,5.0,decreament,0.6,100.0,standard,11.0,2.0,0.0,0.4590541000002304
868,5.0,decreament,0.6,100.0,standard,11.0,2.0,1.0,
869,5.0,decreament,0.48,80.0,oddball,14.0,2.0,0.0,
870,5.0,increament,0.6,100.0,standard,15.0,2.0,1.0,
871,5.0,increament,0.6,100.0,standard,15.0,2.0,1.0,
872,5.0,increament,0.6,100.0,standard,15.0,2.0,1.0,
873,5.0,increament,0.6,100.0,standard,15.0,2.0,1.0,
874,5.0,increament,0.6,100.0,standard,15.0,2.0,1.0,
875,5.0,increament,0.6,100.0,standard,15.0,2.0,1.0,
876,5.0,increament,0.6,100.0,standard,15.0,2.0,1.0,
877,5.0,increament,0.6,100.0,standard,15.0,2.0,0.0,0.8420149999997193
878,5.0,increament,0.6,100.0,standard,15.0,2.0,1.0,
879,5.0,increament,0.6,100.0,standard,15.0,2.0,0.0,0.3969756999999845
880,5.0,increament,0.6,100.0,standard,15.0,2.0,1.0,
881,5.0,increament,0.6,100.0,standard,15.0,2.0,1.0,
882,5.0,increament,0.6,100.0,standard,15.0,2.0,1.0,
883,5.0,increament,0.6,100.0,standard,15.0,2.0,0.0,0.3806407999995826
884,5.0,increament,0.6,100.0,standard,15.0,2.0,1.0,
885,5.0,increament,0.6,100.0,standard,15.0,2.0,1.0,
886,5.0,increament,0.6,100.0,standard,15.0,2.0,1.0,
887,5.0,increament,0.6,100.0,standard,15.0,2.0,1.0,
888,5.0,increament,0.96,160.0,oddball,18.0,2.0,1.0,0.0605276999999659
889,5.0,increament,0.6,100.0,standard,15.0,2.0,1.0,
890,5.0,increament,0.6,100.0,standard,15.0,2.0,1.0,
891,5.0,increament,0.6,100.0,standard,15.0,2.0,0.0,0.6836335000002691
892,5.0,increament,0.84,140.0,oddball,17.0,2.0,0.0,
893,5.0,increament,0.6,100.0,standard,15.0,2.0,1.0,
894,5.0,increament,0.6,100.0,standard,15.0,2.0,1.0,
895,5.0,increament,0.6,100.0,standard,15.0,2.0,1.0,
896,5.0,increament,0.72,120.0,oddball,16.0,2.0,0.0,
897,5.0,increament,0.6,100.0,standard,15.0,2.0,1.0,
898,5.0,increament,0.6,100.0,standard,15.0,2.0,1.0,
899,5.0,increament,0.6,100.0,standard,15.0,2.0,1.0,
900,20.0,decreament,0.6,100.0,standard,41.0,3.0,1.0,
901,20.0,decreament,0.6,100.0,standard,41.0,3.0,1.0,
902,20.0,decreament,0.6,100.0,standard,41.0,3.0,1.0,
903,20.0,decreament,0.6,100.0,standard,41.0,3.0,1.0,
904,20.0,decreament,0.6,100.0,standard,41.0,3.0,1.0,
905,20.0,decreament,0.6,100.0,standard,41.0,3.0,1.0,
906,20.0,decreament,0.6,100.0,standard,41.0,3.0,1.0,
907,20.0,decreament,0.24,40.0,oddball,42.0,3.0,1.0,0.6707686000004287
908,20.0,decreament,0.6,100.0,standard,41.0,3.0,1.0,
909,20.0,decreament,0.6,100.0,standard,41.0,3.0,1.0,
910,20.0,decreament,0.6,100.0,standard,41.0,3.0,1.0,
911,20.0,decreament,0.6,100.0,standard,41.0,3.0,1.0,
912,20.0,decreament,0.6,100.0,standard,41.0,3.0,0.0,0.4083113000001503
913,20.0,decreament,0.6,100.0,standard,41.0,3.0,1.0,
914,20.0,decreament,0.6,100.0,standard,41.0,3.0,1.0,
915,20.0,decreament,0.6,100.0,standard,41.0,3.0,1.0,
916,20.0,decreament,0.6,100.0,standard,41.0,3.0,1.0,
917,20.0,decreament,0.6,100.0,standard,41.0,3.0,1.0,
918,20.0,decreament,0.6,100.0,standard,41.0,3.0,0.0,0.6152993999999126
919,20.0,decreament,0.6,100.0,standard,41.0,3.0,1.0,
920,20.0,decreament,0.6,100.0,standard,41.0,3.0,1.0,
921,20.0,decreament,0.6,100.0,standard,41.0,3.0,0.0,0.6879163000007793
922,20.0,decreament,0.6,100.0,standard,41.0,3.0,1.0,
923,20.0,decreament,0.36,60.0,oddball,43.0,3.0,0.0,
924,20.0,decreament,0.6,100.0,standard,41.0,3.0,1.0,
925,20.0,decreament,0.6,100.0,standard,41.0,3.0,0.0,0.4501159000005827
926,20.0,decreament,0.6,100.0,standard,41.0,3.0,1.0,
927,20.0,decreament,0.6,100.0,standard,41.0,3.0,1.0,
928,20.0,decreament,0.48,80.0,oddball,44.0,3.0,0.0,
929,20.0,decreament,0.6,100.0,standard,41.0,3.0,1.0,
930,20.0,increament,0.6,100.0,standard,45.0,3.0,1.0,
931,20.0,increament,0.6,100.0,standard,45.0,3.0,1.0,
932,20.0,increament,0.6,100.0,standard,45.0,3.0,1.0,
933,20.0,increament,0.6,100.0,standard,45.0,3.0,1.0,
934,20.0,increament,0.6,100.0,standard,45.0,3.0,1.0,
935,20.0,increament,0.6,100.0,standard,45.0,3.0,0.0,0.7639305000006971
936,20.0,increament,0.96,160.0,oddball,48.0,3.0,0.0,
937,20.0,increament,0.6,100.0,standard,45.0,3.0,1.0,
938,20.0,increament,0.6,100.0,standard,45.0,3.0,1.0,
939,20.0,increament,0.6,100.0,standard,45.0,3.0,1.0,
940,20.0,increament,0.6,100.0,standard,45.0,3.0,1.0,
941,20.0,increament,0.6,100.0,standard,45.0,3.0,1.0,
942,20.0,increament,0.6,100.0,standard,45.0,3.0,0.0,0.2009154000002126
943,20.0,increament,0.6,100.0,standard,45.0,3.0,1.0,
944,20.0,increament,0.6,100.0,standard,45.0,3.0,1.0,
945,20.0,increament,0.72,120.0,oddball,46.0,3.0,1.0,0.4338269000004402
946,20.0,increament,0.6,100.0,standard,45.0,3.0,1.0,
947,20.0,increament,0.6,100.0,standard,45.0,3.0,1.0,
948,20.0,increament,0.6,100.0,standard,45.0,3.0,1.0,
949,20.0,increament,0.6,100.0,standard,45.0,3.0,1.0,
950,20.0,increament,0.6,100.0,standard,45.0,3.0,0.0,1.1800051000004714
951,20.0,increament,0.84,140.0,oddball,47.0,3.0,1.0,0.2743468000003304
952,20.0,increament,0.6,100.0,standard,45.0,3.0,1.0,
953,20.0,increament,0.6,100.0,standard,45.0,3.0,1.0,
954,20.0,increament,0.6,100.0,standard,45.0,3.0,1.0,
955,20.0,increament,0.6,100.0,standard,45.0,3.0,1.0,
956,20.0,increament,0.6,100.0,standard,45.0,3.0,0.0,0.3669942999999875
957,20.0,increament,0.6,100.0,standard,45.0,3.0,0.0,0.4681983000004948
958,20.0,increament,0.6,100.0,standard,45.0,3.0,1.0,
959,20.0,increament,0.6,100.0,standard,45.0,3.0,1.0,
960,20.0,decreament,0.6,100.0,standard,41.0,3.0,1.0,
961,20.0,decreament,0.6,100.0,standard,41.0,3.0,1.0,
962,20.0,decreament,0.6,100.0,standard,41.0,3.0,1.0,
963,20.0,decreament,0.6,100.0,standard,41.0,3.0,1.0,
964,20.0,decreament,0.6,100.0,standard,41.0,3.0,1.0,
965,20.0,decreament,0.6,100.0,standard,41.0,3.0,1.0,
966,20.0,decreament,0.6,100.0,standard,41.0,3.0,0.0,1.598594800000228
967,20.0,decreament,0.6,100.0,standard,41.0,3.0,1.0,
968,20.0,decreament,0.6,100.0,standard,41.0,3.0,1.0,
969,20.0,decreament,0.6,100.0,standard,41.0,3.0,1.0,
970,20.0,decreament,0.6,100.0,standard,41.0,3.0,1.0,
971,20.0,decreament,0.36,60.0,oddball,43.0,3.0,1.0,0.4103736000001845
972,20.0,decreament,0.6,100.0,standard,41.0,3.0,1.0,
973,20.0,decreament,0.6,100.0,standard,41.0,3.0,1.0,
974,20.0,decreament,0.6,100.0,standard,41.0,3.0,1.0,
975,20.0,decreament,0.48,80.0,oddball,44.0,3.0,0.0,
976,20.0,decreament,0.6,100.0,standard,41.0,3.0,1.0,
977,20.0,decreament,0.6,100.0,standard,41.0,3.0,0.0,0.3885980999998537
978,20.0,decreament,0.6,100.0,standard,41.0,3.0,1.0,
979,20.0,decreament,0.6,100.0,standard,41.0,3.0,0.0,0.4986962999996649
980,20.0,decreament,0.6,100.0,standard,41.0,3.0,1.0,
981,20.0,decreament,0.6,100.0,standard,41.0,3.0,1.0,
982,20.0,decreament,0.6,100.0,standard,41.0,3.0,1.0,
983,20.0,decreament,0.6,100.0,standard,41.0,3.0,1.0,
984,20.0,decreament,0.6,100.0,standard,41.0,3.0,0.0,0.1283654999992904
985,20.0,decreament,0.6,100.0,standard,41.0,3.0,1.0,
986,20.0,decreament,0.6,100.0,standard,41.0,3.0,1.0,
987,20.0,decreament,0.6,100.0,standard,41.0,3.0,1.0,
988,20.0,decreament,0.6,100.0,standard,41.0,3.0,1.0,
989,20.0,decreament,0.24,40.0,oddball,42.0,3.0,1.0,0.4717049000005318
990,20.0,increament,0.6,100.0,standard,45.0,3.0,1.0,
991,20.0,increament,0.6,100.0,standard,45.0,3.0,1.0,
992,20.0,increament,0.6,100.0,standard,45.0,3.0,1.0,
993,20.0,increament,0.6,100.0,standard,45.0,3.0,1.0,
994,20.0,increament,0.6,100.0,standard,45.0,3.0,1.0,
995,20.0,increament,0.6,100.0,standard,45.0,3.0,1.0,
996,20.0,increament,0.84,140.0,oddball,47.0,3.0,1.0,1.0255068000001302
997,20.0,increament,0.6,100.0,standard,45.0,3.0,1.0,
998,20.0,increament,0.6,100.0,standard,45.0,3.0,1.0,
999,20.0,increament,0.6,100.0,standard,45.0,3.0,1.0,
1000,20.0,increament,0.6,100.0,standard,45.0,3.0,1.0,
1001,20.0,increament,0.6,100.0,standard,45.0,3.0,1.0,
1002,20.0,increament,0.72,120.0,oddball,46.0,3.0,1.0,0.3680796000003283
1003,20.0,increament,0.6,100.0,standard,45.0,3.0,1.0,
1004,20.0,increament,0.6,100.0,standard,45.0,3.0,0.0,0.6845948999994107
1005,20.0,increament,0.6,100.0,standard,45.0,3.0,1.0,
1006,20.0,increament,0.6,100.0,standard,45.0,3.0,1.0,
1007,20.0,increament,0.6,100.0,standard,45.0,3.0,1.0,
1008,20.0,increament,0.6,100.0,standard,45.0,3.0,1.0,
1009,20.0,increament,0.96,160.0,oddball,48.0,3.0,1.0,0.2810722999997779
1010,20.0,increament,0.6,100.0,standard,45.0,3.0,1.0,
1011,20.0,increament,0.6,100.0,standard,45.0,3.0,0.0,0.3716461999997591
1012,20.0,increament,0.6,100.0,standard,45.0,3.0,1.0,
1013,20.0,increament,0.6,100.0,standard,45.0,3.0,0.0,1.2887218000000755
1014,20.0,increament,0.6,100.0,standard,45.0,3.0,1.0,
1015,20.0,increament,0.6,100.0,standard,45.0,3.0,1.0,
1016,20.0,increament,0.6,100.0,standard,45.0,3.0,1.0,
1017,20.0,increament,0.6,100.0,standard,45.0,3.0,1.0,
1018,20.0,increament,0.6,100.0,standard,45.0,3.0,1.0,
1019,20.0,increament,0.6,100.0,standard,45.0,3.0,0.0,0.2300994000001992
1020,20.0,decreament,0.6,100.0,standard,41.0,3.0,1.0,
1021,20.0,decreament,0.6,100.0,standard,41.0,3.0,1.0,
1022,20.0,decreament,0.6,100.0,standard,41.0,3.0,1.0,
1023,20.0,decreament,0.6,100.0,standard,41.0,3.0,1.0,
1024,20.0,decreament,0.6,100.0,standard,41.0,3.0,1.0,
1025,20.0,decreament,0.48,80.0,oddball,44.0,3.0,0.0,
1026,20.0,decreament,0.6,100.0,standard,41.0,3.0,1.0,
1027,20.0,decreament,0.6,100.0,standard,41.0,3.0,1.0,
1028,20.0,decreament,0.6,100.0,standard,41.0,3.0,1.0,
1029,20.0,decreament,0.6,100.0,standard,41.0,3.0,1.0,
1030,20.0,decreament,0.6,100.0,standard,41.0,3.0,1.0,
1031,20.0,decreament,0.6,100.0,standard,41.0,3.0,1.0,
1032,20.0,decreament,0.6,100.0,standard,41.0,3.0,1.0,
1033,20.0,decreament,0.6,100.0,standard,41.0,3.0,1.0,
1034,20.0,decreament,0.6,100.0,standard,41.0,3.0,0.0,0.0396354999998038
1035,20.0,decreament,0.6,100.0,standard,41.0,3.0,1.0,
1036,20.0,decreament,0.6,100.0,standard,41.0,3.0,0.0,0.5489019999999982
1037,20.0,decreament,0.6,100.0,standard,41.0,3.0,1.0,
1038,20.0,decreament,0.6,100.0,standard,41.0,3.0,1.0,
1039,20.0,decreament,0.24,40.0,oddball,42.0,3.0,1.0,0.3512714000003143
1040,20.0,decreament,0.6,100.0,standard,41.0,3.0,0.0,0.55581839999968
1041,20.0,decreament,0.6,100.0,standard,41.0,3.0,1.0,
1042,20.0,decreament,0.6,100.0,standard,41.0,3.0,1.0,
1043,20.0,decreament,0.6,100.0,standard,41.0,3.0,1.0,
1044,20.0,decreament,0.36,60.0,oddball,43.0,3.0,0.0,
1045,20.0,decreament,0.6,100.0,standard,41.0,3.0,1.0,
1046,20.0,decreament,0.6,100.0,standard,41.0,3.0,1.0,
1047,20.0,decreament,0.6,100.0,standard,41.0,3.0,1.0,
1048,20.0,decreament,0.6,100.0,standard,41.0,3.0,0.0,0.3684659000005013
1049,20.0,decreament,0.6,100.0,standard,41.0,3.0,1.0,
1050,20.0,increament,0.6,100.0,standard,45.0,3.0,0.0,0.520831399999679
1051,20.0,increament,0.6,100.0,standard,45.0,3.0,1.0,
1052,20.0,increament,0.6,100.0,standard,45.0,3.0,1.0,
1053,20.0,increament,0.6,100.0,standard,45.0,3.0,1.0,
1054,20.0,increament,0.6,100.0,standard,45.0,3.0,0.0,1.0728022999996938
1055,20.0,increament,0.6,100.0,standard,45.0,3.0,1.0,
1056,20.0,increament,0.6,100.0,standard,45.0,3.0,0.0,0.608227899999747
1057,20.0,increament,0.6,100.0,standard,45.0,3.0,1.0,
1058,20.0,increament,0.96,160.0,oddball,48.0,3.0,0.0,
1059,20.0,increament,0.6,100.0,standard,45.0,3.0,1.0,
1060,20.0,increament,0.6,100.0,standard,45.0,3.0,1.0,
1061,20.0,increament,0.6,100.0,standard,45.0,3.0,1.0,
1062,20.0,increament,0.6,100.0,standard,45.0,3.0,1.0,
1063,20.0,increament,0.6,100.0,standard,45.0,3.0,1.0,
1064,20.0,increament,0.6,100.0,standard,45.0,3.0,0.0,0.2132619999997587
1065,20.0,increament,0.6,100.0,standard,45.0,3.0,1.0,
1066,20.0,increament,0.72,120.0,oddball,46.0,3.0,1.0,0.4111140999998497
1067,20.0,increament,0.6,100.0,standard,45.0,3.0,1.0,
1068,20.0,increament,0.6,100.0,standard,45.0,3.0,1.0,
1069,20.0,increament,0.6,100.0,standard,45.0,3.0,1.0,
1070,20.0,increament,0.6,100.0,standard,45.0,3.0,1.0,
1071,20.0,increament,0.6,100.0,standard,45.0,3.0,1.0,
1072,20.0,increament,0.6,100.0,standard,45.0,3.0,1.0,
1073,20.0,increament,0.6,100.0,standard,45.0,3.0,0.0,0.3575242000001708
1074,20.0,increament,0.6,100.0,standard,45.0,3.0,1.0,
1075,20.0,increament,0.6,100.0,standard,45.0,3.0,1.0,
1076,20.0,increament,0.6,100.0,standard,45.0,3.0,1.0,
1077,20.0,increament,0.6,100.0,standard,45.0,3.0,1.0,
1078,20.0,increament,0.6,100.0,standard,45.0,3.0,0.0,0.4301134000002093
1079,20.0,increament,0.84,140.0,oddball,47.0,3.0,0.0,
1080,20.0,decreament,0.6,100.0,standard,41.0,3.0,1.0,
1081,20.0,decreament,0.6,100.0,standard,41.0,3.0,1.0,
1082,20.0,decreament,0.6,100.0,standard,41.0,3.0,1.0,
1083,20.0,decreament,0.6,100.0,standard,41.0,3.0,1.0,
1084,20.0,decreament,0.6,100.0,standard,41.0,3.0,1.0,
1085,20.0,decreament,0.6,100.0,standard,41.0,3.0,1.0,
1086,20.0,decreament,0.24,40.0,oddball,42.0,3.0,1.0,0.4120177999998304
1087,20.0,decreament,0.6,100.0,standard,41.0,3.0,1.0,
1088,20.0,decreament,0.6,100.0,standard,41.0,3.0,1.0,
1089,20.0,decreament,0.6,100.0,standard,41.0,3.0,1.0,
1090,20.0,decreament,0.6,100.0,standard,41.0,3.0,1.0,
1091,20.0,decreament,0.6,100.0,standard,41.0,3.0,1.0,
1092,20.0,decreament,0.6,100.0,standard,41.0,3.0,0.0,0.4534844000004341
1093,20.0,decreament,0.6,100.0,standard,41.0,3.0,1.0,
1094,20.0,decreament,0.6,100.0,standard,41.0,3.0,1.0,
1095,20.0,decreament,0.6,100.0,standard,41.0,3.0,1.0,
1096,20.0,decreament,0.6,100.0,standard,41.0,3.0,1.0,
1097,20.0,decreament,0.36,60.0,oddball,43.0,3.0,0.0,
1098,20.0,decreament,0.6,100.0,standard,41.0,3.0,0.0,0.0188911999998708
1099,20.0,decreament,0.6,100.0,standard,41.0,3.0,1.0,
1100,20.0,decreament,0.6,100.0,standard,41.0,3.0,1.0,
1101,20.0,decreament,0.6,100.0,standard,41.0,3.0,1.0,
1102,20.0,decreament,0.6,100.0,standard,41.0,3.0,1.0,
1103,20.0,decreament,0.6,100.0,standard,41.0,3.0,1.0,
1104,20.0,decreament,0.48,80.0,oddball,44.0,3.0,1.0,0.5964001999996071
1105,20.0,decreament,0.6,100.0,standard,41.0,3.0,1.0,
1106,20.0,decreament,0.6,100.0,standard,41.0,3.0,1.0,
1107,20.0,decreament,0.6,100.0,standard,41.0,3.0,1.0,
1108,20.0,decreament,0.6,100.0,standard,41.0,3.0,1.0,
1109,20.0,decreament,0.6,100.0,standard,41.0,3.0,0.0,0.3240525000005618
1110,20.0,increament,0.6,100.0,standard,45.0,3.0,1.0,
1111,20.0,increament,0.6,100.0,standard,45.0,3.0,1.0,
1112,20.0,increament,0.6,100.0,standard,45.0,3.0,1.0,
1113,20.0,increament,0.6,100.0,standard,45.0,3.0,1.0,
1114,20.0,increament,0.6,100.0,standard,45.0,3.0,0.0,0.4446898000001056
1115,20.0,increament,0.6,100.0,standard,45.0,3.0,1.0,
1116,20.0,increament,0.6,100.0,standard,45.0,3.0,1.0,
1117,20.0,increament,0.6,100.0,standard,45.0,3.0,1.0,
1118,20.0,increament,0.6,100.0,standard,45.0,3.0,1.0,
1119,20.0,increament,0.6,100.0,standard,45.0,3.0,1.0,
1120,20.0,increament,0.6,100.0,standard,45.0,3.0,1.0,
1121,20.0,increament,0.96,160.0,oddball,48.0,3.0,1.0,0.7555219000000761
1122,20.0,increament,0.6,100.0,standard,45.0,3.0,1.0,
1123,20.0,increament,0.6,100.0,standard,45.0,3.0,1.0,
1124,20.0,increament,0.6,100.0,standard,45.0,3.0,1.0,
1125,20.0,increament,0.6,100.0,standard,45.0,3.0,1.0,
1126,20.0,increament,0.6,100.0,standard,45.0,3.0,1.0,
1127,20.0,increament,0.6,100.0,standard,45.0,3.0,1.0,
1128,20.0,increament,0.6,100.0,standard,45.0,3.0,1.0,
1129,20.0,increament,0.6,100.0,standard,45.0,3.0,1.0,
1130,20.0,increament,0.6,100.0,standard,45.0,3.0,1.0,
1131,20.0,increament,0.84,140.0,oddball,47.0,3.0,0.0,
1132,20.0,increament,0.6,100.0,standard,45.0,3.0,1.0,
1133,20.0,increament,0.6,100.0,standard,45.0,3.0,0.0,0.1790671000003385
1134,20.0,increament,0.6,100.0,standard,45.0,3.0,1.0,
1135,20.0,increament,0.6,100.0,standard,45.0,3.0,1.0,
1136,20.0,increament,0.72,120.0,oddball,46.0,3.0,0.0,
1137,20.0,increament,0.6,100.0,standard,45.0,3.0,1.0,
1138,20.0,increament,0.6,100.0,standard,45.0,3.0,1.0,
1139,20.0,increament,0.6,100.0,standard,45.0,3.0,0.0,0.4616869999995288
1140,20.0,decreament,0.6,100.0,standard,41.0,3.0,1.0,
1141,20.0,decreament,0.6,100.0,standard,41.0,3.0,1.0,
1142,20.0,decreament,0.6,100.0,standard,41.0,3.0,1.0,
1143,20.0,decreament,0.6,100.0,standard,41.0,3.0,1.0,
1144,20.0,decreament,0.6,100.0,standard,41.0,3.0,1.0,
1145,20.0,decreament,0.6,100.0,standard,41.0,3.0,1.0,
1146,20.0,decreament,0.6,100.0,standard,41.0,3.0,1.0,
1147,20.0,decreament,0.6,100.0,standard,41.0,3.0,1.0,
1148,20.0,decreament,0.36,60.0,oddball,43.0,3.0,0.0,
1149,20.0,decreament,0.6,100.0,standard,41.0,3.0,1.0,
1150,20.0,decreament,0.6,100.0,standard,41.0,3.0,1.0,
1151,20.0,decreament,0.6,100.0,standard,41.0,3.0,1.0,
1152,20.0,decreament,0.48,80.0,oddball,44.0,3.0,0.0,
1153,20.0,decreament,0.6,100.0,standard,41.0,3.0,1.0,
1154,20.0,decreament,0.6,100.0,standard,41.0,3.0,1.0,
1155,20.0,decreament,0.6,100.0,standard,41.0,3.0,1.0,
1156,20.0,decreament,0.6,100.0,standard,41.0,3.0,1.0,
1157,20.0,decreament,0.6,100.0,standard,41.0,3.0,1.0,
1158,20.0,decreament,0.24,40.0,oddball,42.0,3.0,0.0,
1159,20.0,decreament,0.6,100.0,standard,41.0,3.0,1.0,
1160,20.0,decreament,0.6,100.0,standard,41.0,3.0,1.0,
1161,20.0,decreament,0.6,100.0,standard,41.0,3.0,1.0,
1162,20.0,decreament,0.6,100.0,standard,41.0,3.0,1.0,
1163,20.0,decreament,0.6,100.0,standard,41.0,3.0,1.0,
1164,20.0,decreament,0.6,100.0,standard,41.0,3.0,1.0,
1165,20.0,decreament,0.6,100.0,standard,41.0,3.0,1.0,
1166,20.0,decreament,0.6,100.0,standard,41.0,3.0,1.0,
1167,20.0,decreament,0.6,100.0,standard,41.0,3.0,1.0,
1168,20.0,decreament,0.6,100.0,standard,41.0,3.0,1.0,
1169,20.0,decreament,0.6,100.0,standard,41.0,3.0,1.0,
1170,20.0,increament,0.6,100.0,standard,45.0,3.0,1.0,
1171,20.0,increament,0.6,100.0,standard,45.0,3.0,1.0,
1172,20.0,increament,0.6,100.0,standard,45.0,3.0,1.0,
1173,20.0,increament,0.6,100.0,standard,45.0,3.0,1.0,
1174,20.0,increament,0.6,100.0,standard,45.0,3.0,1.0,
1175,20.0,increament,0.6,100.0,standard,45.0,3.0,1.0,
1176,20.0,increament,0.6,100.0,standard,45.0,3.0,0.0,0.4043324999997821
1177,20.0,increament,0.6,100.0,standard,45.0,3.0,1.0,
1178,20.0,increament,0.6,100.0,standard,45.0,3.0,1.0,
1179,20.0,increament,0.96,160.0,oddball,48.0,3.0,1.0,0.1184227999997347
1180,20.0,increament,0.6,100.0,standard,45.0,3.0,1.0,
1181,20.0,increament,0.6,100.0,standard,45.0,3.0,1.0,
1182,20.0,increament,0.6,100.0,standard,45.0,3.0,1.0,
1183,20.0,increament,0.6,100.0,standard,45.0,3.0,1.0,
1184,20.0,increament,0.72,120.0,oddball,46.0,3.0,0.0,
1185,20.0,increament,0.6,100.0,standard,45.0,3.0,1.0,
1186,20.0,increament,0.6,100.0,standard,45.0,3.0,1.0,
1187,20.0,increament,0.6,100.0,standard,45.0,3.0,1.0,
1188,20.0,increament,0.6,100.0,standard,45.0,3.0,1.0,
1189,20.0,increament,0.6,100.0,standard,45.0,3.0,1.0,
1190,20.0,increament,0.84,140.0,oddball,47.0,3.0,0.0,
1191,20.0,increament,0.6,100.0,standard,45.0,3.0,1.0,
1192,20.0,increament,0.6,100.0,standard,45.0,3.0,1.0,
1193,20.0,increament,0.6,100.0,standard,45.0,3.0,1.0,
1194,20.0,increament,0.6,100.0,standard,45.0,3.0,1.0,
1195,20.0,increament,0.6,100.0,standard,45.0,3.0,1.0,
1196,20.0,increament,0.6,100.0,standard,45.0,3.0,1.0,
1197,20.0,increament,0.6,100.0,standard,45.0,3.0,1.0,
1198,20.0,increament,0.6,100.0,standard,45.0,3.0,1.0,
1199,20.0,increament,0.6,100.0,standard,45.0,3.0,1.0,
