,grating_freq,direction,duration,scaling,stim_type,trigger,blocks.thisN,resp.corr,resp.rt
0,0.0,decreament,0.6,100.0,standard,1.0,0.0,1.0,
1,0.0,decreament,0.6,100.0,standard,1.0,0.0,1.0,
2,0.0,decreament,0.6,100.0,standard,1.0,0.0,1.0,
3,0.0,decreament,0.6,100.0,standard,1.0,0.0,1.0,
4,0.0,decreament,0.6,100.0,standard,1.0,0.0,1.0,
5,0.0,decreament,0.6,100.0,standard,1.0,0.0,1.0,
6,0.0,decreament,0.6,100.0,standard,1.0,0.0,1.0,
7,0.0,decreament,0.6,100.0,standard,1.0,0.0,1.0,
8,0.0,decreament,0.36,60.0,oddball,3.0,0.0,1.0,1.2585630002431571
9,0.0,decreament,0.6,100.0,standard,1.0,0.0,1.0,
10,0.0,decreament,0.6,100.0,standard,1.0,0.0,1.0,
11,0.0,decreament,0.6,100.0,standard,1.0,0.0,1.0,
12,0.0,decreament,0.6,100.0,standard,1.0,0.0,1.0,
13,0.0,decreament,0.48,80.0,oddball,4.0,0.0,1.0,0.5979398004710674
14,0.0,decreament,0.6,100.0,standard,1.0,0.0,1.0,
15,0.0,decreament,0.6,100.0,standard,1.0,0.0,1.0,
16,0.0,decreament,0.6,100.0,standard,1.0,0.0,1.0,
17,0.0,decreament,0.6,100.0,standard,1.0,0.0,1.0,
18,0.0,decreament,0.6,100.0,standard,1.0,0.0,1.0,
19,0.0,decreament,0.6,100.0,standard,1.0,0.0,1.0,
20,0.0,decreament,0.6,100.0,standard,1.0,0.0,1.0,
21,0.0,decreament,0.6,100.0,standard,1.0,0.0,1.0,
22,0.0,decreament,0.6,100.0,standard,1.0,0.0,1.0,
23,0.0,decreament,0.24,40.0,oddball,2.0,0.0,1.0,0.7043721000663936
24,0.0,decreament,0.6,100.0,standard,1.0,0.0,1.0,
25,0.0,decreament,0.6,100.0,standard,1.0,0.0,1.0,
26,0.0,decreament,0.6,100.0,standard,1.0,0.0,1.0,
27,0.0,decreament,0.6,100.0,standard,1.0,0.0,1.0,
28,0.0,decreament,0.6,100.0,standard,1.0,0.0,1.0,
29,0.0,decreament,0.6,100.0,standard,1.0,0.0,1.0,
30,0.0,increament,0.6,100.0,standard,5.0,0.0,1.0,
31,0.0,increament,0.6,100.0,standard,5.0,0.0,1.0,
32,0.0,increament,0.6,100.0,standard,5.0,0.0,1.0,
33,0.0,increament,0.6,100.0,standard,5.0,0.0,1.0,
34,0.0,increament,0.6,100.0,standard,5.0,0.0,1.0,
35,0.0,increament,0.6,100.0,standard,5.0,0.0,1.0,
36,0.0,increament,0.6,100.0,standard,5.0,0.0,1.0,
37,0.0,increament,0.6,100.0,standard,5.0,0.0,0.0,0.7503150999546051
38,0.0,increament,0.96,160.0,oddball,8.0,0.0,1.0,0.108233300037682
39,0.0,increament,0.6,100.0,standard,5.0,0.0,1.0,
40,0.0,increament,0.6,100.0,standard,5.0,0.0,1.0,
41,0.0,increament,0.6,100.0,standard,5.0,0.0,1.0,
42,0.0,increament,0.6,100.0,standard,5.0,0.0,1.0,
43,0.0,increament,0.6,100.0,standard,5.0,0.0,1.0,
44,0.0,increament,0.6,100.0,standard,5.0,0.0,1.0,
45,0.0,increament,0.72,120.0,oddball,6.0,0.0,1.0,0.4200427001342177
46,0.0,increament,0.6,100.0,standard,5.0,0.0,1.0,
47,0.0,increament,0.6,100.0,standard,5.0,0.0,0.0,0.3111841999925673
48,0.0,increament,0.6,100.0,standard,5.0,0.0,1.0,
49,0.0,increament,0.84,140.0,oddball,7.0,0.0,1.0,0.4452407001517713
50,0.0,increament,0.6,100.0,standard,5.0,0.0,1.0,
51,0.0,increament,0.6,100.0,standard,5.0,0.0,1.0,
52,0.0,increament,0.6,100.0,standard,5.0,0.0,1.0,
53,0.0,increament,0.6,100.0,standard,5.0,0.0,1.0,
54,0.0,increament,0.6,100.0,standard,5.0,0.0,1.0,
55,0.0,increament,0.6,100.0,standard,5.0,0.0,0.0,0.7146307001821697
56,0.0,increament,0.6,100.0,standard,5.0,0.0,1.0,
57,0.0,increament,0.6,100.0,standard,5.0,0.0,0.0,0.2857311000116169
58,0.0,increament,0.6,100.0,standard,5.0,0.0,1.0,
59,0.0,increament,0.6,100.0,standard,5.0,0.0,1.0,
60,0.0,decreament,0.6,100.0,standard,1.0,0.0,1.0,
61,0.0,decreament,0.6,100.0,standard,1.0,0.0,1.0,
62,0.0,decreament,0.6,100.0,standard,1.0,0.0,1.0,
63,0.0,decreament,0.6,100.0,standard,1.0,0.0,1.0,
64,0.0,decreament,0.6,100.0,standard,1.0,0.0,1.0,
65,0.0,decreament,0.6,100.0,standard,1.0,0.0,1.0,
66,0.0,decreament,0.6,100.0,standard,1.0,0.0,1.0,
67,0.0,decreament,0.6,100.0,standard,1.0,0.0,1.0,
68,0.0,decreament,0.6,100.0,standard,1.0,0.0,1.0,
69,0.0,decreament,0.6,100.0,standard,1.0,0.0,1.0,
70,0.0,decreament,0.24,40.0,oddball,2.0,0.0,1.0,0.4721394004300236
71,0.0,decreament,0.6,100.0,standard,1.0,0.0,1.0,
72,0.0,decreament,0.6,100.0,standard,1.0,0.0,1.0,
73,0.0,decreament,0.6,100.0,standard,1.0,0.0,1.0,
74,0.0,decreament,0.6,100.0,standard,1.0,0.0,0.0,0.1910739997401833
75,0.0,decreament,0.6,100.0,standard,1.0,0.0,1.0,
76,0.0,decreament,0.6,100.0,standard,1.0,0.0,1.0,
77,0.0,decreament,0.48,80.0,oddball,4.0,0.0,0.0,
78,0.0,decreament,0.6,100.0,standard,1.0,0.0,1.0,
79,0.0,decreament,0.6,100.0,standard,1.0,0.0,1.0,
80,0.0,decreament,0.6,100.0,standard,1.0,0.0,1.0,
81,0.0,decreament,0.6,100.0,standard,1.0,0.0,0.0,0.994976700283587
82,0.0,decreament,0.6,100.0,standard,1.0,0.0,1.0,
83,0.0,decreament,0.6,100.0,standard,1.0,0.0,1.0,
84,0.0,decreament,0.6,100.0,standard,1.0,0.0,1.0,
85,0.0,decreament,0.6,100.0,standard,1.0,0.0,1.0,
86,0.0,decreament,0.6,100.0,standard,1.0,0.0,1.0,
87,0.0,decreament,0.6,100.0,standard,1.0,0.0,1.0,
88,0.0,decreament,0.36,60.0,oddball,3.0,0.0,0.0,
89,0.0,decreament,0.6,100.0,standard,1.0,0.0,1.0,
90,0.0,increament,0.6,100.0,standard,5.0,0.0,1.0,
91,0.0,increament,0.6,100.0,standard,5.0,0.0,1.0,
92,0.0,increament,0.6,100.0,standard,5.0,0.0,1.0,
93,0.0,increament,0.6,100.0,standard,5.0,0.0,1.0,
94,0.0,increament,0.6,100.0,standard,5.0,0.0,1.0,
95,0.0,increament,0.6,100.0,standard,5.0,0.0,1.0,
96,0.0,increament,0.6,100.0,standard,5.0,0.0,1.0,
97,0.0,increament,0.6,100.0,standard,5.0,0.0,0.0,0.2356345998123288
98,0.0,increament,0.72,120.0,oddball,6.0,0.0,1.0,0.1920861001126468
99,0.0,increament,0.6,100.0,standard,5.0,0.0,1.0,
100,0.0,increament,0.6,100.0,standard,5.0,0.0,1.0,
101,0.0,increament,0.6,100.0,standard,5.0,0.0,1.0,
102,0.0,increament,0.6,100.0,standard,5.0,0.0,1.0,
103,0.0,increament,0.6,100.0,standard,5.0,0.0,1.0,
104,0.0,increament,0.84,140.0,oddball,7.0,0.0,1.0,1.2631633002310991
105,0.0,increament,0.6,100.0,standard,5.0,0.0,1.0,
106,0.0,increament,0.6,100.0,standard,5.0,0.0,1.0,
107,0.0,increament,0.6,100.0,standard,5.0,0.0,1.0,
108,0.0,increament,0.6,100.0,standard,5.0,0.0,1.0,
109,0.0,increament,0.6,100.0,standard,5.0,0.0,1.0,
110,0.0,increament,0.6,100.0,standard,5.0,0.0,1.0,
111,0.0,increament,0.96,160.0,oddball,8.0,0.0,1.0,0.6215349999256432
112,0.0,increament,0.6,100.0,standard,5.0,0.0,1.0,
113,0.0,increament,0.6,100.0,standard,5.0,0.0,0.0,0.4631639001891017
114,0.0,increament,0.6,100.0,standard,5.0,0.0,1.0,
115,0.0,increament,0.6,100.0,standard,5.0,0.0,1.0,
116,0.0,increament,0.6,100.0,standard,5.0,0.0,1.0,
117,0.0,increament,0.6,100.0,standard,5.0,0.0,1.0,
118,0.0,increament,0.6,100.0,standard,5.0,0.0,1.0,
119,0.0,increament,0.6,100.0,standard,5.0,0.0,1.0,
120,0.0,decreament,0.6,100.0,standard,1.0,0.0,1.0,
121,0.0,decreament,0.6,100.0,standard,1.0,0.0,1.0,
122,0.0,decreament,0.6,100.0,standard,1.0,0.0,1.0,
123,0.0,decreament,0.6,100.0,standard,1.0,0.0,1.0,
124,0.0,decreament,0.6,100.0,standard,1.0,0.0,1.0,
125,0.0,decreament,0.6,100.0,standard,1.0,0.0,1.0,
126,0.0,decreament,0.6,100.0,standard,1.0,0.0,1.0,
127,0.0,decreament,0.6,100.0,standard,1.0,0.0,1.0,
128,0.0,decreament,0.6,100.0,standard,1.0,0.0,1.0,
129,0.0,decreament,0.6,100.0,standard,1.0,0.0,1.0,
130,0.0,decreament,0.6,100.0,standard,1.0,0.0,1.0,
131,0.0,decreament,0.6,100.0,standard,1.0,0.0,1.0,
132,0.0,decreament,0.6,100.0,standard,1.0,0.0,1.0,
133,0.0,decreament,0.24,40.0,oddball,2.0,0.0,1.0,0.7343660001643002
134,0.0,decreament,0.6,100.0,standard,1.0,0.0,0.0,0.5050946003757417
135,0.0,decreament,0.6,100.0,standard,1.0,0.0,1.0,
136,0.0,decreament,0.6,100.0,standard,1.0,0.0,1.0,
137,0.0,decreament,0.6,100.0,standard,1.0,0.0,1.0,
138,0.0,decreament,0.48,80.0,oddball,4.0,0.0,0.0,
139,0.0,decreament,0.6,100.0,standard,1.0,0.0,1.0,
140,0.0,decreament,0.6,100.0,standard,1.0,0.0,1.0,
141,0.0,decreament,0.6,100.0,standard,1.0,0.0,1.0,
142,0.0,decreament,0.6,100.0,standard,1.0,0.0,1.0,
143,0.0,decreament,0.36,60.0,oddball,3.0,0.0,1.0,0.9122571004554628
144,0.0,decreament,0.6,100.0,standard,1.0,0.0,1.0,
145,0.0,decreament,0.6,100.0,standard,1.0,0.0,1.0,
146,0.0,decreament,0.6,100.0,standard,1.0,0.0,1.0,
147,0.0,decreament,0.6,100.0,standard,1.0,0.0,1.0,
148,0.0,decreament,0.6,100.0,standard,1.0,0.0,1.0,
149,0.0,decreament,0.6,100.0,standard,1.0,0.0,1.0,
150,0.0,increament,0.6,100.0,standard,5.0,0.0,1.0,
151,0.0,increament,0.6,100.0,standard,5.0,0.0,1.0,
152,0.0,increament,0.6,100.0,standard,5.0,0.0,1.0,
153,0.0,increament,0.6,100.0,standard,5.0,0.0,1.0,
154,0.0,increament,0.6,100.0,standard,5.0,0.0,1.0,
155,0.0,increament,0.6,100.0,standard,5.0,0.0,1.0,
156,0.0,increament,0.6,100.0,standard,5.0,0.0,1.0,
157,0.0,increament,0.96,160.0,oddball,8.0,0.0,1.0,0.0120849004015326
158,0.0,increament,0.6,100.0,standard,5.0,0.0,0.0,0.9812734997831284
159,0.0,increament,0.6,100.0,standard,5.0,0.0,0.0,0.8348046997562051
160,0.0,increament,0.6,100.0,standard,5.0,0.0,1.0,
161,0.0,increament,0.6,100.0,standard,5.0,0.0,0.0,0.4266228000633418
162,0.0,increament,0.6,100.0,standard,5.0,0.0,1.0,
163,0.0,increament,0.6,100.0,standard,5.0,0.0,1.0,
164,0.0,increament,0.6,100.0,standard,5.0,0.0,1.0,
165,0.0,increament,0.6,100.0,standard,5.0,0.0,1.0,
166,0.0,increament,0.6,100.0,standard,5.0,0.0,0.0,0.3538323999382555
167,0.0,increament,0.6,100.0,standard,5.0,0.0,1.0,
168,0.0,increament,0.6,100.0,standard,5.0,0.0,1.0,
169,0.0,increament,0.6,100.0,standard,5.0,0.0,1.0,
170,0.0,increament,0.6,100.0,standard,5.0,0.0,1.0,
171,0.0,increament,0.72,120.0,oddball,6.0,0.0,0.0,
172,0.0,increament,0.6,100.0,standard,5.0,0.0,1.0,
173,0.0,increament,0.6,100.0,standard,5.0,0.0,1.0,
174,0.0,increament,0.6,100.0,standard,5.0,0.0,1.0,
175,0.0,increament,0.6,100.0,standard,5.0,0.0,0.0,0.3659317004494369
176,0.0,increament,0.84,140.0,oddball,7.0,0.0,0.0,
177,0.0,increament,0.6,100.0,standard,5.0,0.0,1.0,
178,0.0,increament,0.6,100.0,standard,5.0,0.0,1.0,
179,0.0,increament,0.6,100.0,standard,5.0,0.0,1.0,
180,0.0,decreament,0.6,100.0,standard,1.0,0.0,1.0,
181,0.0,decreament,0.6,100.0,standard,1.0,0.0,1.0,
182,0.0,decreament,0.6,100.0,standard,1.0,0.0,1.0,
183,0.0,decreament,0.6,100.0,standard,1.0,0.0,1.0,
184,0.0,decreament,0.6,100.0,standard,1.0,0.0,1.0,
185,0.0,decreament,0.6,100.0,standard,1.0,0.0,1.0,
186,0.0,decreament,0.6,100.0,standard,1.0,0.0,1.0,
187,0.0,decreament,0.6,100.0,standard,1.0,0.0,1.0,
188,0.0,decreament,0.48,80.0,oddball,4.0,0.0,0.0,
189,0.0,decreament,0.6,100.0,standard,1.0,0.0,1.0,
190,0.0,decreament,0.6,100.0,standard,1.0,0.0,1.0,
191,0.0,decreament,0.6,100.0,standard,1.0,0.0,1.0,
192,0.0,decreament,0.6,100.0,standard,1.0,0.0,1.0,
193,0.0,decreament,0.6,100.0,standard,1.0,0.0,1.0,
194,0.0,decreament,0.6,100.0,standard,1.0,0.0,1.0,
195,0.0,decreament,0.6,100.0,standard,1.0,0.0,1.0,
196,0.0,decreament,0.36,60.0,oddball,3.0,0.0,1.0,0.941911700181663
197,0.0,decreament,0.6,100.0,standard,1.0,0.0,0.0,0.5607402003370225
198,0.0,decreament,0.6,100.0,standard,1.0,0.0,1.0,
199,0.0,decreament,0.6,100.0,standard,1.0,0.0,1.0,
200,0.0,decreament,0.6,100.0,standard,1.0,0.0,1.0,
201,0.0,decreament,0.6,100.0,standard,1.0,0.0,1.0,
202,0.0,decreament,0.6,100.0,standard,1.0,0.0,1.0,
203,0.0,decreament,0.6,100.0,standard,1.0,0.0,1.0,
204,0.0,decreament,0.6,100.0,standard,1.0,0.0,1.0,
205,0.0,decreament,0.6,100.0,standard,1.0,0.0,1.0,
206,0.0,decreament,0.24,40.0,oddball,2.0,0.0,0.0,
207,0.0,decreament,0.6,100.0,standard,1.0,0.0,1.0,
208,0.0,decreament,0.6,100.0,standard,1.0,0.0,1.0,
209,0.0,decreament,0.6,100.0,standard,1.0,0.0,1.0,
210,0.0,increament,0.6,100.0,standard,5.0,0.0,1.0,
211,0.0,increament,0.6,100.0,standard,5.0,0.0,1.0,
212,0.0,increament,0.6,100.0,standard,5.0,0.0,1.0,
213,0.0,increament,0.6,100.0,standard,5.0,0.0,1.0,
214,0.0,increament,0.6,100.0,standard,5.0,0.0,1.0,
215,0.0,increament,0.6,100.0,standard,5.0,0.0,1.0,
216,0.0,increament,0.6,100.0,standard,5.0,0.0,0.0,0.1363846999593079
217,0.0,increament,0.6,100.0,standard,5.0,0.0,1.0,
218,0.0,increament,0.6,100.0,standard,5.0,0.0,1.0,
219,0.0,increament,0.72,120.0,oddball,6.0,0.0,0.0,
220,0.0,increament,0.6,100.0,standard,5.0,0.0,1.0,
221,0.0,increament,0.6,100.0,standard,5.0,0.0,1.0,
222,0.0,increament,0.6,100.0,standard,5.0,0.0,1.0,
223,0.0,increament,0.6,100.0,standard,5.0,0.0,1.0,
224,0.0,increament,0.6,100.0,standard,5.0,0.0,1.0,
225,0.0,increament,0.6,100.0,standard,5.0,0.0,0.0,0.3308018003590405
226,0.0,increament,0.6,100.0,standard,5.0,0.0,1.0,
227,0.0,increament,0.6,100.0,standard,5.0,0.0,1.0,
228,0.0,increament,0.6,100.0,standard,5.0,0.0,1.0,
229,0.0,increament,0.6,100.0,standard,5.0,0.0,0.0,0.7994016003794968
230,0.0,increament,0.6,100.0,standard,5.0,0.0,1.0,
231,0.0,increament,0.6,100.0,standard,5.0,0.0,1.0,
232,0.0,increament,0.6,100.0,standard,5.0,0.0,0.0,0.2286479002796113
233,0.0,increament,0.6,100.0,standard,5.0,0.0,1.0,
234,0.0,increament,0.84,140.0,oddball,7.0,0.0,1.0,0.4988215998746454
235,0.0,increament,0.6,100.0,standard,5.0,0.0,1.0,
236,0.0,increament,0.6,100.0,standard,5.0,0.0,1.0,
237,0.0,increament,0.6,100.0,standard,5.0,0.0,1.0,
238,0.0,increament,0.96,160.0,oddball,8.0,0.0,0.0,
239,0.0,increament,0.6,100.0,standard,5.0,0.0,1.0,
240,0.0,decreament,0.6,100.0,standard,1.0,0.0,1.0,
241,0.0,decreament,0.6,100.0,standard,1.0,0.0,1.0,
242,0.0,decreament,0.6,100.0,standard,1.0,0.0,1.0,
243,0.0,decreament,0.6,100.0,standard,1.0,0.0,1.0,
244,0.0,decreament,0.6,100.0,standard,1.0,0.0,1.0,
245,0.0,decreament,0.24,40.0,oddball,2.0,0.0,1.0,0.7305056001059711
246,0.0,decreament,0.6,100.0,standard,1.0,0.0,1.0,
247,0.0,decreament,0.6,100.0,standard,1.0,0.0,1.0,
248,0.0,decreament,0.6,100.0,standard,1.0,0.0,0.0,0.366419400088489
249,0.0,decreament,0.6,100.0,standard,1.0,0.0,1.0,
250,0.0,decreament,0.6,100.0,standard,1.0,0.0,1.0,
251,0.0,decreament,0.6,100.0,standard,1.0,0.0,1.0,
252,0.0,decreament,0.6,100.0,standard,1.0,0.0,1.0,
253,0.0,decreament,0.6,100.0,standard,1.0,0.0,0.0,0.7542217001318932
254,0.0,decreament,0.6,100.0,standard,1.0,0.0,1.0,
255,0.0,decreament,0.36,60.0,oddball,3.0,0.0,0.0,
256,0.0,decreament,0.6,100.0,standard,1.0,0.0,0.0,0.4182227002456784
257,0.0,decreament,0.6,100.0,standard,1.0,0.0,0.0,1.1053209002129734
258,0.0,decreament,0.6,100.0,standard,1.0,0.0,1.0,
259,0.0,decreament,0.6,100.0,standard,1.0,0.0,1.0,
260,0.0,decreament,0.6,100.0,standard,1.0,0.0,0.0,0.1312338998541236
261,0.0,decreament,0.48,80.0,oddball,4.0,0.0,1.0,0.4492231998592615
262,0.0,decreament,0.6,100.0,standard,1.0,0.0,1.0,
263,0.0,decreament,0.6,100.0,standard,1.0,0.0,1.0,
264,0.0,decreament,0.6,100.0,standard,1.0,0.0,1.0,
265,0.0,decreament,0.6,100.0,standard,1.0,0.0,1.0,
266,0.0,decreament,0.6,100.0,standard,1.0,0.0,1.0,
267,0.0,decreament,0.6,100.0,standard,1.0,0.0,1.0,
268,0.0,decreament,0.6,100.0,standard,1.0,0.0,1.0,
269,0.0,decreament,0.6,100.0,standard,1.0,0.0,1.0,
270,0.0,increament,0.6,100.0,standard,5.0,0.0,1.0,
271,0.0,increament,0.6,100.0,standard,5.0,0.0,1.0,
272,0.0,increament,0.6,100.0,standard,5.0,0.0,1.0,
273,0.0,increament,0.6,100.0,standard,5.0,0.0,1.0,
274,0.0,increament,0.6,100.0,standard,5.0,0.0,1.0,
275,0.0,increament,0.6,100.0,standard,5.0,0.0,1.0,
276,0.0,increament,0.6,100.0,standard,5.0,0.0,1.0,
277,0.0,increament,0.6,100.0,standard,5.0,0.0,1.0,
278,0.0,increament,0.96,160.0,oddball,8.0,0.0,0.0,
279,0.0,increament,0.6,100.0,standard,5.0,0.0,1.0,
280,0.0,increament,0.6,100.0,standard,5.0,0.0,1.0,
281,0.0,increament,0.6,100.0,standard,5.0,0.0,1.0,
282,0.0,increament,0.6,100.0,standard,5.0,0.0,1.0,
283,0.0,increament,0.6,100.0,standard,5.0,0.0,1.0,
284,0.0,increament,0.6,100.0,standard,5.0,0.0,1.0,
285,0.0,increament,0.6,100.0,standard,5.0,0.0,1.0,
286,0.0,increament,0.72,120.0,oddball,6.0,0.0,0.0,
287,0.0,increament,0.6,100.0,standard,5.0,0.0,1.0,
288,0.0,increament,0.6,100.0,standard,5.0,0.0,1.0,
289,0.0,increament,0.6,100.0,standard,5.0,0.0,1.0,
290,0.0,increament,0.6,100.0,standard,5.0,0.0,1.0,
291,0.0,increament,0.6,100.0,standard,5.0,0.0,1.0,
292,0.0,increament,0.6,100.0,standard,5.0,0.0,1.0,
293,0.0,increament,0.84,140.0,oddball,7.0,0.0,0.0,
294,0.0,increament,0.6,100.0,standard,5.0,0.0,1.0,
295,0.0,increament,0.6,100.0,standard,5.0,0.0,1.0,
296,0.0,increament,0.6,100.0,standard,5.0,0.0,1.0,
297,0.0,increament,0.6,100.0,standard,5.0,0.0,1.0,
298,0.0,increament,0.6,100.0,standard,5.0,0.0,1.0,
299,0.0,increament,0.6,100.0,standard,5.0,0.0,1.0,
300,10.0,decreament,0.6,100.0,standard,21.0,1.0,1.0,
301,10.0,decreament,0.6,100.0,standard,21.0,1.0,1.0,
302,10.0,decreament,0.6,100.0,standard,21.0,1.0,1.0,
303,10.0,decreament,0.6,100.0,standard,21.0,1.0,1.0,
304,10.0,decreament,0.6,100.0,standard,21.0,1.0,1.0,
305,10.0,decreament,0.48,80.0,oddball,24.0,1.0,1.0,0.7022748002782464
306,10.0,decreament,0.6,100.0,standard,21.0,1.0,1.0,
307,10.0,decreament,0.6,100.0,standard,21.0,1.0,1.0,
308,10.0,decreament,0.6,100.0,standard,21.0,1.0,1.0,
309,10.0,decreament,0.6,100.0,standard,21.0,1.0,1.0,
310,10.0,decreament,0.24,40.0,oddball,22.0,1.0,0.0,
311,10.0,decreament,0.6,100.0,standard,21.0,1.0,1.0,
312,10.0,decreament,0.6,100.0,standard,21.0,1.0,0.0,0.8632362000644207
313,10.0,decreament,0.6,100.0,standard,21.0,1.0,1.0,
314,10.0,decreament,0.6,100.0,standard,21.0,1.0,1.0,
315,10.0,decreament,0.6,100.0,standard,21.0,1.0,1.0,
316,10.0,decreament,0.6,100.0,standard,21.0,1.0,1.0,
317,10.0,decreament,0.6,100.0,standard,21.0,1.0,1.0,
318,10.0,decreament,0.6,100.0,standard,21.0,1.0,1.0,
319,10.0,decreament,0.6,100.0,standard,21.0,1.0,1.0,
320,10.0,decreament,0.6,100.0,standard,21.0,1.0,1.0,
321,10.0,decreament,0.6,100.0,standard,21.0,1.0,1.0,
322,10.0,decreament,0.36,60.0,oddball,23.0,1.0,0.0,
323,10.0,decreament,0.6,100.0,standard,21.0,1.0,1.0,
324,10.0,decreament,0.6,100.0,standard,21.0,1.0,1.0,
325,10.0,decreament,0.6,100.0,standard,21.0,1.0,1.0,
326,10.0,decreament,0.6,100.0,standard,21.0,1.0,1.0,
327,10.0,decreament,0.6,100.0,standard,21.0,1.0,1.0,
328,10.0,decreament,0.6,100.0,standard,21.0,1.0,0.0,0.7275360003113747
329,10.0,decreament,0.6,100.0,standard,21.0,1.0,0.0,0.8413867000490427
330,10.0,increament,0.6,100.0,standard,25.0,1.0,1.0,
331,10.0,increament,0.6,100.0,standard,25.0,1.0,1.0,
332,10.0,increament,0.6,100.0,standard,25.0,1.0,1.0,
333,10.0,increament,0.6,100.0,standard,25.0,1.0,1.0,
334,10.0,increament,0.6,100.0,standard,25.0,1.0,0.0,1.1096855998039246
335,10.0,increament,0.96,160.0,oddball,28.0,1.0,0.0,
336,10.0,increament,0.6,100.0,standard,25.0,1.0,1.0,
337,10.0,increament,0.6,100.0,standard,25.0,1.0,1.0,
338,10.0,increament,0.6,100.0,standard,25.0,1.0,1.0,
339,10.0,increament,0.6,100.0,standard,25.0,1.0,1.0,
340,10.0,increament,0.6,100.0,standard,25.0,1.0,1.0,
341,10.0,increament,0.84,140.0,oddball,27.0,1.0,0.0,
342,10.0,increament,0.6,100.0,standard,25.0,1.0,0.0,0.673087100032717
343,10.0,increament,0.6,100.0,standard,25.0,1.0,1.0,
344,10.0,increament,0.6,100.0,standard,25.0,1.0,1.0,
345,10.0,increament,0.6,100.0,standard,25.0,1.0,1.0,
346,10.0,increament,0.6,100.0,standard,25.0,1.0,1.0,
347,10.0,increament,0.72,120.0,oddball,26.0,1.0,0.0,
348,10.0,increament,0.6,100.0,standard,25.0,1.0,1.0,
349,10.0,increament,0.6,100.0,standard,25.0,1.0,1.0,
350,10.0,increament,0.6,100.0,standard,25.0,1.0,1.0,
351,10.0,increament,0.6,100.0,standard,25.0,1.0,0.0,0.375590500421822
352,10.0,increament,0.6,100.0,standard,25.0,1.0,1.0,
353,10.0,increament,0.6,100.0,standard,25.0,1.0,1.0,
354,10.0,increament,0.6,100.0,standard,25.0,1.0,1.0,
355,10.0,increament,0.6,100.0,standard,25.0,1.0,1.0,
356,10.0,increament,0.6,100.0,standard,25.0,1.0,1.0,
357,10.0,increament,0.6,100.0,standard,25.0,1.0,0.0,1.2919716001488268
358,10.0,increament,0.6,100.0,standard,25.0,1.0,1.0,
359,10.0,increament,0.6,100.0,standard,25.0,1.0,1.0,
360,10.0,decreament,0.6,100.0,standard,21.0,1.0,1.0,
361,10.0,decreament,0.6,100.0,standard,21.0,1.0,1.0,
362,10.0,decreament,0.6,100.0,standard,21.0,1.0,1.0,
363,10.0,decreament,0.6,100.0,standard,21.0,1.0,1.0,
364,10.0,decreament,0.6,100.0,standard,21.0,1.0,1.0,
365,10.0,decreament,0.6,100.0,standard,21.0,1.0,1.0,
366,10.0,decreament,0.24,40.0,oddball,22.0,1.0,1.0,0.6806501001119614
367,10.0,decreament,0.6,100.0,standard,21.0,1.0,1.0,
368,10.0,decreament,0.6,100.0,standard,21.0,1.0,1.0,
369,10.0,decreament,0.6,100.0,standard,21.0,1.0,1.0,
370,10.0,decreament,0.6,100.0,standard,21.0,1.0,1.0,
371,10.0,decreament,0.6,100.0,standard,21.0,1.0,1.0,
372,10.0,decreament,0.6,100.0,standard,21.0,1.0,1.0,
373,10.0,decreament,0.6,100.0,standard,21.0,1.0,1.0,
374,10.0,decreament,0.6,100.0,standard,21.0,1.0,1.0,
375,10.0,decreament,0.6,100.0,standard,21.0,1.0,1.0,
376,10.0,decreament,0.6,100.0,standard,21.0,1.0,1.0,
377,10.0,decreament,0.6,100.0,standard,21.0,1.0,1.0,
378,10.0,decreament,0.6,100.0,standard,21.0,1.0,0.0,0.5212662001140416
379,10.0,decreament,0.6,100.0,standard,21.0,1.0,1.0,
380,10.0,decreament,0.6,100.0,standard,21.0,1.0,1.0,
381,10.0,decreament,0.6,100.0,standard,21.0,1.0,1.0,
382,10.0,decreament,0.6,100.0,standard,21.0,1.0,1.0,
383,10.0,decreament,0.36,60.0,oddball,23.0,1.0,1.0,0.7632679999805987
384,10.0,decreament,0.6,100.0,standard,21.0,1.0,1.0,
385,10.0,decreament,0.6,100.0,standard,21.0,1.0,1.0,
386,10.0,decreament,0.6,100.0,standard,21.0,1.0,1.0,
387,10.0,decreament,0.6,100.0,standard,21.0,1.0,1.0,
388,10.0,decreament,0.48,80.0,oddball,24.0,1.0,0.0,
389,10.0,decreament,0.6,100.0,standard,21.0,1.0,0.0,0.6249099001288414
390,10.0,increament,0.6,100.0,standard,25.0,1.0,1.0,
391,10.0,increament,0.6,100.0,standard,25.0,1.0,1.0,
392,10.0,increament,0.6,100.0,standard,25.0,1.0,1.0,
393,10.0,increament,0.6,100.0,standard,25.0,1.0,0.0,1.318392800167203
394,10.0,increament,0.6,100.0,standard,25.0,1.0,1.0,
395,10.0,increament,0.6,100.0,standard,25.0,1.0,0.0,0.4594476004131138
396,10.0,increament,0.6,100.0,standard,25.0,1.0,1.0,
397,10.0,increament,0.6,100.0,standard,25.0,1.0,1.0,
398,10.0,increament,0.6,100.0,standard,25.0,1.0,1.0,
399,10.0,increament,0.6,100.0,standard,25.0,1.0,0.0,1.0803559003397822
400,10.0,increament,0.6,100.0,standard,25.0,1.0,1.0,
401,10.0,increament,0.6,100.0,standard,25.0,1.0,1.0,
402,10.0,increament,0.6,100.0,standard,25.0,1.0,1.0,
403,10.0,increament,0.6,100.0,standard,25.0,1.0,1.0,
404,10.0,increament,0.84,140.0,oddball,27.0,1.0,1.0,0.2509331000037491
405,10.0,increament,0.6,100.0,standard,25.0,1.0,1.0,
406,10.0,increament,0.6,100.0,standard,25.0,1.0,1.0,
407,10.0,increament,0.6,100.0,standard,25.0,1.0,1.0,
408,10.0,increament,0.6,100.0,standard,25.0,1.0,0.0,0.4129685000516474
409,10.0,increament,0.6,100.0,standard,25.0,1.0,1.0,
410,10.0,increament,0.6,100.0,standard,25.0,1.0,0.0,0.6512601999565959
411,10.0,increament,0.6,100.0,standard,25.0,1.0,1.0,
412,10.0,increament,0.6,100.0,standard,25.0,1.0,1.0,
413,10.0,increament,0.6,100.0,standard,25.0,1.0,1.0,
414,10.0,increament,0.72,120.0,oddball,26.0,1.0,0.0,
415,10.0,increament,0.6,100.0,standard,25.0,1.0,1.0,
416,10.0,increament,0.6,100.0,standard,25.0,1.0,1.0,
417,10.0,increament,0.6,100.0,standard,25.0,1.0,1.0,
418,10.0,increament,0.96,160.0,oddball,28.0,1.0,1.0,0.3798655997961759
419,10.0,increament,0.6,100.0,standard,25.0,1.0,1.0,
420,10.0,decreament,0.6,100.0,standard,21.0,1.0,1.0,
421,10.0,decreament,0.6,100.0,standard,21.0,1.0,1.0,
422,10.0,decreament,0.6,100.0,standard,21.0,1.0,1.0,
423,10.0,decreament,0.6,100.0,standard,21.0,1.0,1.0,
424,10.0,decreament,0.6,100.0,standard,21.0,1.0,1.0,
425,10.0,decreament,0.48,80.0,oddball,24.0,1.0,0.0,
426,10.0,decreament,0.6,100.0,standard,21.0,1.0,1.0,
427,10.0,decreament,0.6,100.0,standard,21.0,1.0,1.0,
428,10.0,decreament,0.6,100.0,standard,21.0,1.0,0.0,1.0641689002513883
429,10.0,decreament,0.6,100.0,standard,21.0,1.0,1.0,
430,10.0,decreament,0.6,100.0,standard,21.0,1.0,1.0,
431,10.0,decreament,0.6,100.0,standard,21.0,1.0,1.0,
432,10.0,decreament,0.36,60.0,oddball,23.0,1.0,0.0,
433,10.0,decreament,0.6,100.0,standard,21.0,1.0,1.0,
434,10.0,decreament,0.6,100.0,standard,21.0,1.0,1.0,
435,10.0,decreament,0.6,100.0,standard,21.0,1.0,1.0,
436,10.0,decreament,0.6,100.0,standard,21.0,1.0,1.0,
437,10.0,decreament,0.6,100.0,standard,21.0,1.0,1.0,
438,10.0,decreament,0.6,100.0,standard,21.0,1.0,1.0,
439,10.0,decreament,0.6,100.0,standard,21.0,1.0,1.0,
440,10.0,decreament,0.6,100.0,standard,21.0,1.0,1.0,
441,10.0,decreament,0.6,100.0,standard,21.0,1.0,1.0,
442,10.0,decreament,0.6,100.0,standard,21.0,1.0,1.0,
443,10.0,decreament,0.6,100.0,standard,21.0,1.0,0.0,0.8133672000840306
444,10.0,decreament,0.6,100.0,standard,21.0,1.0,1.0,
445,10.0,decreament,0.6,100.0,standard,21.0,1.0,1.0,
446,10.0,decreament,0.24,40.0,oddball,22.0,1.0,0.0,
447,10.0,decreament,0.6,100.0,standard,21.0,1.0,1.0,
448,10.0,decreament,0.6,100.0,standard,21.0,1.0,1.0,
449,10.0,decreament,0.6,100.0,standard,21.0,1.0,0.0,1.3077683001756668
450,10.0,increament,0.6,100.0,standard,25.0,1.0,1.0,
451,10.0,increament,0.6,100.0,standard,25.0,1.0,1.0,
452,10.0,increament,0.6,100.0,standard,25.0,1.0,1.0,
453,10.0,increament,0.6,100.0,standard,25.0,1.0,1.0,
454,10.0,increament,0.6,100.0,standard,25.0,1.0,1.0,
455,10.0,increament,0.6,100.0,standard,25.0,1.0,1.0,
456,10.0,increament,0.6,100.0,standard,25.0,1.0,1.0,
457,10.0,increament,0.6,100.0,standard,25.0,1.0,1.0,
458,10.0,increament,0.6,100.0,standard,25.0,1.0,1.0,
459,10.0,increament,0.6,100.0,standard,25.0,1.0,0.0,0.8413482001051307
460,10.0,increament,0.6,100.0,standard,25.0,1.0,1.0,
461,10.0,increament,0.6,100.0,standard,25.0,1.0,1.0,
462,10.0,increament,0.6,100.0,standard,25.0,1.0,1.0,
463,10.0,increament,0.84,140.0,oddball,27.0,1.0,1.0,0.0179700003936886
464,10.0,increament,0.6,100.0,standard,25.0,1.0,1.0,
465,10.0,increament,0.6,100.0,standard,25.0,1.0,1.0,
466,10.0,increament,0.6,100.0,standard,25.0,1.0,1.0,
467,10.0,increament,0.6,100.0,standard,25.0,1.0,1.0,
468,10.0,increament,0.72,120.0,oddball,26.0,1.0,0.0,
469,10.0,increament,0.6,100.0,standard,25.0,1.0,1.0,
470,10.0,increament,0.6,100.0,standard,25.0,1.0,1.0,
471,10.0,increament,0.6,100.0,standard,25.0,1.0,1.0,
472,10.0,increament,0.96,160.0,oddball,28.0,1.0,0.0,
473,10.0,increament,0.6,100.0,standard,25.0,1.0,1.0,
474,10.0,increament,0.6,100.0,standard,25.0,1.0,1.0,
475,10.0,increament,0.6,100.0,standard,25.0,1.0,1.0,
476,10.0,increament,0.6,100.0,standard,25.0,1.0,1.0,
477,10.0,increament,0.6,100.0,standard,25.0,1.0,1.0,
478,10.0,increament,0.6,100.0,standard,25.0,1.0,1.0,
479,10.0,increament,0.6,100.0,standard,25.0,1.0,1.0,
480,10.0,decreament,0.6,100.0,standard,21.0,1.0,1.0,
481,10.0,decreament,0.6,100.0,standard,21.0,1.0,1.0,
482,10.0,decreament,0.6,100.0,standard,21.0,1.0,1.0,
483,10.0,decreament,0.6,100.0,standard,21.0,1.0,1.0,
484,10.0,decreament,0.6,100.0,standard,21.0,1.0,1.0,
485,10.0,decreament,0.6,100.0,standard,21.0,1.0,1.0,
486,10.0,decreament,0.6,100.0,standard,21.0,1.0,1.0,
487,10.0,decreament,0.6,100.0,standard,21.0,1.0,1.0,
488,10.0,decreament,0.6,100.0,standard,21.0,1.0,0.0,0.2920800996944308
489,10.0,decreament,0.6,100.0,standard,21.0,1.0,1.0,
490,10.0,decreament,0.6,100.0,standard,21.0,1.0,1.0,
491,10.0,decreament,0.48,80.0,oddball,24.0,1.0,0.0,
492,10.0,decreament,0.6,100.0,standard,21.0,1.0,1.0,
493,10.0,decreament,0.6,100.0,standard,21.0,1.0,1.0,
494,10.0,decreament,0.6,100.0,standard,21.0,1.0,1.0,
495,10.0,decreament,0.6,100.0,standard,21.0,1.0,0.0,0.3348432001657784
496,10.0,decreament,0.6,100.0,standard,21.0,1.0,1.0,
497,10.0,decreament,0.6,100.0,standard,21.0,1.0,1.0,
498,10.0,decreament,0.6,100.0,standard,21.0,1.0,0.0,0.4312916002236306
499,10.0,decreament,0.6,100.0,standard,21.0,1.0,1.0,
500,10.0,decreament,0.6,100.0,standard,21.0,1.0,1.0,
501,10.0,decreament,0.6,100.0,standard,21.0,1.0,1.0,
502,10.0,decreament,0.36,60.0,oddball,23.0,1.0,0.0,
503,10.0,decreament,0.6,100.0,standard,21.0,1.0,1.0,
504,10.0,decreament,0.6,100.0,standard,21.0,1.0,1.0,
505,10.0,decreament,0.6,100.0,standard,21.0,1.0,1.0,
506,10.0,decreament,0.6,100.0,standard,21.0,1.0,0.0,0.3087512999773025
507,10.0,decreament,0.6,100.0,standard,21.0,1.0,1.0,
508,10.0,decreament,0.6,100.0,standard,21.0,1.0,1.0,
509,10.0,decreament,0.24,40.0,oddball,22.0,1.0,0.0,
510,10.0,increament,0.6,100.0,standard,25.0,1.0,1.0,
511,10.0,increament,0.6,100.0,standard,25.0,1.0,1.0,
512,10.0,increament,0.6,100.0,standard,25.0,1.0,1.0,
513,10.0,increament,0.6,100.0,standard,25.0,1.0,1.0,
514,10.0,increament,0.6,100.0,standard,25.0,1.0,1.0,
515,10.0,increament,0.6,100.0,standard,25.0,1.0,1.0,
516,10.0,increament,0.72,120.0,oddball,26.0,1.0,0.0,
517,10.0,increament,0.6,100.0,standard,25.0,1.0,1.0,
518,10.0,increament,0.6,100.0,standard,25.0,1.0,0.0,0.5851833000779152
519,10.0,increament,0.6,100.0,standard,25.0,1.0,1.0,
520,10.0,increament,0.6,100.0,standard,25.0,1.0,1.0,
521,10.0,increament,0.6,100.0,standard,25.0,1.0,0.0,0.230248300358653
522,10.0,increament,0.6,100.0,standard,25.0,1.0,1.0,
523,10.0,increament,0.6,100.0,standard,25.0,1.0,1.0,
524,10.0,increament,0.6,100.0,standard,25.0,1.0,0.0,0.3645180999301374
525,10.0,increament,0.6,100.0,standard,25.0,1.0,1.0,
526,10.0,increament,0.84,140.0,oddball,27.0,1.0,1.0,0.2684365003369748
527,10.0,increament,0.6,100.0,standard,25.0,1.0,1.0,
528,10.0,increament,0.6,100.0,standard,25.0,1.0,1.0,
529,10.0,increament,0.6,100.0,standard,25.0,1.0,0.0,0.3627766002900898
530,10.0,increament,0.6,100.0,standard,25.0,1.0,1.0,
531,10.0,increament,0.6,100.0,standard,25.0,1.0,1.0,
532,10.0,increament,0.6,100.0,standard,25.0,1.0,1.0,
533,10.0,increament,0.6,100.0,standard,25.0,1.0,1.0,
534,10.0,increament,0.6,100.0,standard,25.0,1.0,1.0,
535,10.0,increament,0.96,160.0,oddball,28.0,1.0,0.0,
536,10.0,increament,0.6,100.0,standard,25.0,1.0,1.0,
537,10.0,increament,0.6,100.0,standard,25.0,1.0,1.0,
538,10.0,increament,0.6,100.0,standard,25.0,1.0,1.0,
539,10.0,increament,0.6,100.0,standard,25.0,1.0,0.0,0.4543272000737488
540,10.0,decreament,0.6,100.0,standard,21.0,1.0,1.0,
541,10.0,decreament,0.6,100.0,standard,21.0,1.0,1.0,
542,10.0,decreament,0.6,100.0,standard,21.0,1.0,1.0,
543,10.0,decreament,0.6,100.0,standard,21.0,1.0,1.0,
544,10.0,decreament,0.6,100.0,standard,21.0,1.0,1.0,
545,10.0,decreament,0.36,60.0,oddball,23.0,1.0,1.0,1.130801800172776
546,10.0,decreament,0.6,100.0,standard,21.0,1.0,1.0,
547,10.0,decreament,0.6,100.0,standard,21.0,1.0,1.0,
548,10.0,decreament,0.6,100.0,standard,21.0,1.0,1.0,
549,10.0,decreament,0.6,100.0,standard,21.0,1.0,0.0,0.8083784002810717
550,10.0,decreament,0.6,100.0,standard,21.0,1.0,0.0,0.2726214001886546
551,10.0,decreament,0.6,100.0,standard,21.0,1.0,1.0,
552,10.0,decreament,0.24,40.0,oddball,22.0,1.0,1.0,0.7643666001968086
553,10.0,decreament,0.6,100.0,standard,21.0,1.0,1.0,
554,10.0,decreament,0.6,100.0,standard,21.0,1.0,1.0,
555,10.0,decreament,0.6,100.0,standard,21.0,1.0,0.0,0.4195877001620829
556,10.0,decreament,0.6,100.0,standard,21.0,1.0,1.0,
557,10.0,decreament,0.6,100.0,standard,21.0,1.0,1.0,
558,10.0,decreament,0.6,100.0,standard,21.0,1.0,1.0,
559,10.0,decreament,0.48,80.0,oddball,24.0,1.0,0.0,
560,10.0,decreament,0.6,100.0,standard,21.0,1.0,1.0,
561,10.0,decreament,0.6,100.0,standard,21.0,1.0,1.0,
562,10.0,decreament,0.6,100.0,standard,21.0,1.0,1.0,
563,10.0,decreament,0.6,100.0,standard,21.0,1.0,1.0,
564,10.0,decreament,0.6,100.0,standard,21.0,1.0,1.0,
565,10.0,decreament,0.6,100.0,standard,21.0,1.0,1.0,
566,10.0,decreament,0.6,100.0,standard,21.0,1.0,0.0,1.2076105000451207
567,10.0,decreament,0.6,100.0,standard,21.0,1.0,1.0,
568,10.0,decreament,0.6,100.0,standard,21.0,1.0,1.0,
569,10.0,decreament,0.6,100.0,standard,21.0,1.0,1.0,
570,10.0,increament,0.6,100.0,standard,25.0,1.0,1.0,
571,10.0,increament,0.6,100.0,standard,25.0,1.0,1.0,
572,10.0,increament,0.6,100.0,standard,25.0,1.0,1.0,
573,10.0,increament,0.6,100.0,standard,25.0,1.0,1.0,
574,10.0,increament,0.6,100.0,standard,25.0,1.0,1.0,
575,10.0,increament,0.96,160.0,oddball,28.0,1.0,0.0,
576,10.0,increament,0.6,100.0,standard,25.0,1.0,1.0,
577,10.0,increament,0.6,100.0,standard,25.0,1.0,1.0,
578,10.0,increament,0.6,100.0,standard,25.0,1.0,1.0,
579,10.0,increament,0.6,100.0,standard,25.0,1.0,1.0,
580,10.0,increament,0.6,100.0,standard,25.0,1.0,1.0,
581,10.0,increament,0.6,100.0,standard,25.0,1.0,0.0,0.2445670999586582
582,10.0,increament,0.6,100.0,standard,25.0,1.0,1.0,
583,10.0,increament,0.6,100.0,standard,25.0,1.0,1.0,
584,10.0,increament,0.6,100.0,standard,25.0,1.0,1.0,
585,10.0,increament,0.6,100.0,standard,25.0,1.0,0.0,0.2614826001226902
586,10.0,increament,0.84,140.0,oddball,27.0,1.0,0.0,
587,10.0,increament,0.6,100.0,standard,25.0,1.0,1.0,
588,10.0,increament,0.6,100.0,standard,25.0,1.0,1.0,
589,10.0,increament,0.6,100.0,standard,25.0,1.0,1.0,
590,10.0,increament,0.6,100.0,standard,25.0,1.0,1.0,
591,10.0,increament,0.6,100.0,standard,25.0,1.0,1.0,
592,10.0,increament,0.72,120.0,oddball,26.0,1.0,0.0,
593,10.0,increament,0.6,100.0,standard,25.0,1.0,1.0,
594,10.0,increament,0.6,100.0,standard,25.0,1.0,1.0,
595,10.0,increament,0.6,100.0,standard,25.0,1.0,1.0,
596,10.0,increament,0.6,100.0,standard,25.0,1.0,1.0,
597,10.0,increament,0.6,100.0,standard,25.0,1.0,1.0,
598,10.0,increament,0.6,100.0,standard,25.0,1.0,1.0,
599,10.0,increament,0.6,100.0,standard,25.0,1.0,1.0,
600,5.0,decreament,0.6,100.0,standard,11.0,2.0,1.0,
601,5.0,decreament,0.6,100.0,standard,11.0,2.0,1.0,
602,5.0,decreament,0.6,100.0,standard,11.0,2.0,0.0,1.4494255003519356
603,5.0,decreament,0.6,100.0,standard,11.0,2.0,1.0,
604,5.0,decreament,0.6,100.0,standard,11.0,2.0,1.0,
605,5.0,decreament,0.6,100.0,standard,11.0,2.0,1.0,
606,5.0,decreament,0.6,100.0,standard,11.0,2.0,1.0,
607,5.0,decreament,0.6,100.0,standard,11.0,2.0,1.0,
608,5.0,decreament,0.6,100.0,standard,11.0,2.0,1.0,
609,5.0,decreament,0.6,100.0,standard,11.0,2.0,1.0,
610,5.0,decreament,0.6,100.0,standard,11.0,2.0,0.0,1.0837191003374755
611,5.0,decreament,0.6,100.0,standard,11.0,2.0,1.0,
612,5.0,decreament,0.6,100.0,standard,11.0,2.0,1.0,
613,5.0,decreament,0.24,40.0,oddball,12.0,2.0,1.0,0.6183682000264525
614,5.0,decreament,0.6,100.0,standard,11.0,2.0,1.0,
615,5.0,decreament,0.6,100.0,standard,11.0,2.0,1.0,
616,5.0,decreament,0.6,100.0,standard,11.0,2.0,1.0,
617,5.0,decreament,0.6,100.0,standard,11.0,2.0,1.0,
618,5.0,decreament,0.6,100.0,standard,11.0,2.0,1.0,
619,5.0,decreament,0.48,80.0,oddball,14.0,2.0,0.0,
620,5.0,decreament,0.6,100.0,standard,11.0,2.0,1.0,
621,5.0,decreament,0.6,100.0,standard,11.0,2.0,1.0,
622,5.0,decreament,0.6,100.0,standard,11.0,2.0,1.0,
623,5.0,decreament,0.6,100.0,standard,11.0,2.0,1.0,
624,5.0,decreament,0.6,100.0,standard,11.0,2.0,1.0,
625,5.0,decreament,0.36,60.0,oddball,13.0,2.0,0.0,
626,5.0,decreament,0.6,100.0,standard,11.0,2.0,1.0,
627,5.0,decreament,0.6,100.0,standard,11.0,2.0,1.0,
628,5.0,decreament,0.6,100.0,standard,11.0,2.0,1.0,
629,5.0,decreament,0.6,100.0,standard,11.0,2.0,1.0,
630,5.0,increament,0.6,100.0,standard,15.0,2.0,1.0,
631,5.0,increament,0.6,100.0,standard,15.0,2.0,1.0,
632,5.0,increament,0.6,100.0,standard,15.0,2.0,1.0,
633,5.0,increament,0.6,100.0,standard,15.0,2.0,1.0,
634,5.0,increament,0.6,100.0,standard,15.0,2.0,1.0,
635,5.0,increament,0.6,100.0,standard,15.0,2.0,1.0,
636,5.0,increament,0.6,100.0,standard,15.0,2.0,1.0,
637,5.0,increament,0.6,100.0,standard,15.0,2.0,1.0,
638,5.0,increament,0.6,100.0,standard,15.0,2.0,1.0,
639,5.0,increament,0.6,100.0,standard,15.0,2.0,1.0,
640,5.0,increament,0.6,100.0,standard,15.0,2.0,1.0,
641,5.0,increament,0.6,100.0,standard,15.0,2.0,1.0,
642,5.0,increament,0.84,140.0,oddball,17.0,2.0,0.0,
643,5.0,increament,0.6,100.0,standard,15.0,2.0,1.0,
644,5.0,increament,0.6,100.0,standard,15.0,2.0,1.0,
645,5.0,increament,0.6,100.0,standard,15.0,2.0,1.0,
646,5.0,increament,0.6,100.0,standard,15.0,2.0,1.0,
647,5.0,increament,0.6,100.0,standard,15.0,2.0,1.0,
648,5.0,increament,0.6,100.0,standard,15.0,2.0,1.0,
649,5.0,increament,0.6,100.0,standard,15.0,2.0,1.0,
650,5.0,increament,0.96,160.0,oddball,18.0,2.0,1.0,0.1013960000127554
651,5.0,increament,0.6,100.0,standard,15.0,2.0,1.0,
652,5.0,increament,0.6,100.0,standard,15.0,2.0,1.0,
653,5.0,increament,0.6,100.0,standard,15.0,2.0,1.0,
654,5.0,increament,0.72,120.0,oddball,16.0,2.0,0.0,
655,5.0,increament,0.6,100.0,standard,15.0,2.0,1.0,
656,5.0,increament,0.6,100.0,standard,15.0,2.0,1.0,
657,5.0,increament,0.6,100.0,standard,15.0,2.0,1.0,
658,5.0,increament,0.6,100.0,standard,15.0,2.0,0.0,0.392793099861592
659,5.0,increament,0.6,100.0,standard,15.0,2.0,1.0,
660,5.0,decreament,0.6,100.0,standard,11.0,2.0,1.0,
661,5.0,decreament,0.6,100.0,standard,11.0,2.0,1.0,
662,5.0,decreament,0.6,100.0,standard,11.0,2.0,1.0,
663,5.0,decreament,0.6,100.0,standard,11.0,2.0,1.0,
664,5.0,decreament,0.6,100.0,standard,11.0,2.0,1.0,
665,5.0,decreament,0.6,100.0,standard,11.0,2.0,1.0,
666,5.0,decreament,0.6,100.0,standard,11.0,2.0,1.0,
667,5.0,decreament,0.6,100.0,standard,11.0,2.0,1.0,
668,5.0,decreament,0.6,100.0,standard,11.0,2.0,1.0,
669,5.0,decreament,0.6,100.0,standard,11.0,2.0,1.0,
670,5.0,decreament,0.48,80.0,oddball,14.0,2.0,0.0,
671,5.0,decreament,0.6,100.0,standard,11.0,2.0,1.0,
672,5.0,decreament,0.6,100.0,standard,11.0,2.0,1.0,
673,5.0,decreament,0.6,100.0,standard,11.0,2.0,1.0,
674,5.0,decreament,0.6,100.0,standard,11.0,2.0,1.0,
675,5.0,decreament,0.6,100.0,standard,11.0,2.0,1.0,
676,5.0,decreament,0.6,100.0,standard,11.0,2.0,1.0,
677,5.0,decreament,0.24,40.0,oddball,12.0,2.0,1.0,1.076358400285244
678,5.0,decreament,0.6,100.0,standard,11.0,2.0,0.0,0.5151001000776887
679,5.0,decreament,0.6,100.0,standard,11.0,2.0,1.0,
680,5.0,decreament,0.6,100.0,standard,11.0,2.0,1.0,
681,5.0,decreament,0.6,100.0,standard,11.0,2.0,1.0,
682,5.0,decreament,0.6,100.0,standard,11.0,2.0,1.0,
683,5.0,decreament,0.6,100.0,standard,11.0,2.0,1.0,
684,5.0,decreament,0.36,60.0,oddball,13.0,2.0,0.0,
685,5.0,decreament,0.6,100.0,standard,11.0,2.0,1.0,
686,5.0,decreament,0.6,100.0,standard,11.0,2.0,1.0,
687,5.0,decreament,0.6,100.0,standard,11.0,2.0,1.0,
688,5.0,decreament,0.6,100.0,standard,11.0,2.0,1.0,
689,5.0,decreament,0.6,100.0,standard,11.0,2.0,1.0,
690,5.0,increament,0.6,100.0,standard,15.0,2.0,1.0,
691,5.0,increament,0.6,100.0,standard,15.0,2.0,1.0,
692,5.0,increament,0.6,100.0,standard,15.0,2.0,1.0,
693,5.0,increament,0.6,100.0,standard,15.0,2.0,1.0,
694,5.0,increament,0.6,100.0,standard,15.0,2.0,1.0,
695,5.0,increament,0.96,160.0,oddball,18.0,2.0,0.0,
696,5.0,increament,0.6,100.0,standard,15.0,2.0,1.0,
697,5.0,increament,0.6,100.0,standard,15.0,2.0,1.0,
698,5.0,increament,0.6,100.0,standard,15.0,2.0,1.0,
699,5.0,increament,0.6,100.0,standard,15.0,2.0,1.0,
700,5.0,increament,0.6,100.0,standard,15.0,2.0,0.0,0.2650421001017093
701,5.0,increament,0.6,100.0,standard,15.0,2.0,1.0,
702,5.0,increament,0.6,100.0,standard,15.0,2.0,1.0,
703,5.0,increament,0.6,100.0,standard,15.0,2.0,1.0,
704,5.0,increament,0.6,100.0,standard,15.0,2.0,1.0,
705,5.0,increament,0.6,100.0,standard,15.0,2.0,1.0,
706,5.0,increament,0.6,100.0,standard,15.0,2.0,1.0,
707,5.0,increament,0.6,100.0,standard,15.0,2.0,1.0,
708,5.0,increament,0.6,100.0,standard,15.0,2.0,1.0,
709,5.0,increament,0.6,100.0,standard,15.0,2.0,1.0,
710,5.0,increament,0.84,140.0,oddball,17.0,2.0,0.0,
711,5.0,increament,0.6,100.0,standard,15.0,2.0,1.0,
712,5.0,increament,0.6,100.0,standard,15.0,2.0,1.0,
713,5.0,increament,0.6,100.0,standard,15.0,2.0,1.0,
714,5.0,increament,0.6,100.0,standard,15.0,2.0,0.0,0.9292808999307454
715,5.0,increament,0.6,100.0,standard,15.0,2.0,1.0,
716,5.0,increament,0.6,100.0,standard,15.0,2.0,1.0,
717,5.0,increament,0.6,100.0,standard,15.0,2.0,1.0,
718,5.0,increament,0.6,100.0,standard,15.0,2.0,1.0,
719,5.0,increament,0.72,120.0,oddball,16.0,2.0,1.0,0.9319901000708342
720,5.0,decreament,0.6,100.0,standard,11.0,2.0,1.0,
721,5.0,decreament,0.6,100.0,standard,11.0,2.0,1.0,
722,5.0,decreament,0.6,100.0,standard,11.0,2.0,1.0,
723,5.0,decreament,0.6,100.0,standard,11.0,2.0,1.0,
724,5.0,decreament,0.6,100.0,standard,11.0,2.0,1.0,
725,5.0,decreament,0.6,100.0,standard,11.0,2.0,1.0,
726,5.0,decreament,0.24,40.0,oddball,12.0,2.0,1.0,0.7141617997549474
727,5.0,decreament,0.6,100.0,standard,11.0,2.0,1.0,
728,5.0,decreament,0.6,100.0,standard,11.0,2.0,1.0,
729,5.0,decreament,0.6,100.0,standard,11.0,2.0,1.0,
730,5.0,decreament,0.6,100.0,standard,11.0,2.0,1.0,
731,5.0,decreament,0.6,100.0,standard,11.0,2.0,1.0,
732,5.0,decreament,0.48,80.0,oddball,14.0,2.0,0.0,
733,5.0,decreament,0.6,100.0,standard,11.0,2.0,1.0,
734,5.0,decreament,0.6,100.0,standard,11.0,2.0,1.0,
735,5.0,decreament,0.6,100.0,standard,11.0,2.0,1.0,
736,5.0,decreament,0.6,100.0,standard,11.0,2.0,1.0,
737,5.0,decreament,0.6,100.0,standard,11.0,2.0,1.0,
738,5.0,decreament,0.6,100.0,standard,11.0,2.0,1.0,
739,5.0,decreament,0.6,100.0,standard,11.0,2.0,1.0,
740,5.0,decreament,0.6,100.0,standard,11.0,2.0,1.0,
741,5.0,decreament,0.6,100.0,standard,11.0,2.0,1.0,
742,5.0,decreament,0.6,100.0,standard,11.0,2.0,1.0,
743,5.0,decreament,0.6,100.0,standard,11.0,2.0,1.0,
744,5.0,decreament,0.6,100.0,standard,11.0,2.0,1.0,
745,5.0,decreament,0.6,100.0,standard,11.0,2.0,1.0,
746,5.0,decreament,0.6,100.0,standard,11.0,2.0,1.0,
747,5.0,decreament,0.6,100.0,standard,11.0,2.0,1.0,
748,5.0,decreament,0.6,100.0,standard,11.0,2.0,1.0,
749,5.0,decreament,0.36,60.0,oddball,13.0,2.0,1.0,0.8390309000387788
750,5.0,increament,0.6,100.0,standard,15.0,2.0,1.0,
751,5.0,increament,0.6,100.0,standard,15.0,2.0,0.0,0.5282891998067498
752,5.0,increament,0.6,100.0,standard,15.0,2.0,1.0,
753,5.0,increament,0.6,100.0,standard,15.0,2.0,1.0,
754,5.0,increament,0.6,100.0,standard,15.0,2.0,1.0,
755,5.0,increament,0.84,140.0,oddball,17.0,2.0,1.0,0.6569988997653127
756,5.0,increament,0.6,100.0,standard,15.0,2.0,1.0,
757,5.0,increament,0.6,100.0,standard,15.0,2.0,1.0,
758,5.0,increament,0.6,100.0,standard,15.0,2.0,1.0,
759,5.0,increament,0.6,100.0,standard,15.0,2.0,1.0,
760,5.0,increament,0.6,100.0,standard,15.0,2.0,1.0,
761,5.0,increament,0.6,100.0,standard,15.0,2.0,0.0,0.4442837000824511
762,5.0,increament,0.6,100.0,standard,15.0,2.0,1.0,
763,5.0,increament,0.6,100.0,standard,15.0,2.0,1.0,
764,5.0,increament,0.6,100.0,standard,15.0,2.0,1.0,
765,5.0,increament,0.6,100.0,standard,15.0,2.0,1.0,
766,5.0,increament,0.6,100.0,standard,15.0,2.0,1.0,
767,5.0,increament,0.6,100.0,standard,15.0,2.0,0.0,0.5049066999927163
768,5.0,increament,0.6,100.0,standard,15.0,2.0,1.0,
769,5.0,increament,0.96,160.0,oddball,18.0,2.0,1.0,0.3798432000912726
770,5.0,increament,0.6,100.0,standard,15.0,2.0,1.0,
771,5.0,increament,0.6,100.0,standard,15.0,2.0,1.0,
772,5.0,increament,0.6,100.0,standard,15.0,2.0,1.0,
773,5.0,increament,0.72,120.0,oddball,16.0,2.0,0.0,
774,5.0,increament,0.6,100.0,standard,15.0,2.0,1.0,
775,5.0,increament,0.6,100.0,standard,15.0,2.0,1.0,
776,5.0,increament,0.6,100.0,standard,15.0,2.0,1.0,
777,5.0,increament,0.6,100.0,standard,15.0,2.0,1.0,
778,5.0,increament,0.6,100.0,standard,15.0,2.0,1.0,
779,5.0,increament,0.6,100.0,standard,15.0,2.0,1.0,
780,5.0,decreament,0.6,100.0,standard,11.0,2.0,1.0,
781,5.0,decreament,0.6,100.0,standard,11.0,2.0,1.0,
782,5.0,decreament,0.6,100.0,standard,11.0,2.0,0.0,0.8875041003338993
783,5.0,decreament,0.6,100.0,standard,11.0,2.0,1.0,
784,5.0,decreament,0.6,100.0,standard,11.0,2.0,1.0,
785,5.0,decreament,0.6,100.0,standard,11.0,2.0,1.0,
786,5.0,decreament,0.6,100.0,standard,11.0,2.0,1.0,
787,5.0,decreament,0.6,100.0,standard,11.0,2.0,1.0,
788,5.0,decreament,0.6,100.0,standard,11.0,2.0,1.0,
789,5.0,decreament,0.6,100.0,standard,11.0,2.0,1.0,
790,5.0,decreament,0.6,100.0,standard,11.0,2.0,1.0,
791,5.0,decreament,0.6,100.0,standard,11.0,2.0,0.0,0.85256929975003
792,5.0,decreament,0.6,100.0,standard,11.0,2.0,1.0,
793,5.0,decreament,0.6,100.0,standard,11.0,2.0,0.0,0.7102708001621068
794,5.0,decreament,0.6,100.0,standard,11.0,2.0,1.0,
795,5.0,decreament,0.6,100.0,standard,11.0,2.0,1.0,
796,5.0,decreament,0.48,80.0,oddball,14.0,2.0,0.0,
797,5.0,decreament,0.6,100.0,standard,11.0,2.0,1.0,
798,5.0,decreament,0.6,100.0,standard,11.0,2.0,1.0,
799,5.0,decreament,0.6,100.0,standard,11.0,2.0,1.0,
800,5.0,decreament,0.24,40.0,oddball,12.0,2.0,0.0,
801,5.0,decreament,0.6,100.0,standard,11.0,2.0,1.0,
802,5.0,decreament,0.6,100.0,standard,11.0,2.0,1.0,
803,5.0,decreament,0.6,100.0,standard,11.0,2.0,1.0,
804,5.0,decreament,0.6,100.0,standard,11.0,2.0,1.0,
805,5.0,decreament,0.6,100.0,standard,11.0,2.0,1.0,
806,5.0,decreament,0.6,100.0,standard,11.0,2.0,1.0,
807,5.0,decreament,0.6,100.0,standard,11.0,2.0,1.0,
808,5.0,decreament,0.36,60.0,oddball,13.0,2.0,1.0,1.1861805003136396
809,5.0,decreament,0.6,100.0,standard,11.0,2.0,1.0,
810,5.0,increament,0.6,100.0,standard,15.0,2.0,1.0,
811,5.0,increament,0.6,100.0,standard,15.0,2.0,1.0,
812,5.0,increament,0.6,100.0,standard,15.0,2.0,1.0,
813,5.0,increament,0.6,100.0,standard,15.0,2.0,1.0,
814,5.0,increament,0.6,100.0,standard,15.0,2.0,1.0,
815,5.0,increament,0.6,100.0,standard,15.0,2.0,1.0,
816,5.0,increament,0.6,100.0,standard,15.0,2.0,1.0,
817,5.0,increament,0.6,100.0,standard,15.0,2.0,1.0,
818,5.0,increament,0.6,100.0,standard,15.0,2.0,1.0,
819,5.0,increament,0.6,100.0,standard,15.0,2.0,1.0,
820,5.0,increament,0.6,100.0,standard,15.0,2.0,0.0,0.3682719003409147
821,5.0,increament,0.6,100.0,standard,15.0,2.0,1.0,
822,5.0,increament,0.6,100.0,standard,15.0,2.0,1.0,
823,5.0,increament,0.6,100.0,standard,15.0,2.0,1.0,
824,5.0,increament,0.96,160.0,oddball,18.0,2.0,1.0,0.29140629991889
825,5.0,increament,0.6,100.0,standard,15.0,2.0,1.0,
826,5.0,increament,0.6,100.0,standard,15.0,2.0,0.0,1.0548582999035716
827,5.0,increament,0.6,100.0,standard,15.0,2.0,1.0,
828,5.0,increament,0.6,100.0,standard,15.0,2.0,1.0,
829,5.0,increament,0.84,140.0,oddball,17.0,2.0,0.0,
830,5.0,increament,0.6,100.0,standard,15.0,2.0,1.0,
831,5.0,increament,0.6,100.0,standard,15.0,2.0,1.0,
832,5.0,increament,0.6,100.0,standard,15.0,2.0,1.0,
833,5.0,increament,0.6,100.0,standard,15.0,2.0,1.0,
834,5.0,increament,0.6,100.0,standard,15.0,2.0,1.0,
835,5.0,increament,0.6,100.0,standard,15.0,2.0,1.0,
836,5.0,increament,0.72,120.0,oddball,16.0,2.0,0.0,
837,5.0,increament,0.6,100.0,standard,15.0,2.0,0.0,0.1815553000196814
838,5.0,increament,0.6,100.0,standard,15.0,2.0,1.0,
839,5.0,increament,0.6,100.0,standard,15.0,2.0,1.0,
840,5.0,decreament,0.6,100.0,standard,11.0,2.0,1.0,
841,5.0,decreament,0.6,100.0,standard,11.0,2.0,1.0,
842,5.0,decreament,0.6,100.0,standard,11.0,2.0,1.0,
843,5.0,decreament,0.6,100.0,standard,11.0,2.0,1.0,
844,5.0,decreament,0.6,100.0,standard,11.0,2.0,1.0,
845,5.0,decreament,0.6,100.0,standard,11.0,2.0,0.0,0.6008444004692137
846,5.0,decreament,0.24,40.0,oddball,12.0,2.0,1.0,0.6546564004383981
847,5.0,decreament,0.6,100.0,standard,11.0,2.0,1.0,
848,5.0,decreament,0.6,100.0,standard,11.0,2.0,1.0,
849,5.0,decreament,0.6,100.0,standard,11.0,2.0,1.0,
850,5.0,decreament,0.6,100.0,standard,11.0,2.0,1.0,
851,5.0,decreament,0.6,100.0,standard,11.0,2.0,1.0,
852,5.0,decreament,0.6,100.0,standard,11.0,2.0,1.0,
853,5.0,decreament,0.6,100.0,standard,11.0,2.0,0.0,0.995315400417894
854,5.0,decreament,0.6,100.0,standard,11.0,2.0,1.0,
855,5.0,decreament,0.6,100.0,standard,11.0,2.0,1.0,
856,5.0,decreament,0.6,100.0,standard,11.0,2.0,1.0,
857,5.0,decreament,0.6,100.0,standard,11.0,2.0,1.0,
858,5.0,decreament,0.6,100.0,standard,11.0,2.0,1.0,
859,5.0,decreament,0.6,100.0,standard,11.0,2.0,1.0,
860,5.0,decreament,0.6,100.0,standard,11.0,2.0,1.0,
861,5.0,decreament,0.48,80.0,oddball,14.0,2.0,0.0,
862,5.0,decreament,0.6,100.0,standard,11.0,2.0,1.0,
863,5.0,decreament,0.6,100.0,standard,11.0,2.0,1.0,
864,5.0,decreament,0.6,100.0,standard,11.0,2.0,1.0,
865,5.0,decreament,0.6,100.0,standard,11.0,2.0,1.0,
866,5.0,decreament,0.6,100.0,standard,11.0,2.0,1.0,
867,5.0,decreament,0.36,60.0,oddball,13.0,2.0,0.0,
868,5.0,decreament,0.6,100.0,standard,11.0,2.0,1.0,
869,5.0,decreament,0.6,100.0,standard,11.0,2.0,1.0,
870,5.0,increament,0.6,100.0,standard,15.0,2.0,1.0,
871,5.0,increament,0.6,100.0,standard,15.0,2.0,1.0,
872,5.0,increament,0.6,100.0,standard,15.0,2.0,1.0,
873,5.0,increament,0.6,100.0,standard,15.0,2.0,1.0,
874,5.0,increament,0.6,100.0,standard,15.0,2.0,1.0,
875,5.0,increament,0.6,100.0,standard,15.0,2.0,1.0,
876,5.0,increament,0.6,100.0,standard,15.0,2.0,1.0,
877,5.0,increament,0.6,100.0,standard,15.0,2.0,1.0,
878,5.0,increament,0.72,120.0,oddball,16.0,2.0,0.0,
879,5.0,increament,0.6,100.0,standard,15.0,2.0,1.0,
880,5.0,increament,0.6,100.0,standard,15.0,2.0,0.0,0.7161431000567973
881,5.0,increament,0.6,100.0,standard,15.0,2.0,1.0,
882,5.0,increament,0.84,140.0,oddball,17.0,2.0,1.0,0.1653630002401769
883,5.0,increament,0.6,100.0,standard,15.0,2.0,1.0,
884,5.0,increament,0.6,100.0,standard,15.0,2.0,1.0,
885,5.0,increament,0.6,100.0,standard,15.0,2.0,1.0,
886,5.0,increament,0.6,100.0,standard,15.0,2.0,1.0,
887,5.0,increament,0.6,100.0,standard,15.0,2.0,0.0,0.6560819000005722
888,5.0,increament,0.6,100.0,standard,15.0,2.0,1.0,
889,5.0,increament,0.6,100.0,standard,15.0,2.0,1.0,
890,5.0,increament,0.6,100.0,standard,15.0,2.0,1.0,
891,5.0,increament,0.6,100.0,standard,15.0,2.0,1.0,
892,5.0,increament,0.6,100.0,standard,15.0,2.0,1.0,
893,5.0,increament,0.6,100.0,standard,15.0,2.0,1.0,
894,5.0,increament,0.6,100.0,standard,15.0,2.0,1.0,
895,5.0,increament,0.6,100.0,standard,15.0,2.0,1.0,
896,5.0,increament,0.6,100.0,standard,15.0,2.0,1.0,
897,5.0,increament,0.6,100.0,standard,15.0,2.0,0.0,0.1195156001485884
898,5.0,increament,0.96,160.0,oddball,18.0,2.0,1.0,0.2430041003972292
899,5.0,increament,0.6,100.0,standard,15.0,2.0,1.0,
900,20.0,decreament,0.6,100.0,standard,41.0,3.0,1.0,
901,20.0,decreament,0.6,100.0,standard,41.0,3.0,1.0,
902,20.0,decreament,0.6,100.0,standard,41.0,3.0,1.0,
903,20.0,decreament,0.6,100.0,standard,41.0,3.0,1.0,
904,20.0,decreament,0.6,100.0,standard,41.0,3.0,1.0,
905,20.0,decreament,0.6,100.0,standard,41.0,3.0,1.0,
906,20.0,decreament,0.6,100.0,standard,41.0,3.0,1.0,
907,20.0,decreament,0.24,40.0,oddball,42.0,3.0,1.0,0.5574784004129469
908,20.0,decreament,0.6,100.0,standard,41.0,3.0,1.0,
909,20.0,decreament,0.6,100.0,standard,41.0,3.0,1.0,
910,20.0,decreament,0.6,100.0,standard,41.0,3.0,1.0,
911,20.0,decreament,0.6,100.0,standard,41.0,3.0,1.0,
912,20.0,decreament,0.6,100.0,standard,41.0,3.0,0.0,1.3019832004792988
913,20.0,decreament,0.6,100.0,standard,41.0,3.0,1.0,
914,20.0,decreament,0.36,60.0,oddball,43.0,3.0,1.0,0.920235199853778
915,20.0,decreament,0.6,100.0,standard,41.0,3.0,1.0,
916,20.0,decreament,0.6,100.0,standard,41.0,3.0,1.0,
917,20.0,decreament,0.6,100.0,standard,41.0,3.0,1.0,
918,20.0,decreament,0.6,100.0,standard,41.0,3.0,1.0,
919,20.0,decreament,0.6,100.0,standard,41.0,3.0,1.0,
920,20.0,decreament,0.6,100.0,standard,41.0,3.0,1.0,
921,20.0,decreament,0.6,100.0,standard,41.0,3.0,1.0,
922,20.0,decreament,0.6,100.0,standard,41.0,3.0,1.0,
923,20.0,decreament,0.6,100.0,standard,41.0,3.0,1.0,
924,20.0,decreament,0.6,100.0,standard,41.0,3.0,0.0,0.991286300122738
925,20.0,decreament,0.48,80.0,oddball,44.0,3.0,1.0,1.438139000441879
926,20.0,decreament,0.6,100.0,standard,41.0,3.0,1.0,
927,20.0,decreament,0.6,100.0,standard,41.0,3.0,1.0,
928,20.0,decreament,0.6,100.0,standard,41.0,3.0,1.0,
929,20.0,decreament,0.6,100.0,standard,41.0,3.0,1.0,
930,20.0,increament,0.6,100.0,standard,45.0,3.0,1.0,
931,20.0,increament,0.6,100.0,standard,45.0,3.0,1.0,
932,20.0,increament,0.6,100.0,standard,45.0,3.0,1.0,
933,20.0,increament,0.6,100.0,standard,45.0,3.0,1.0,
934,20.0,increament,0.6,100.0,standard,45.0,3.0,0.0,0.3459975002333522
935,20.0,increament,0.6,100.0,standard,45.0,3.0,1.0,
936,20.0,increament,0.6,100.0,standard,45.0,3.0,1.0,
937,20.0,increament,0.6,100.0,standard,45.0,3.0,1.0,
938,20.0,increament,0.84,140.0,oddball,47.0,3.0,0.0,
939,20.0,increament,0.6,100.0,standard,45.0,3.0,1.0,
940,20.0,increament,0.6,100.0,standard,45.0,3.0,1.0,
941,20.0,increament,0.6,100.0,standard,45.0,3.0,1.0,
942,20.0,increament,0.6,100.0,standard,45.0,3.0,1.0,
943,20.0,increament,0.6,100.0,standard,45.0,3.0,1.0,
944,20.0,increament,0.6,100.0,standard,45.0,3.0,1.0,
945,20.0,increament,0.72,120.0,oddball,46.0,3.0,1.0,0.3357146000489592
946,20.0,increament,0.6,100.0,standard,45.0,3.0,1.0,
947,20.0,increament,0.6,100.0,standard,45.0,3.0,1.0,
948,20.0,increament,0.6,100.0,standard,45.0,3.0,1.0,
949,20.0,increament,0.6,100.0,standard,45.0,3.0,1.0,
950,20.0,increament,0.6,100.0,standard,45.0,3.0,1.0,
951,20.0,increament,0.6,100.0,standard,45.0,3.0,1.0,
952,20.0,increament,0.6,100.0,standard,45.0,3.0,1.0,
953,20.0,increament,0.6,100.0,standard,45.0,3.0,1.0,
954,20.0,increament,0.6,100.0,standard,45.0,3.0,1.0,
955,20.0,increament,0.6,100.0,standard,45.0,3.0,1.0,
956,20.0,increament,0.96,160.0,oddball,48.0,3.0,0.0,
957,20.0,increament,0.6,100.0,standard,45.0,3.0,0.0,0.447153300512582
958,20.0,increament,0.6,100.0,standard,45.0,3.0,1.0,
959,20.0,increament,0.6,100.0,standard,45.0,3.0,1.0,
960,20.0,decreament,0.6,100.0,standard,41.0,3.0,1.0,
961,20.0,decreament,0.6,100.0,standard,41.0,3.0,1.0,
962,20.0,decreament,0.6,100.0,standard,41.0,3.0,1.0,
963,20.0,decreament,0.6,100.0,standard,41.0,3.0,1.0,
964,20.0,decreament,0.6,100.0,standard,41.0,3.0,1.0,
965,20.0,decreament,0.6,100.0,standard,41.0,3.0,1.0,
966,20.0,decreament,0.6,100.0,standard,41.0,3.0,1.0,
967,20.0,decreament,0.6,100.0,standard,41.0,3.0,1.0,
968,20.0,decreament,0.6,100.0,standard,41.0,3.0,1.0,
969,20.0,decreament,0.6,100.0,standard,41.0,3.0,1.0,
970,20.0,decreament,0.6,100.0,standard,41.0,3.0,1.0,
971,20.0,decreament,0.6,100.0,standard,41.0,3.0,1.0,
972,20.0,decreament,0.6,100.0,standard,41.0,3.0,1.0,
973,20.0,decreament,0.48,80.0,oddball,44.0,3.0,1.0,0.9154342003166676
974,20.0,decreament,0.6,100.0,standard,41.0,3.0,1.0,
975,20.0,decreament,0.6,100.0,standard,41.0,3.0,1.0,
976,20.0,decreament,0.6,100.0,standard,41.0,3.0,1.0,
977,20.0,decreament,0.24,40.0,oddball,42.0,3.0,1.0,0.7886189999990165
978,20.0,decreament,0.6,100.0,standard,41.0,3.0,1.0,
979,20.0,decreament,0.6,100.0,standard,41.0,3.0,1.0,
980,20.0,decreament,0.6,100.0,standard,41.0,3.0,1.0,
981,20.0,decreament,0.6,100.0,standard,41.0,3.0,1.0,
982,20.0,decreament,0.6,100.0,standard,41.0,3.0,1.0,
983,20.0,decreament,0.6,100.0,standard,41.0,3.0,1.0,
984,20.0,decreament,0.6,100.0,standard,41.0,3.0,1.0,
985,20.0,decreament,0.36,60.0,oddball,43.0,3.0,1.0,0.8081706003285944
986,20.0,decreament,0.6,100.0,standard,41.0,3.0,1.0,
987,20.0,decreament,0.6,100.0,standard,41.0,3.0,1.0,
988,20.0,decreament,0.6,100.0,standard,41.0,3.0,1.0,
989,20.0,decreament,0.6,100.0,standard,41.0,3.0,1.0,
990,20.0,increament,0.6,100.0,standard,45.0,3.0,1.0,
991,20.0,increament,0.6,100.0,standard,45.0,3.0,1.0,
992,20.0,increament,0.6,100.0,standard,45.0,3.0,1.0,
993,20.0,increament,0.6,100.0,standard,45.0,3.0,1.0,
994,20.0,increament,0.6,100.0,standard,45.0,3.0,1.0,
995,20.0,increament,0.96,160.0,oddball,48.0,3.0,0.0,
996,20.0,increament,0.6,100.0,standard,45.0,3.0,1.0,
997,20.0,increament,0.6,100.0,standard,45.0,3.0,1.0,
998,20.0,increament,0.6,100.0,standard,45.0,3.0,0.0,1.254979300312698
999,20.0,increament,0.6,100.0,standard,45.0,3.0,1.0,
1000,20.0,increament,0.6,100.0,standard,45.0,3.0,1.0,
1001,20.0,increament,0.6,100.0,standard,45.0,3.0,1.0,
1002,20.0,increament,0.6,100.0,standard,45.0,3.0,1.0,
1003,20.0,increament,0.6,100.0,standard,45.0,3.0,1.0,
1004,20.0,increament,0.6,100.0,standard,45.0,3.0,1.0,
1005,20.0,increament,0.6,100.0,standard,45.0,3.0,1.0,
1006,20.0,increament,0.6,100.0,standard,45.0,3.0,1.0,
1007,20.0,increament,0.6,100.0,standard,45.0,3.0,1.0,
1008,20.0,increament,0.6,100.0,standard,45.0,3.0,1.0,
1009,20.0,increament,0.72,120.0,oddball,46.0,3.0,0.0,
1010,20.0,increament,0.6,100.0,standard,45.0,3.0,1.0,
1011,20.0,increament,0.6,100.0,standard,45.0,3.0,1.0,
1012,20.0,increament,0.6,100.0,standard,45.0,3.0,1.0,
1013,20.0,increament,0.6,100.0,standard,45.0,3.0,0.0,0.6425236002542078
1014,20.0,increament,0.84,140.0,oddball,47.0,3.0,0.0,
1015,20.0,increament,0.6,100.0,standard,45.0,3.0,1.0,
1016,20.0,increament,0.6,100.0,standard,45.0,3.0,1.0,
1017,20.0,increament,0.6,100.0,standard,45.0,3.0,1.0,
1018,20.0,increament,0.6,100.0,standard,45.0,3.0,0.0,1.3671516999602318
1019,20.0,increament,0.6,100.0,standard,45.0,3.0,1.0,
1020,20.0,decreament,0.6,100.0,standard,41.0,3.0,1.0,
1021,20.0,decreament,0.6,100.0,standard,41.0,3.0,1.0,
1022,20.0,decreament,0.6,100.0,standard,41.0,3.0,1.0,
1023,20.0,decreament,0.6,100.0,standard,41.0,3.0,1.0,
1024,20.0,decreament,0.6,100.0,standard,41.0,3.0,1.0,
1025,20.0,decreament,0.6,100.0,standard,41.0,3.0,1.0,
1026,20.0,decreament,0.6,100.0,standard,41.0,3.0,1.0,
1027,20.0,decreament,0.6,100.0,standard,41.0,3.0,1.0,
1028,20.0,decreament,0.6,100.0,standard,41.0,3.0,1.0,
1029,20.0,decreament,0.6,100.0,standard,41.0,3.0,1.0,
1030,20.0,decreament,0.6,100.0,standard,41.0,3.0,1.0,
1031,20.0,decreament,0.6,100.0,standard,41.0,3.0,1.0,
1032,20.0,decreament,0.36,60.0,oddball,43.0,3.0,0.0,
1033,20.0,decreament,0.6,100.0,standard,41.0,3.0,1.0,
1034,20.0,decreament,0.6,100.0,standard,41.0,3.0,1.0,
1035,20.0,decreament,0.6,100.0,standard,41.0,3.0,1.0,
1036,20.0,decreament,0.6,100.0,standard,41.0,3.0,1.0,
1037,20.0,decreament,0.6,100.0,standard,41.0,3.0,1.0,
1038,20.0,decreament,0.6,100.0,standard,41.0,3.0,1.0,
1039,20.0,decreament,0.6,100.0,standard,41.0,3.0,1.0,
1040,20.0,decreament,0.6,100.0,standard,41.0,3.0,1.0,
1041,20.0,decreament,0.6,100.0,standard,41.0,3.0,1.0,
1042,20.0,decreament,0.6,100.0,standard,41.0,3.0,0.0,0.3176749004051089
1043,20.0,decreament,0.48,80.0,oddball,44.0,3.0,0.0,
1044,20.0,decreament,0.6,100.0,standard,41.0,3.0,1.0,
1045,20.0,decreament,0.6,100.0,standard,41.0,3.0,1.0,
1046,20.0,decreament,0.6,100.0,standard,41.0,3.0,1.0,
1047,20.0,decreament,0.6,100.0,standard,41.0,3.0,1.0,
1048,20.0,decreament,0.6,100.0,standard,41.0,3.0,1.0,
1049,20.0,decreament,0.24,40.0,oddball,42.0,3.0,1.0,0.7338532004505396
1050,20.0,increament,0.6,100.0,standard,45.0,3.0,1.0,
1051,20.0,increament,0.6,100.0,standard,45.0,3.0,1.0,
1052,20.0,increament,0.6,100.0,standard,45.0,3.0,1.0,
1053,20.0,increament,0.6,100.0,standard,45.0,3.0,1.0,
1054,20.0,increament,0.6,100.0,standard,45.0,3.0,1.0,
1055,20.0,increament,0.6,100.0,standard,45.0,3.0,1.0,
1056,20.0,increament,0.6,100.0,standard,45.0,3.0,0.0,0.5171867003664374
1057,20.0,increament,0.6,100.0,standard,45.0,3.0,1.0,
1058,20.0,increament,0.6,100.0,standard,45.0,3.0,1.0,
1059,20.0,increament,0.6,100.0,standard,45.0,3.0,1.0,
1060,20.0,increament,0.6,100.0,standard,45.0,3.0,1.0,
1061,20.0,increament,0.6,100.0,standard,45.0,3.0,1.0,
1062,20.0,increament,0.6,100.0,standard,45.0,3.0,0.0,0.4331542998552322
1063,20.0,increament,0.84,140.0,oddball,47.0,3.0,0.0,
1064,20.0,increament,0.6,100.0,standard,45.0,3.0,1.0,
1065,20.0,increament,0.6,100.0,standard,45.0,3.0,1.0,
1066,20.0,increament,0.6,100.0,standard,45.0,3.0,1.0,
1067,20.0,increament,0.6,100.0,standard,45.0,3.0,1.0,
1068,20.0,increament,0.6,100.0,standard,45.0,3.0,1.0,
1069,20.0,increament,0.6,100.0,standard,45.0,3.0,1.0,
1070,20.0,increament,0.6,100.0,standard,45.0,3.0,1.0,
1071,20.0,increament,0.6,100.0,standard,45.0,3.0,1.0,
1072,20.0,increament,0.72,120.0,oddball,46.0,3.0,0.0,
1073,20.0,increament,0.6,100.0,standard,45.0,3.0,1.0,
1074,20.0,increament,0.6,100.0,standard,45.0,3.0,1.0,
1075,20.0,increament,0.6,100.0,standard,45.0,3.0,1.0,
1076,20.0,increament,0.6,100.0,standard,45.0,3.0,1.0,
1077,20.0,increament,0.6,100.0,standard,45.0,3.0,1.0,
1078,20.0,increament,0.6,100.0,standard,45.0,3.0,1.0,
1079,20.0,increament,0.96,160.0,oddball,48.0,3.0,0.0,
1080,20.0,decreament,0.6,100.0,standard,41.0,3.0,1.0,
1081,20.0,decreament,0.6,100.0,standard,41.0,3.0,1.0,
1082,20.0,decreament,0.6,100.0,standard,41.0,3.0,1.0,
1083,20.0,decreament,0.6,100.0,standard,41.0,3.0,1.0,
1084,20.0,decreament,0.6,100.0,standard,41.0,3.0,1.0,
1085,20.0,decreament,0.48,80.0,oddball,44.0,3.0,1.0,1.1455473001115024
1086,20.0,decreament,0.6,100.0,standard,41.0,3.0,1.0,
1087,20.0,decreament,0.6,100.0,standard,41.0,3.0,1.0,
1088,20.0,decreament,0.6,100.0,standard,41.0,3.0,1.0,
1089,20.0,decreament,0.6,100.0,standard,41.0,3.0,1.0,
1090,20.0,decreament,0.6,100.0,standard,41.0,3.0,1.0,
1091,20.0,decreament,0.6,100.0,standard,41.0,3.0,1.0,
1092,20.0,decreament,0.6,100.0,standard,41.0,3.0,1.0,
1093,20.0,decreament,0.6,100.0,standard,41.0,3.0,1.0,
1094,20.0,decreament,0.6,100.0,standard,41.0,3.0,1.0,
1095,20.0,decreament,0.6,100.0,standard,41.0,3.0,1.0,
1096,20.0,decreament,0.6,100.0,standard,41.0,3.0,1.0,
1097,20.0,decreament,0.36,60.0,oddball,43.0,3.0,1.0,0.9918959001079202
1098,20.0,decreament,0.6,100.0,standard,41.0,3.0,1.0,
1099,20.0,decreament,0.6,100.0,standard,41.0,3.0,1.0,
1100,20.0,decreament,0.6,100.0,standard,41.0,3.0,1.0,
1101,20.0,decreament,0.6,100.0,standard,41.0,3.0,1.0,
1102,20.0,decreament,0.6,100.0,standard,41.0,3.0,0.0,1.8508689003065228
1103,20.0,decreament,0.6,100.0,standard,41.0,3.0,1.0,
1104,20.0,decreament,0.6,100.0,standard,41.0,3.0,1.0,
1105,20.0,decreament,0.6,100.0,standard,41.0,3.0,1.0,
1106,20.0,decreament,0.24,40.0,oddball,42.0,3.0,1.0,0.7963204002007842
1107,20.0,decreament,0.6,100.0,standard,41.0,3.0,1.0,
1108,20.0,decreament,0.6,100.0,standard,41.0,3.0,1.0,
1109,20.0,decreament,0.6,100.0,standard,41.0,3.0,1.0,
1110,20.0,increament,0.6,100.0,standard,45.0,3.0,1.0,
1111,20.0,increament,0.6,100.0,standard,45.0,3.0,1.0,
1112,20.0,increament,0.6,100.0,standard,45.0,3.0,1.0,
1113,20.0,increament,0.6,100.0,standard,45.0,3.0,1.0,
1114,20.0,increament,0.6,100.0,standard,45.0,3.0,1.0,
1115,20.0,increament,0.6,100.0,standard,45.0,3.0,1.0,
1116,20.0,increament,0.96,160.0,oddball,48.0,3.0,0.0,
1117,20.0,increament,0.6,100.0,standard,45.0,3.0,1.0,
1118,20.0,increament,0.6,100.0,standard,45.0,3.0,1.0,
1119,20.0,increament,0.6,100.0,standard,45.0,3.0,1.0,
1120,20.0,increament,0.6,100.0,standard,45.0,3.0,1.0,
1121,20.0,increament,0.6,100.0,standard,45.0,3.0,1.0,
1122,20.0,increament,0.84,140.0,oddball,47.0,3.0,0.0,
1123,20.0,increament,0.6,100.0,standard,45.0,3.0,1.0,
1124,20.0,increament,0.6,100.0,standard,45.0,3.0,1.0,
1125,20.0,increament,0.6,100.0,standard,45.0,3.0,1.0,
1126,20.0,increament,0.6,100.0,standard,45.0,3.0,1.0,
1127,20.0,increament,0.6,100.0,standard,45.0,3.0,1.0,
1128,20.0,increament,0.6,100.0,standard,45.0,3.0,1.0,
1129,20.0,increament,0.6,100.0,standard,45.0,3.0,1.0,
1130,20.0,increament,0.6,100.0,standard,45.0,3.0,1.0,
1131,20.0,increament,0.6,100.0,standard,45.0,3.0,1.0,
1132,20.0,increament,0.6,100.0,standard,45.0,3.0,1.0,
1133,20.0,increament,0.6,100.0,standard,45.0,3.0,1.0,
1134,20.0,increament,0.6,100.0,standard,45.0,3.0,1.0,
1135,20.0,increament,0.6,100.0,standard,45.0,3.0,1.0,
1136,20.0,increament,0.6,100.0,standard,45.0,3.0,1.0,
1137,20.0,increament,0.72,120.0,oddball,46.0,3.0,0.0,
1138,20.0,increament,0.6,100.0,standard,45.0,3.0,1.0,
1139,20.0,increament,0.6,100.0,standard,45.0,3.0,1.0,
1140,20.0,decreament,0.6,100.0,standard,41.0,3.0,1.0,
1141,20.0,decreament,0.6,100.0,standard,41.0,3.0,1.0,
1142,20.0,decreament,0.6,100.0,standard,41.0,3.0,1.0,
1143,20.0,decreament,0.6,100.0,standard,41.0,3.0,1.0,
1144,20.0,decreament,0.6,100.0,standard,41.0,3.0,1.0,
1145,20.0,decreament,0.6,100.0,standard,41.0,3.0,1.0,
1146,20.0,decreament,0.6,100.0,standard,41.0,3.0,1.0,
1147,20.0,decreament,0.6,100.0,standard,41.0,3.0,1.0,
1148,20.0,decreament,0.6,100.0,standard,41.0,3.0,1.0,
1149,20.0,decreament,0.24,40.0,oddball,42.0,3.0,0.0,
1150,20.0,decreament,0.6,100.0,standard,41.0,3.0,1.0,
1151,20.0,decreament,0.6,100.0,standard,41.0,3.0,1.0,
1152,20.0,decreament,0.6,100.0,standard,41.0,3.0,1.0,
1153,20.0,decreament,0.6,100.0,standard,41.0,3.0,1.0,
1154,20.0,decreament,0.6,100.0,standard,41.0,3.0,1.0,
1155,20.0,decreament,0.48,80.0,oddball,44.0,3.0,1.0,0.9845234998501836
1156,20.0,decreament,0.6,100.0,standard,41.0,3.0,1.0,
1157,20.0,decreament,0.6,100.0,standard,41.0,3.0,1.0,
1158,20.0,decreament,0.6,100.0,standard,41.0,3.0,1.0,
1159,20.0,decreament,0.6,100.0,standard,41.0,3.0,1.0,
1160,20.0,decreament,0.6,100.0,standard,41.0,3.0,1.0,
1161,20.0,decreament,0.36,60.0,oddball,43.0,3.0,0.0,
1162,20.0,decreament,0.6,100.0,standard,41.0,3.0,1.0,
1163,20.0,decreament,0.6,100.0,standard,41.0,3.0,1.0,
1164,20.0,decreament,0.6,100.0,standard,41.0,3.0,1.0,
1165,20.0,decreament,0.6,100.0,standard,41.0,3.0,0.0,1.193897900171578
1166,20.0,decreament,0.6,100.0,standard,41.0,3.0,1.0,
1167,20.0,decreament,0.6,100.0,standard,41.0,3.0,1.0,
1168,20.0,decreament,0.6,100.0,standard,41.0,3.0,1.0,
1169,20.0,decreament,0.6,100.0,standard,41.0,3.0,1.0,
1170,20.0,increament,0.6,100.0,standard,45.0,3.0,1.0,
1171,20.0,increament,0.6,100.0,standard,45.0,3.0,1.0,
1172,20.0,increament,0.6,100.0,standard,45.0,3.0,1.0,
1173,20.0,increament,0.6,100.0,standard,45.0,3.0,1.0,
1174,20.0,increament,0.6,100.0,standard,45.0,3.0,0.0,0.4219586001709103
1175,20.0,increament,0.84,140.0,oddball,47.0,3.0,1.0,0.3491403004154563
1176,20.0,increament,0.6,100.0,standard,45.0,3.0,1.0,
1177,20.0,increament,0.6,100.0,standard,45.0,3.0,1.0,
1178,20.0,increament,0.6,100.0,standard,45.0,3.0,1.0,
1179,20.0,increament,0.6,100.0,standard,45.0,3.0,1.0,
1180,20.0,increament,0.6,100.0,standard,45.0,3.0,1.0,
1181,20.0,increament,0.6,100.0,standard,45.0,3.0,1.0,
1182,20.0,increament,0.6,100.0,standard,45.0,3.0,0.0,1.1648216997273266
1183,20.0,increament,0.6,100.0,standard,45.0,3.0,1.0,
1184,20.0,increament,0.6,100.0,standard,45.0,3.0,1.0,
1185,20.0,increament,0.6,100.0,standard,45.0,3.0,1.0,
1186,20.0,increament,0.6,100.0,standard,45.0,3.0,1.0,
1187,20.0,increament,0.6,100.0,standard,45.0,3.0,1.0,
1188,20.0,increament,0.96,160.0,oddball,48.0,3.0,0.0,
1189,20.0,increament,0.6,100.0,standard,45.0,3.0,1.0,
1190,20.0,increament,0.6,100.0,standard,45.0,3.0,1.0,
1191,20.0,increament,0.6,100.0,standard,45.0,3.0,0.0,0.8886230001226068
1192,20.0,increament,0.6,100.0,standard,45.0,3.0,1.0,
1193,20.0,increament,0.6,100.0,standard,45.0,3.0,1.0,
1194,20.0,increament,0.72,120.0,oddball,46.0,3.0,0.0,
1195,20.0,increament,0.6,100.0,standard,45.0,3.0,1.0,
1196,20.0,increament,0.6,100.0,standard,45.0,3.0,1.0,
1197,20.0,increament,0.6,100.0,standard,45.0,3.0,1.0,
1198,20.0,increament,0.6,100.0,standard,45.0,3.0,1.0,
1199,20.0,increament,0.6,100.0,standard,45.0,3.0,1.0,
