,grating_freq,direction,duration,scaling,stim_type,trigger,blocks.thisN,resp.corr,resp.rt
0,5.0,decreament,0.6,100.0,standard,11.0,0.0,1.0,
1,5.0,decreament,0.6,100.0,standard,11.0,0.0,1.0,
2,5.0,decreament,0.6,100.0,standard,11.0,0.0,1.0,
3,5.0,decreament,0.6,100.0,standard,11.0,0.0,1.0,
4,5.0,decreament,0.6,100.0,standard,11.0,0.0,1.0,
5,5.0,decreament,0.48,80.0,oddball,14.0,0.0,0.0,
6,5.0,decreament,0.6,100.0,standard,11.0,0.0,1.0,
7,5.0,decreament,0.6,100.0,standard,11.0,0.0,1.0,
8,5.0,decreament,0.6,100.0,standard,11.0,0.0,1.0,
9,5.0,decreament,0.24,40.0,oddball,12.0,0.0,1.0,0.6311378004029393
10,5.0,decreament,0.6,100.0,standard,11.0,0.0,1.0,
11,5.0,decreament,0.6,100.0,standard,11.0,0.0,1.0,
12,5.0,decreament,0.6,100.0,standard,11.0,0.0,1.0,
13,5.0,decreament,0.6,100.0,standard,11.0,0.0,1.0,
14,5.0,decreament,0.6,100.0,standard,11.0,0.0,1.0,
15,5.0,decreament,0.6,100.0,standard,11.0,0.0,1.0,
16,5.0,decreament,0.6,100.0,standard,11.0,0.0,1.0,
17,5.0,decreament,0.36,60.0,oddball,13.0,0.0,1.0,0.5036478000693023
18,5.0,decreament,0.6,100.0,standard,11.0,0.0,1.0,
19,5.0,decreament,0.6,100.0,standard,11.0,0.0,1.0,
20,5.0,decreament,0.6,100.0,standard,11.0,0.0,1.0,
21,5.0,decreament,0.6,100.0,standard,11.0,0.0,1.0,
22,5.0,decreament,0.6,100.0,standard,11.0,0.0,1.0,
23,5.0,decreament,0.6,100.0,standard,11.0,0.0,1.0,
24,5.0,decreament,0.6,100.0,standard,11.0,0.0,1.0,
25,5.0,decreament,0.6,100.0,standard,11.0,0.0,1.0,
26,5.0,decreament,0.6,100.0,standard,11.0,0.0,1.0,
27,5.0,decreament,0.6,100.0,standard,11.0,0.0,1.0,
28,5.0,decreament,0.6,100.0,standard,11.0,0.0,1.0,
29,5.0,decreament,0.6,100.0,standard,11.0,0.0,1.0,
30,5.0,increament,0.6,100.0,standard,15.0,0.0,1.0,
31,5.0,increament,0.6,100.0,standard,15.0,0.0,1.0,
32,5.0,increament,0.6,100.0,standard,15.0,0.0,1.0,
33,5.0,increament,0.6,100.0,standard,15.0,0.0,1.0,
34,5.0,increament,0.6,100.0,standard,15.0,0.0,1.0,
35,5.0,increament,0.6,100.0,standard,15.0,0.0,1.0,
36,5.0,increament,0.6,100.0,standard,15.0,0.0,1.0,
37,5.0,increament,0.6,100.0,standard,15.0,0.0,1.0,
38,5.0,increament,0.6,100.0,standard,15.0,0.0,1.0,
39,5.0,increament,0.6,100.0,standard,15.0,0.0,1.0,
40,5.0,increament,0.6,100.0,standard,15.0,0.0,1.0,
41,5.0,increament,0.72,120.0,oddball,16.0,0.0,1.0,1.1077371002174914
42,5.0,increament,0.6,100.0,standard,15.0,0.0,1.0,
43,5.0,increament,0.6,100.0,standard,15.0,0.0,1.0,
44,5.0,increament,0.6,100.0,standard,15.0,0.0,1.0,
45,5.0,increament,0.6,100.0,standard,15.0,0.0,1.0,
46,5.0,increament,0.6,100.0,standard,15.0,0.0,1.0,
47,5.0,increament,0.6,100.0,standard,15.0,0.0,1.0,
48,5.0,increament,0.84,140.0,oddball,17.0,0.0,0.0,
49,5.0,increament,0.6,100.0,standard,15.0,0.0,1.0,
50,5.0,increament,0.6,100.0,standard,15.0,0.0,1.0,
51,5.0,increament,0.6,100.0,standard,15.0,0.0,1.0,
52,5.0,increament,0.6,100.0,standard,15.0,0.0,1.0,
53,5.0,increament,0.6,100.0,standard,15.0,0.0,1.0,
54,5.0,increament,0.6,100.0,standard,15.0,0.0,1.0,
55,5.0,increament,0.6,100.0,standard,15.0,0.0,1.0,
56,5.0,increament,0.96,160.0,oddball,18.0,0.0,1.0,0.3602466001175344
57,5.0,increament,0.6,100.0,standard,15.0,0.0,1.0,
58,5.0,increament,0.6,100.0,standard,15.0,0.0,1.0,
59,5.0,increament,0.6,100.0,standard,15.0,0.0,0.0,1.5549042001366615
60,5.0,decreament,0.6,100.0,standard,11.0,0.0,1.0,
61,5.0,decreament,0.6,100.0,standard,11.0,0.0,1.0,
62,5.0,decreament,0.6,100.0,standard,11.0,0.0,1.0,
63,5.0,decreament,0.6,100.0,standard,11.0,0.0,1.0,
64,5.0,decreament,0.6,100.0,standard,11.0,0.0,1.0,
65,5.0,decreament,0.6,100.0,standard,11.0,0.0,1.0,
66,5.0,decreament,0.6,100.0,standard,11.0,0.0,1.0,
67,5.0,decreament,0.6,100.0,standard,11.0,0.0,1.0,
68,5.0,decreament,0.6,100.0,standard,11.0,0.0,1.0,
69,5.0,decreament,0.6,100.0,standard,11.0,0.0,1.0,
70,5.0,decreament,0.6,100.0,standard,11.0,0.0,1.0,
71,5.0,decreament,0.6,100.0,standard,11.0,0.0,1.0,
72,5.0,decreament,0.6,100.0,standard,11.0,0.0,1.0,
73,5.0,decreament,0.6,100.0,standard,11.0,0.0,1.0,
74,5.0,decreament,0.36,60.0,oddball,13.0,0.0,1.0,0.7371530001983047
75,5.0,decreament,0.6,100.0,standard,11.0,0.0,1.0,
76,5.0,decreament,0.6,100.0,standard,11.0,0.0,1.0,
77,5.0,decreament,0.6,100.0,standard,11.0,0.0,1.0,
78,5.0,decreament,0.6,100.0,standard,11.0,0.0,1.0,
79,5.0,decreament,0.48,80.0,oddball,14.0,0.0,0.0,
80,5.0,decreament,0.6,100.0,standard,11.0,0.0,1.0,
81,5.0,decreament,0.6,100.0,standard,11.0,0.0,1.0,
82,5.0,decreament,0.6,100.0,standard,11.0,0.0,1.0,
83,5.0,decreament,0.6,100.0,standard,11.0,0.0,1.0,
84,5.0,decreament,0.24,40.0,oddball,12.0,0.0,1.0,0.6518724001944065
85,5.0,decreament,0.6,100.0,standard,11.0,0.0,1.0,
86,5.0,decreament,0.6,100.0,standard,11.0,0.0,1.0,
87,5.0,decreament,0.6,100.0,standard,11.0,0.0,1.0,
88,5.0,decreament,0.6,100.0,standard,11.0,0.0,1.0,
89,5.0,decreament,0.6,100.0,standard,11.0,0.0,1.0,
90,5.0,increament,0.6,100.0,standard,15.0,0.0,1.0,
91,5.0,increament,0.6,100.0,standard,15.0,0.0,1.0,
92,5.0,increament,0.6,100.0,standard,15.0,0.0,1.0,
93,5.0,increament,0.6,100.0,standard,15.0,0.0,1.0,
94,5.0,increament,0.6,100.0,standard,15.0,0.0,1.0,
95,5.0,increament,0.6,100.0,standard,15.0,0.0,1.0,
96,5.0,increament,0.96,160.0,oddball,18.0,0.0,0.0,
97,5.0,increament,0.6,100.0,standard,15.0,0.0,1.0,
98,5.0,increament,0.6,100.0,standard,15.0,0.0,1.0,
99,5.0,increament,0.6,100.0,standard,15.0,0.0,1.0,
100,5.0,increament,0.6,100.0,standard,15.0,0.0,1.0,
101,5.0,increament,0.6,100.0,standard,15.0,0.0,1.0,
102,5.0,increament,0.6,100.0,standard,15.0,0.0,1.0,
103,5.0,increament,0.84,140.0,oddball,17.0,0.0,1.0,0.7419509002938867
104,5.0,increament,0.6,100.0,standard,15.0,0.0,1.0,
105,5.0,increament,0.6,100.0,standard,15.0,0.0,1.0,
106,5.0,increament,0.6,100.0,standard,15.0,0.0,1.0,
107,5.0,increament,0.6,100.0,standard,15.0,0.0,1.0,
108,5.0,increament,0.6,100.0,standard,15.0,0.0,1.0,
109,5.0,increament,0.6,100.0,standard,15.0,0.0,1.0,
110,5.0,increament,0.6,100.0,standard,15.0,0.0,1.0,
111,5.0,increament,0.6,100.0,standard,15.0,0.0,1.0,
112,5.0,increament,0.6,100.0,standard,15.0,0.0,1.0,
113,5.0,increament,0.6,100.0,standard,15.0,0.0,1.0,
114,5.0,increament,0.6,100.0,standard,15.0,0.0,1.0,
115,5.0,increament,0.6,100.0,standard,15.0,0.0,1.0,
116,5.0,increament,0.6,100.0,standard,15.0,0.0,0.0,1.5316814999096096
117,5.0,increament,0.72,120.0,oddball,16.0,0.0,0.0,
118,5.0,increament,0.6,100.0,standard,15.0,0.0,1.0,
119,5.0,increament,0.6,100.0,standard,15.0,0.0,1.0,
120,5.0,decreament,0.6,100.0,standard,11.0,0.0,1.0,
121,5.0,decreament,0.6,100.0,standard,11.0,0.0,1.0,
122,5.0,decreament,0.6,100.0,standard,11.0,0.0,1.0,
123,5.0,decreament,0.6,100.0,standard,11.0,0.0,1.0,
124,5.0,decreament,0.6,100.0,standard,11.0,0.0,1.0,
125,5.0,decreament,0.48,80.0,oddball,14.0,0.0,0.0,
126,5.0,decreament,0.6,100.0,standard,11.0,0.0,1.0,
127,5.0,decreament,0.6,100.0,standard,11.0,0.0,1.0,
128,5.0,decreament,0.6,100.0,standard,11.0,0.0,1.0,
129,5.0,decreament,0.6,100.0,standard,11.0,0.0,1.0,
130,5.0,decreament,0.6,100.0,standard,11.0,0.0,1.0,
131,5.0,decreament,0.24,40.0,oddball,12.0,0.0,1.0,0.6925595002248883
132,5.0,decreament,0.6,100.0,standard,11.0,0.0,1.0,
133,5.0,decreament,0.6,100.0,standard,11.0,0.0,1.0,
134,5.0,decreament,0.6,100.0,standard,11.0,0.0,1.0,
135,5.0,decreament,0.6,100.0,standard,11.0,0.0,1.0,
136,5.0,decreament,0.6,100.0,standard,11.0,0.0,1.0,
137,5.0,decreament,0.6,100.0,standard,11.0,0.0,1.0,
138,5.0,decreament,0.36,60.0,oddball,13.0,0.0,0.0,
139,5.0,decreament,0.6,100.0,standard,11.0,0.0,1.0,
140,5.0,decreament,0.6,100.0,standard,11.0,0.0,1.0,
141,5.0,decreament,0.6,100.0,standard,11.0,0.0,1.0,
142,5.0,decreament,0.6,100.0,standard,11.0,0.0,1.0,
143,5.0,decreament,0.6,100.0,standard,11.0,0.0,1.0,
144,5.0,decreament,0.6,100.0,standard,11.0,0.0,1.0,
145,5.0,decreament,0.6,100.0,standard,11.0,0.0,1.0,
146,5.0,decreament,0.6,100.0,standard,11.0,0.0,1.0,
147,5.0,decreament,0.6,100.0,standard,11.0,0.0,1.0,
148,5.0,decreament,0.6,100.0,standard,11.0,0.0,1.0,
149,5.0,decreament,0.6,100.0,standard,11.0,0.0,1.0,
150,5.0,increament,0.6,100.0,standard,15.0,0.0,1.0,
151,5.0,increament,0.6,100.0,standard,15.0,0.0,1.0,
152,5.0,increament,0.6,100.0,standard,15.0,0.0,1.0,
153,5.0,increament,0.6,100.0,standard,15.0,0.0,1.0,
154,5.0,increament,0.6,100.0,standard,15.0,0.0,1.0,
155,5.0,increament,0.6,100.0,standard,15.0,0.0,1.0,
156,5.0,increament,0.6,100.0,standard,15.0,0.0,1.0,
157,5.0,increament,0.6,100.0,standard,15.0,0.0,1.0,
158,5.0,increament,0.6,100.0,standard,15.0,0.0,1.0,
159,5.0,increament,0.6,100.0,standard,15.0,0.0,1.0,
160,5.0,increament,0.84,140.0,oddball,17.0,0.0,0.0,
161,5.0,increament,0.6,100.0,standard,15.0,0.0,1.0,
162,5.0,increament,0.6,100.0,standard,15.0,0.0,1.0,
163,5.0,increament,0.6,100.0,standard,15.0,0.0,1.0,
164,5.0,increament,0.6,100.0,standard,15.0,0.0,1.0,
165,5.0,increament,0.6,100.0,standard,15.0,0.0,1.0,
166,5.0,increament,0.96,160.0,oddball,18.0,0.0,1.0,0.6110795000568032
167,5.0,increament,0.6,100.0,standard,15.0,0.0,1.0,
168,5.0,increament,0.6,100.0,standard,15.0,0.0,1.0,
169,5.0,increament,0.6,100.0,standard,15.0,0.0,1.0,
170,5.0,increament,0.6,100.0,standard,15.0,0.0,1.0,
171,5.0,increament,0.6,100.0,standard,15.0,0.0,1.0,
172,5.0,increament,0.6,100.0,standard,15.0,0.0,1.0,
173,5.0,increament,0.6,100.0,standard,15.0,0.0,1.0,
174,5.0,increament,0.6,100.0,standard,15.0,0.0,1.0,
175,5.0,increament,0.6,100.0,standard,15.0,0.0,1.0,
176,5.0,increament,0.6,100.0,standard,15.0,0.0,1.0,
177,5.0,increament,0.6,100.0,standard,15.0,0.0,1.0,
178,5.0,increament,0.72,120.0,oddball,16.0,0.0,1.0,0.9309920002706348
179,5.0,increament,0.6,100.0,standard,15.0,0.0,1.0,
180,5.0,decreament,0.6,100.0,standard,11.0,0.0,1.0,
181,5.0,decreament,0.6,100.0,standard,11.0,0.0,1.0,
182,5.0,decreament,0.6,100.0,standard,11.0,0.0,1.0,
183,5.0,decreament,0.6,100.0,standard,11.0,0.0,1.0,
184,5.0,decreament,0.6,100.0,standard,11.0,0.0,1.0,
185,5.0,decreament,0.6,100.0,standard,11.0,0.0,1.0,
186,5.0,decreament,0.48,80.0,oddball,14.0,0.0,0.0,
187,5.0,decreament,0.6,100.0,standard,11.0,0.0,1.0,
188,5.0,decreament,0.6,100.0,standard,11.0,0.0,1.0,
189,5.0,decreament,0.6,100.0,standard,11.0,0.0,1.0,
190,5.0,decreament,0.6,100.0,standard,11.0,0.0,1.0,
191,5.0,decreament,0.6,100.0,standard,11.0,0.0,1.0,
192,5.0,decreament,0.24,40.0,oddball,12.0,0.0,1.0,0.755944199860096
193,5.0,decreament,0.6,100.0,standard,11.0,0.0,1.0,
194,5.0,decreament,0.6,100.0,standard,11.0,0.0,1.0,
195,5.0,decreament,0.6,100.0,standard,11.0,0.0,1.0,
196,5.0,decreament,0.6,100.0,standard,11.0,0.0,1.0,
197,5.0,decreament,0.36,60.0,oddball,13.0,0.0,1.0,0.9771369001828134
198,5.0,decreament,0.6,100.0,standard,11.0,0.0,1.0,
199,5.0,decreament,0.6,100.0,standard,11.0,0.0,1.0,
200,5.0,decreament,0.6,100.0,standard,11.0,0.0,1.0,
201,5.0,decreament,0.6,100.0,standard,11.0,0.0,1.0,
202,5.0,decreament,0.6,100.0,standard,11.0,0.0,1.0,
203,5.0,decreament,0.6,100.0,standard,11.0,0.0,1.0,
204,5.0,decreament,0.6,100.0,standard,11.0,0.0,1.0,
205,5.0,decreament,0.6,100.0,standard,11.0,0.0,1.0,
206,5.0,decreament,0.6,100.0,standard,11.0,0.0,1.0,
207,5.0,decreament,0.6,100.0,standard,11.0,0.0,1.0,
208,5.0,decreament,0.6,100.0,standard,11.0,0.0,1.0,
209,5.0,decreament,0.6,100.0,standard,11.0,0.0,1.0,
210,5.0,increament,0.6,100.0,standard,15.0,0.0,1.0,
211,5.0,increament,0.6,100.0,standard,15.0,0.0,1.0,
212,5.0,increament,0.6,100.0,standard,15.0,0.0,1.0,
213,5.0,increament,0.6,100.0,standard,15.0,0.0,1.0,
214,5.0,increament,0.6,100.0,standard,15.0,0.0,1.0,
215,5.0,increament,0.6,100.0,standard,15.0,0.0,1.0,
216,5.0,increament,0.72,120.0,oddball,16.0,0.0,0.0,
217,5.0,increament,0.6,100.0,standard,15.0,0.0,1.0,
218,5.0,increament,0.6,100.0,standard,15.0,0.0,1.0,
219,5.0,increament,0.6,100.0,standard,15.0,0.0,1.0,
220,5.0,increament,0.6,100.0,standard,15.0,0.0,1.0,
221,5.0,increament,0.6,100.0,standard,15.0,0.0,1.0,
222,5.0,increament,0.6,100.0,standard,15.0,0.0,1.0,
223,5.0,increament,0.6,100.0,standard,15.0,0.0,1.0,
224,5.0,increament,0.6,100.0,standard,15.0,0.0,1.0,
225,5.0,increament,0.6,100.0,standard,15.0,0.0,1.0,
226,5.0,increament,0.6,100.0,standard,15.0,0.0,1.0,
227,5.0,increament,0.6,100.0,standard,15.0,0.0,1.0,
228,5.0,increament,0.6,100.0,standard,15.0,0.0,1.0,
229,5.0,increament,0.84,140.0,oddball,17.0,0.0,1.0,0.7650040001608431
230,5.0,increament,0.6,100.0,standard,15.0,0.0,1.0,
231,5.0,increament,0.6,100.0,standard,15.0,0.0,1.0,
232,5.0,increament,0.6,100.0,standard,15.0,0.0,1.0,
233,5.0,increament,0.96,160.0,oddball,18.0,0.0,1.0,0.4186689001508057
234,5.0,increament,0.6,100.0,standard,15.0,0.0,1.0,
235,5.0,increament,0.6,100.0,standard,15.0,0.0,1.0,
236,5.0,increament,0.6,100.0,standard,15.0,0.0,1.0,
237,5.0,increament,0.6,100.0,standard,15.0,0.0,1.0,
238,5.0,increament,0.6,100.0,standard,15.0,0.0,1.0,
239,5.0,increament,0.6,100.0,standard,15.0,0.0,1.0,
240,5.0,decreament,0.6,100.0,standard,11.0,0.0,1.0,
241,5.0,decreament,0.6,100.0,standard,11.0,0.0,1.0,
242,5.0,decreament,0.6,100.0,standard,11.0,0.0,1.0,
243,5.0,decreament,0.6,100.0,standard,11.0,0.0,1.0,
244,5.0,decreament,0.6,100.0,standard,11.0,0.0,1.0,
245,5.0,decreament,0.6,100.0,standard,11.0,0.0,1.0,
246,5.0,decreament,0.6,100.0,standard,11.0,0.0,1.0,
247,5.0,decreament,0.6,100.0,standard,11.0,0.0,1.0,
248,5.0,decreament,0.36,60.0,oddball,13.0,0.0,0.0,
249,5.0,decreament,0.6,100.0,standard,11.0,0.0,1.0,
250,5.0,decreament,0.6,100.0,standard,11.0,0.0,1.0,
251,5.0,decreament,0.6,100.0,standard,11.0,0.0,1.0,
252,5.0,decreament,0.6,100.0,standard,11.0,0.0,1.0,
253,5.0,decreament,0.6,100.0,standard,11.0,0.0,1.0,
254,5.0,decreament,0.6,100.0,standard,11.0,0.0,1.0,
255,5.0,decreament,0.48,80.0,oddball,14.0,0.0,0.0,
256,5.0,decreament,0.6,100.0,standard,11.0,0.0,1.0,
257,5.0,decreament,0.6,100.0,standard,11.0,0.0,1.0,
258,5.0,decreament,0.6,100.0,standard,11.0,0.0,1.0,
259,5.0,decreament,0.6,100.0,standard,11.0,0.0,1.0,
260,5.0,decreament,0.24,40.0,oddball,12.0,0.0,1.0,0.7529214997775853
261,5.0,decreament,0.6,100.0,standard,11.0,0.0,1.0,
262,5.0,decreament,0.6,100.0,standard,11.0,0.0,1.0,
263,5.0,decreament,0.6,100.0,standard,11.0,0.0,1.0,
264,5.0,decreament,0.6,100.0,standard,11.0,0.0,1.0,
265,5.0,decreament,0.6,100.0,standard,11.0,0.0,1.0,
266,5.0,decreament,0.6,100.0,standard,11.0,0.0,1.0,
267,5.0,decreament,0.6,100.0,standard,11.0,0.0,1.0,
268,5.0,decreament,0.6,100.0,standard,11.0,0.0,1.0,
269,5.0,decreament,0.6,100.0,standard,11.0,0.0,1.0,
270,5.0,increament,0.6,100.0,standard,15.0,0.0,1.0,
271,5.0,increament,0.6,100.0,standard,15.0,0.0,1.0,
272,5.0,increament,0.6,100.0,standard,15.0,0.0,1.0,
273,5.0,increament,0.6,100.0,standard,15.0,0.0,1.0,
274,5.0,increament,0.6,100.0,standard,15.0,0.0,1.0,
275,5.0,increament,0.6,100.0,standard,15.0,0.0,1.0,
276,5.0,increament,0.6,100.0,standard,15.0,0.0,1.0,
277,5.0,increament,0.6,100.0,standard,15.0,0.0,1.0,
278,5.0,increament,0.6,100.0,standard,15.0,0.0,1.0,
279,5.0,increament,0.72,120.0,oddball,16.0,0.0,0.0,
280,5.0,increament,0.6,100.0,standard,15.0,0.0,1.0,
281,5.0,increament,0.6,100.0,standard,15.0,0.0,1.0,
282,5.0,increament,0.6,100.0,standard,15.0,0.0,1.0,
283,5.0,increament,0.6,100.0,standard,15.0,0.0,1.0,
284,5.0,increament,0.84,140.0,oddball,17.0,0.0,1.0,0.4292025999166071
285,5.0,increament,0.6,100.0,standard,15.0,0.0,1.0,
286,5.0,increament,0.6,100.0,standard,15.0,0.0,1.0,
287,5.0,increament,0.6,100.0,standard,15.0,0.0,1.0,
288,5.0,increament,0.6,100.0,standard,15.0,0.0,1.0,
289,5.0,increament,0.6,100.0,standard,15.0,0.0,1.0,
290,5.0,increament,0.96,160.0,oddball,18.0,0.0,1.0,0.6940204999409616
291,5.0,increament,0.6,100.0,standard,15.0,0.0,1.0,
292,5.0,increament,0.6,100.0,standard,15.0,0.0,1.0,
293,5.0,increament,0.6,100.0,standard,15.0,0.0,1.0,
294,5.0,increament,0.6,100.0,standard,15.0,0.0,1.0,
295,5.0,increament,0.6,100.0,standard,15.0,0.0,1.0,
296,5.0,increament,0.6,100.0,standard,15.0,0.0,1.0,
297,5.0,increament,0.6,100.0,standard,15.0,0.0,1.0,
298,5.0,increament,0.6,100.0,standard,15.0,0.0,1.0,
299,5.0,increament,0.6,100.0,standard,15.0,0.0,1.0,
300,20.0,decreament,0.6,100.0,standard,41.0,1.0,1.0,
301,20.0,decreament,0.6,100.0,standard,41.0,1.0,1.0,
302,20.0,decreament,0.6,100.0,standard,41.0,1.0,1.0,
303,20.0,decreament,0.6,100.0,standard,41.0,1.0,1.0,
304,20.0,decreament,0.6,100.0,standard,41.0,1.0,1.0,
305,20.0,decreament,0.6,100.0,standard,41.0,1.0,1.0,
306,20.0,decreament,0.6,100.0,standard,41.0,1.0,1.0,
307,20.0,decreament,0.6,100.0,standard,41.0,1.0,1.0,
308,20.0,decreament,0.6,100.0,standard,41.0,1.0,1.0,
309,20.0,decreament,0.6,100.0,standard,41.0,1.0,1.0,
310,20.0,decreament,0.6,100.0,standard,41.0,1.0,1.0,
311,20.0,decreament,0.24,40.0,oddball,42.0,1.0,1.0,0.7022681999951601
312,20.0,decreament,0.6,100.0,standard,41.0,1.0,1.0,
313,20.0,decreament,0.6,100.0,standard,41.0,1.0,1.0,
314,20.0,decreament,0.6,100.0,standard,41.0,1.0,1.0,
315,20.0,decreament,0.48,80.0,oddball,44.0,1.0,0.0,
316,20.0,decreament,0.6,100.0,standard,41.0,1.0,1.0,
317,20.0,decreament,0.6,100.0,standard,41.0,1.0,1.0,
318,20.0,decreament,0.6,100.0,standard,41.0,1.0,1.0,
319,20.0,decreament,0.6,100.0,standard,41.0,1.0,1.0,
320,20.0,decreament,0.6,100.0,standard,41.0,1.0,1.0,
321,20.0,decreament,0.6,100.0,standard,41.0,1.0,1.0,
322,20.0,decreament,0.6,100.0,standard,41.0,1.0,1.0,
323,20.0,decreament,0.6,100.0,standard,41.0,1.0,1.0,
324,20.0,decreament,0.6,100.0,standard,41.0,1.0,1.0,
325,20.0,decreament,0.6,100.0,standard,41.0,1.0,1.0,
326,20.0,decreament,0.6,100.0,standard,41.0,1.0,1.0,
327,20.0,decreament,0.6,100.0,standard,41.0,1.0,1.0,
328,20.0,decreament,0.36,60.0,oddball,43.0,1.0,1.0,0.5834987000562251
329,20.0,decreament,0.6,100.0,standard,41.0,1.0,1.0,
330,20.0,increament,0.6,100.0,standard,45.0,1.0,1.0,
331,20.0,increament,0.6,100.0,standard,45.0,1.0,1.0,
332,20.0,increament,0.6,100.0,standard,45.0,1.0,1.0,
333,20.0,increament,0.6,100.0,standard,45.0,1.0,1.0,
334,20.0,increament,0.6,100.0,standard,45.0,1.0,1.0,
335,20.0,increament,0.6,100.0,standard,45.0,1.0,1.0,
336,20.0,increament,0.6,100.0,standard,45.0,1.0,1.0,
337,20.0,increament,0.6,100.0,standard,45.0,1.0,1.0,
338,20.0,increament,0.6,100.0,standard,45.0,1.0,1.0,
339,20.0,increament,0.6,100.0,standard,45.0,1.0,1.0,
340,20.0,increament,0.72,120.0,oddball,46.0,1.0,0.0,
341,20.0,increament,0.6,100.0,standard,45.0,1.0,1.0,
342,20.0,increament,0.6,100.0,standard,45.0,1.0,1.0,
343,20.0,increament,0.6,100.0,standard,45.0,1.0,1.0,
344,20.0,increament,0.96,160.0,oddball,48.0,1.0,1.0,0.3865877999924123
345,20.0,increament,0.6,100.0,standard,45.0,1.0,1.0,
346,20.0,increament,0.6,100.0,standard,45.0,1.0,1.0,
347,20.0,increament,0.6,100.0,standard,45.0,1.0,1.0,
348,20.0,increament,0.6,100.0,standard,45.0,1.0,1.0,
349,20.0,increament,0.6,100.0,standard,45.0,1.0,1.0,
350,20.0,increament,0.6,100.0,standard,45.0,1.0,1.0,
351,20.0,increament,0.6,100.0,standard,45.0,1.0,1.0,
352,20.0,increament,0.6,100.0,standard,45.0,1.0,1.0,
353,20.0,increament,0.6,100.0,standard,45.0,1.0,1.0,
354,20.0,increament,0.6,100.0,standard,45.0,1.0,1.0,
355,20.0,increament,0.84,140.0,oddball,47.0,1.0,1.0,0.411831000354141
356,20.0,increament,0.6,100.0,standard,45.0,1.0,1.0,
357,20.0,increament,0.6,100.0,standard,45.0,1.0,1.0,
358,20.0,increament,0.6,100.0,standard,45.0,1.0,1.0,
359,20.0,increament,0.6,100.0,standard,45.0,1.0,1.0,
360,20.0,decreament,0.6,100.0,standard,41.0,1.0,1.0,
361,20.0,decreament,0.6,100.0,standard,41.0,1.0,1.0,
362,20.0,decreament,0.6,100.0,standard,41.0,1.0,1.0,
363,20.0,decreament,0.6,100.0,standard,41.0,1.0,1.0,
364,20.0,decreament,0.6,100.0,standard,41.0,1.0,1.0,
365,20.0,decreament,0.36,60.0,oddball,43.0,1.0,1.0,0.9233087999746205
366,20.0,decreament,0.6,100.0,standard,41.0,1.0,1.0,
367,20.0,decreament,0.6,100.0,standard,41.0,1.0,1.0,
368,20.0,decreament,0.6,100.0,standard,41.0,1.0,1.0,
369,20.0,decreament,0.6,100.0,standard,41.0,1.0,1.0,
370,20.0,decreament,0.6,100.0,standard,41.0,1.0,1.0,
371,20.0,decreament,0.6,100.0,standard,41.0,1.0,1.0,
372,20.0,decreament,0.6,100.0,standard,41.0,1.0,1.0,
373,20.0,decreament,0.6,100.0,standard,41.0,1.0,1.0,
374,20.0,decreament,0.48,80.0,oddball,44.0,1.0,0.0,
375,20.0,decreament,0.6,100.0,standard,41.0,1.0,1.0,
376,20.0,decreament,0.6,100.0,standard,41.0,1.0,1.0,
377,20.0,decreament,0.6,100.0,standard,41.0,1.0,1.0,
378,20.0,decreament,0.6,100.0,standard,41.0,1.0,1.0,
379,20.0,decreament,0.6,100.0,standard,41.0,1.0,1.0,
380,20.0,decreament,0.6,100.0,standard,41.0,1.0,1.0,
381,20.0,decreament,0.6,100.0,standard,41.0,1.0,1.0,
382,20.0,decreament,0.6,100.0,standard,41.0,1.0,1.0,
383,20.0,decreament,0.6,100.0,standard,41.0,1.0,1.0,
384,20.0,decreament,0.6,100.0,standard,41.0,1.0,1.0,
385,20.0,decreament,0.6,100.0,standard,41.0,1.0,1.0,
386,20.0,decreament,0.24,40.0,oddball,42.0,1.0,1.0,0.7846621000207961
387,20.0,decreament,0.6,100.0,standard,41.0,1.0,1.0,
388,20.0,decreament,0.6,100.0,standard,41.0,1.0,1.0,
389,20.0,decreament,0.6,100.0,standard,41.0,1.0,1.0,
390,20.0,increament,0.6,100.0,standard,45.0,1.0,1.0,
391,20.0,increament,0.6,100.0,standard,45.0,1.0,1.0,
392,20.0,increament,0.6,100.0,standard,45.0,1.0,1.0,
393,20.0,increament,0.6,100.0,standard,45.0,1.0,1.0,
394,20.0,increament,0.6,100.0,standard,45.0,1.0,1.0,
395,20.0,increament,0.72,120.0,oddball,46.0,1.0,0.0,
396,20.0,increament,0.6,100.0,standard,45.0,1.0,1.0,
397,20.0,increament,0.6,100.0,standard,45.0,1.0,1.0,
398,20.0,increament,0.6,100.0,standard,45.0,1.0,1.0,
399,20.0,increament,0.6,100.0,standard,45.0,1.0,1.0,
400,20.0,increament,0.6,100.0,standard,45.0,1.0,1.0,
401,20.0,increament,0.6,100.0,standard,45.0,1.0,1.0,
402,20.0,increament,0.6,100.0,standard,45.0,1.0,1.0,
403,20.0,increament,0.6,100.0,standard,45.0,1.0,1.0,
404,20.0,increament,0.6,100.0,standard,45.0,1.0,1.0,
405,20.0,increament,0.6,100.0,standard,45.0,1.0,1.0,
406,20.0,increament,0.6,100.0,standard,45.0,1.0,0.0,1.7020348003134131
407,20.0,increament,0.6,100.0,standard,45.0,1.0,1.0,
408,20.0,increament,0.6,100.0,standard,45.0,1.0,1.0,
409,20.0,increament,0.6,100.0,standard,45.0,1.0,1.0,
410,20.0,increament,0.6,100.0,standard,45.0,1.0,1.0,
411,20.0,increament,0.84,140.0,oddball,47.0,1.0,1.0,0.4198088999837637
412,20.0,increament,0.6,100.0,standard,45.0,1.0,1.0,
413,20.0,increament,0.6,100.0,standard,45.0,1.0,1.0,
414,20.0,increament,0.6,100.0,standard,45.0,1.0,1.0,
415,20.0,increament,0.6,100.0,standard,45.0,1.0,1.0,
416,20.0,increament,0.6,100.0,standard,45.0,1.0,1.0,
417,20.0,increament,0.6,100.0,standard,45.0,1.0,1.0,
418,20.0,increament,0.6,100.0,standard,45.0,1.0,1.0,
419,20.0,increament,0.96,160.0,oddball,48.0,1.0,1.0,0.3168299002572894
420,20.0,decreament,0.6,100.0,standard,41.0,1.0,1.0,
421,20.0,decreament,0.6,100.0,standard,41.0,1.0,1.0,
422,20.0,decreament,0.6,100.0,standard,41.0,1.0,1.0,
423,20.0,decreament,0.6,100.0,standard,41.0,1.0,1.0,
424,20.0,decreament,0.6,100.0,standard,41.0,1.0,1.0,
425,20.0,decreament,0.6,100.0,standard,41.0,1.0,1.0,
426,20.0,decreament,0.6,100.0,standard,41.0,1.0,1.0,
427,20.0,decreament,0.6,100.0,standard,41.0,1.0,1.0,
428,20.0,decreament,0.36,60.0,oddball,43.0,1.0,1.0,1.0554345003329215
429,20.0,decreament,0.6,100.0,standard,41.0,1.0,1.0,
430,20.0,decreament,0.6,100.0,standard,41.0,1.0,1.0,
431,20.0,decreament,0.6,100.0,standard,41.0,1.0,1.0,
432,20.0,decreament,0.6,100.0,standard,41.0,1.0,1.0,
433,20.0,decreament,0.6,100.0,standard,41.0,1.0,1.0,
434,20.0,decreament,0.6,100.0,standard,41.0,1.0,1.0,
435,20.0,decreament,0.6,100.0,standard,41.0,1.0,1.0,
436,20.0,decreament,0.6,100.0,standard,41.0,1.0,1.0,
437,20.0,decreament,0.6,100.0,standard,41.0,1.0,1.0,
438,20.0,decreament,0.6,100.0,standard,41.0,1.0,1.0,
439,20.0,decreament,0.6,100.0,standard,41.0,1.0,1.0,
440,20.0,decreament,0.48,80.0,oddball,44.0,1.0,0.0,
441,20.0,decreament,0.6,100.0,standard,41.0,1.0,1.0,
442,20.0,decreament,0.6,100.0,standard,41.0,1.0,1.0,
443,20.0,decreament,0.6,100.0,standard,41.0,1.0,1.0,
444,20.0,decreament,0.6,100.0,standard,41.0,1.0,1.0,
445,20.0,decreament,0.6,100.0,standard,41.0,1.0,1.0,
446,20.0,decreament,0.6,100.0,standard,41.0,1.0,1.0,
447,20.0,decreament,0.24,40.0,oddball,42.0,1.0,1.0,0.8682210999540985
448,20.0,decreament,0.6,100.0,standard,41.0,1.0,1.0,
449,20.0,decreament,0.6,100.0,standard,41.0,1.0,1.0,
450,20.0,increament,0.6,100.0,standard,45.0,1.0,1.0,
451,20.0,increament,0.6,100.0,standard,45.0,1.0,1.0,
452,20.0,increament,0.6,100.0,standard,45.0,1.0,1.0,
453,20.0,increament,0.6,100.0,standard,45.0,1.0,1.0,
454,20.0,increament,0.6,100.0,standard,45.0,1.0,1.0,
455,20.0,increament,0.84,140.0,oddball,47.0,1.0,0.0,
456,20.0,increament,0.6,100.0,standard,45.0,1.0,1.0,
457,20.0,increament,0.6,100.0,standard,45.0,1.0,1.0,
458,20.0,increament,0.6,100.0,standard,45.0,1.0,1.0,
459,20.0,increament,0.72,120.0,oddball,46.0,1.0,0.0,
460,20.0,increament,0.6,100.0,standard,45.0,1.0,1.0,
461,20.0,increament,0.6,100.0,standard,45.0,1.0,1.0,
462,20.0,increament,0.6,100.0,standard,45.0,1.0,1.0,
463,20.0,increament,0.6,100.0,standard,45.0,1.0,1.0,
464,20.0,increament,0.6,100.0,standard,45.0,1.0,1.0,
465,20.0,increament,0.6,100.0,standard,45.0,1.0,1.0,
466,20.0,increament,0.6,100.0,standard,45.0,1.0,1.0,
467,20.0,increament,0.6,100.0,standard,45.0,1.0,1.0,
468,20.0,increament,0.6,100.0,standard,45.0,1.0,1.0,
469,20.0,increament,0.6,100.0,standard,45.0,1.0,1.0,
470,20.0,increament,0.6,100.0,standard,45.0,1.0,1.0,
471,20.0,increament,0.6,100.0,standard,45.0,1.0,1.0,
472,20.0,increament,0.6,100.0,standard,45.0,1.0,1.0,
473,20.0,increament,0.6,100.0,standard,45.0,1.0,1.0,
474,20.0,increament,0.6,100.0,standard,45.0,1.0,1.0,
475,20.0,increament,0.6,100.0,standard,45.0,1.0,1.0,
476,20.0,increament,0.6,100.0,standard,45.0,1.0,1.0,
477,20.0,increament,0.6,100.0,standard,45.0,1.0,1.0,
478,20.0,increament,0.96,160.0,oddball,48.0,1.0,1.0,0.2761030001565814
479,20.0,increament,0.6,100.0,standard,45.0,1.0,1.0,
480,20.0,decreament,0.6,100.0,standard,41.0,1.0,1.0,
481,20.0,decreament,0.6,100.0,standard,41.0,1.0,1.0,
482,20.0,decreament,0.6,100.0,standard,41.0,1.0,1.0,
483,20.0,decreament,0.6,100.0,standard,41.0,1.0,1.0,
484,20.0,decreament,0.6,100.0,standard,41.0,1.0,1.0,
485,20.0,decreament,0.6,100.0,standard,41.0,1.0,1.0,
486,20.0,decreament,0.6,100.0,standard,41.0,1.0,1.0,
487,20.0,decreament,0.36,60.0,oddball,43.0,1.0,1.0,1.069279400166124
488,20.0,decreament,0.6,100.0,standard,41.0,1.0,1.0,
489,20.0,decreament,0.6,100.0,standard,41.0,1.0,1.0,
490,20.0,decreament,0.6,100.0,standard,41.0,1.0,1.0,
491,20.0,decreament,0.6,100.0,standard,41.0,1.0,1.0,
492,20.0,decreament,0.6,100.0,standard,41.0,1.0,1.0,
493,20.0,decreament,0.6,100.0,standard,41.0,1.0,1.0,
494,20.0,decreament,0.6,100.0,standard,41.0,1.0,1.0,
495,20.0,decreament,0.6,100.0,standard,41.0,1.0,1.0,
496,20.0,decreament,0.6,100.0,standard,41.0,1.0,1.0,
497,20.0,decreament,0.24,40.0,oddball,42.0,1.0,1.0,0.5980989001691341
498,20.0,decreament,0.6,100.0,standard,41.0,1.0,1.0,
499,20.0,decreament,0.6,100.0,standard,41.0,1.0,1.0,
500,20.0,decreament,0.6,100.0,standard,41.0,1.0,1.0,
501,20.0,decreament,0.6,100.0,standard,41.0,1.0,1.0,
502,20.0,decreament,0.6,100.0,standard,41.0,1.0,1.0,
503,20.0,decreament,0.6,100.0,standard,41.0,1.0,1.0,
504,20.0,decreament,0.48,80.0,oddball,44.0,1.0,0.0,
505,20.0,decreament,0.6,100.0,standard,41.0,1.0,1.0,
506,20.0,decreament,0.6,100.0,standard,41.0,1.0,1.0,
507,20.0,decreament,0.6,100.0,standard,41.0,1.0,1.0,
508,20.0,decreament,0.6,100.0,standard,41.0,1.0,1.0,
509,20.0,decreament,0.6,100.0,standard,41.0,1.0,1.0,
510,20.0,increament,0.6,100.0,standard,45.0,1.0,1.0,
511,20.0,increament,0.6,100.0,standard,45.0,1.0,1.0,
512,20.0,increament,0.6,100.0,standard,45.0,1.0,1.0,
513,20.0,increament,0.6,100.0,standard,45.0,1.0,1.0,
514,20.0,increament,0.6,100.0,standard,45.0,1.0,1.0,
515,20.0,increament,0.6,100.0,standard,45.0,1.0,1.0,
516,20.0,increament,0.6,100.0,standard,45.0,1.0,1.0,
517,20.0,increament,0.6,100.0,standard,45.0,1.0,1.0,
518,20.0,increament,0.6,100.0,standard,45.0,1.0,1.0,
519,20.0,increament,0.6,100.0,standard,45.0,1.0,1.0,
520,20.0,increament,0.6,100.0,standard,45.0,1.0,1.0,
521,20.0,increament,0.6,100.0,standard,45.0,1.0,1.0,
522,20.0,increament,0.6,100.0,standard,45.0,1.0,1.0,
523,20.0,increament,0.6,100.0,standard,45.0,1.0,1.0,
524,20.0,increament,0.6,100.0,standard,45.0,1.0,1.0,
525,20.0,increament,0.6,100.0,standard,45.0,1.0,1.0,
526,20.0,increament,0.6,100.0,standard,45.0,1.0,1.0,
527,20.0,increament,0.6,100.0,standard,45.0,1.0,1.0,
528,20.0,increament,0.6,100.0,standard,45.0,1.0,1.0,
529,20.0,increament,0.6,100.0,standard,45.0,1.0,1.0,
530,20.0,increament,0.6,100.0,standard,45.0,1.0,1.0,
531,20.0,increament,0.72,120.0,oddball,46.0,1.0,0.0,
532,20.0,increament,0.6,100.0,standard,45.0,1.0,1.0,
533,20.0,increament,0.6,100.0,standard,45.0,1.0,1.0,
534,20.0,increament,0.6,100.0,standard,45.0,1.0,1.0,
535,20.0,increament,0.96,160.0,oddball,48.0,1.0,1.0,0.2137575000524521
536,20.0,increament,0.6,100.0,standard,45.0,1.0,1.0,
537,20.0,increament,0.6,100.0,standard,45.0,1.0,1.0,
538,20.0,increament,0.6,100.0,standard,45.0,1.0,1.0,
539,20.0,increament,0.84,140.0,oddball,47.0,1.0,1.0,0.3600769001059234
540,20.0,decreament,0.6,100.0,standard,41.0,1.0,1.0,
541,20.0,decreament,0.6,100.0,standard,41.0,1.0,1.0,
542,20.0,decreament,0.6,100.0,standard,41.0,1.0,1.0,
543,20.0,decreament,0.6,100.0,standard,41.0,1.0,1.0,
544,20.0,decreament,0.6,100.0,standard,41.0,1.0,1.0,
545,20.0,decreament,0.6,100.0,standard,41.0,1.0,1.0,
546,20.0,decreament,0.36,60.0,oddball,43.0,1.0,0.0,
547,20.0,decreament,0.6,100.0,standard,41.0,1.0,1.0,
548,20.0,decreament,0.6,100.0,standard,41.0,1.0,1.0,
549,20.0,decreament,0.6,100.0,standard,41.0,1.0,1.0,
550,20.0,decreament,0.48,80.0,oddball,44.0,1.0,0.0,
551,20.0,decreament,0.6,100.0,standard,41.0,1.0,1.0,
552,20.0,decreament,0.6,100.0,standard,41.0,1.0,1.0,
553,20.0,decreament,0.6,100.0,standard,41.0,1.0,1.0,
554,20.0,decreament,0.6,100.0,standard,41.0,1.0,1.0,
555,20.0,decreament,0.6,100.0,standard,41.0,1.0,1.0,
556,20.0,decreament,0.6,100.0,standard,41.0,1.0,1.0,
557,20.0,decreament,0.6,100.0,standard,41.0,1.0,1.0,
558,20.0,decreament,0.24,40.0,oddball,42.0,1.0,1.0,0.6990446001291275
559,20.0,decreament,0.6,100.0,standard,41.0,1.0,1.0,
560,20.0,decreament,0.6,100.0,standard,41.0,1.0,1.0,
561,20.0,decreament,0.6,100.0,standard,41.0,1.0,1.0,
562,20.0,decreament,0.6,100.0,standard,41.0,1.0,1.0,
563,20.0,decreament,0.6,100.0,standard,41.0,1.0,1.0,
564,20.0,decreament,0.6,100.0,standard,41.0,1.0,1.0,
565,20.0,decreament,0.6,100.0,standard,41.0,1.0,1.0,
566,20.0,decreament,0.6,100.0,standard,41.0,1.0,1.0,
567,20.0,decreament,0.6,100.0,standard,41.0,1.0,1.0,
568,20.0,decreament,0.6,100.0,standard,41.0,1.0,1.0,
569,20.0,decreament,0.6,100.0,standard,41.0,1.0,1.0,
570,20.0,increament,0.6,100.0,standard,45.0,1.0,1.0,
571,20.0,increament,0.6,100.0,standard,45.0,1.0,1.0,
572,20.0,increament,0.6,100.0,standard,45.0,1.0,1.0,
573,20.0,increament,0.6,100.0,standard,45.0,1.0,1.0,
574,20.0,increament,0.6,100.0,standard,45.0,1.0,1.0,
575,20.0,increament,0.72,120.0,oddball,46.0,1.0,0.0,
576,20.0,increament,0.6,100.0,standard,45.0,1.0,1.0,
577,20.0,increament,0.6,100.0,standard,45.0,1.0,1.0,
578,20.0,increament,0.6,100.0,standard,45.0,1.0,1.0,
579,20.0,increament,0.84,140.0,oddball,47.0,1.0,0.0,
580,20.0,increament,0.6,100.0,standard,45.0,1.0,1.0,
581,20.0,increament,0.6,100.0,standard,45.0,1.0,1.0,
582,20.0,increament,0.6,100.0,standard,45.0,1.0,1.0,
583,20.0,increament,0.6,100.0,standard,45.0,1.0,1.0,
584,20.0,increament,0.6,100.0,standard,45.0,1.0,1.0,
585,20.0,increament,0.96,160.0,oddball,48.0,1.0,1.0,0.7723181000910699
586,20.0,increament,0.6,100.0,standard,45.0,1.0,1.0,
587,20.0,increament,0.6,100.0,standard,45.0,1.0,1.0,
588,20.0,increament,0.6,100.0,standard,45.0,1.0,1.0,
589,20.0,increament,0.6,100.0,standard,45.0,1.0,1.0,
590,20.0,increament,0.6,100.0,standard,45.0,1.0,1.0,
591,20.0,increament,0.6,100.0,standard,45.0,1.0,1.0,
592,20.0,increament,0.6,100.0,standard,45.0,1.0,1.0,
593,20.0,increament,0.6,100.0,standard,45.0,1.0,1.0,
594,20.0,increament,0.6,100.0,standard,45.0,1.0,1.0,
595,20.0,increament,0.6,100.0,standard,45.0,1.0,1.0,
596,20.0,increament,0.6,100.0,standard,45.0,1.0,1.0,
597,20.0,increament,0.6,100.0,standard,45.0,1.0,1.0,
598,20.0,increament,0.6,100.0,standard,45.0,1.0,1.0,
599,20.0,increament,0.6,100.0,standard,45.0,1.0,1.0,
600,0.0,decreament,0.6,100.0,standard,1.0,2.0,1.0,
601,0.0,decreament,0.6,100.0,standard,1.0,2.0,1.0,
602,0.0,decreament,0.6,100.0,standard,1.0,2.0,1.0,
603,0.0,decreament,0.6,100.0,standard,1.0,2.0,1.0,
604,0.0,decreament,0.6,100.0,standard,1.0,2.0,1.0,
605,0.0,decreament,0.6,100.0,standard,1.0,2.0,1.0,
606,0.0,decreament,0.6,100.0,standard,1.0,2.0,1.0,
607,0.0,decreament,0.24,40.0,oddball,2.0,2.0,1.0,0.5933874002657831
608,0.0,decreament,0.6,100.0,standard,1.0,2.0,1.0,
609,0.0,decreament,0.6,100.0,standard,1.0,2.0,1.0,
610,0.0,decreament,0.6,100.0,standard,1.0,2.0,1.0,
611,0.0,decreament,0.6,100.0,standard,1.0,2.0,1.0,
612,0.0,decreament,0.6,100.0,standard,1.0,2.0,1.0,
613,0.0,decreament,0.6,100.0,standard,1.0,2.0,1.0,
614,0.0,decreament,0.6,100.0,standard,1.0,2.0,1.0,
615,0.0,decreament,0.6,100.0,standard,1.0,2.0,1.0,
616,0.0,decreament,0.36,60.0,oddball,3.0,2.0,1.0,0.7164831003174186
617,0.0,decreament,0.6,100.0,standard,1.0,2.0,1.0,
618,0.0,decreament,0.6,100.0,standard,1.0,2.0,1.0,
619,0.0,decreament,0.6,100.0,standard,1.0,2.0,1.0,
620,0.0,decreament,0.6,100.0,standard,1.0,2.0,1.0,
621,0.0,decreament,0.6,100.0,standard,1.0,2.0,1.0,
622,0.0,decreament,0.6,100.0,standard,1.0,2.0,1.0,
623,0.0,decreament,0.6,100.0,standard,1.0,2.0,1.0,
624,0.0,decreament,0.6,100.0,standard,1.0,2.0,1.0,
625,0.0,decreament,0.6,100.0,standard,1.0,2.0,1.0,
626,0.0,decreament,0.6,100.0,standard,1.0,2.0,1.0,
627,0.0,decreament,0.6,100.0,standard,1.0,2.0,1.0,
628,0.0,decreament,0.6,100.0,standard,1.0,2.0,1.0,
629,0.0,decreament,0.48,80.0,oddball,4.0,2.0,0.0,
630,0.0,increament,0.6,100.0,standard,5.0,2.0,1.0,
631,0.0,increament,0.6,100.0,standard,5.0,2.0,1.0,
632,0.0,increament,0.6,100.0,standard,5.0,2.0,1.0,
633,0.0,increament,0.6,100.0,standard,5.0,2.0,1.0,
634,0.0,increament,0.6,100.0,standard,5.0,2.0,1.0,
635,0.0,increament,0.96,160.0,oddball,8.0,2.0,1.0,0.4559629997238517
636,0.0,increament,0.6,100.0,standard,5.0,2.0,1.0,
637,0.0,increament,0.6,100.0,standard,5.0,2.0,1.0,
638,0.0,increament,0.6,100.0,standard,5.0,2.0,1.0,
639,0.0,increament,0.6,100.0,standard,5.0,2.0,1.0,
640,0.0,increament,0.6,100.0,standard,5.0,2.0,1.0,
641,0.0,increament,0.6,100.0,standard,5.0,2.0,1.0,
642,0.0,increament,0.6,100.0,standard,5.0,2.0,1.0,
643,0.0,increament,0.6,100.0,standard,5.0,2.0,1.0,
644,0.0,increament,0.6,100.0,standard,5.0,2.0,1.0,
645,0.0,increament,0.72,120.0,oddball,6.0,2.0,1.0,0.7068595997989178
646,0.0,increament,0.6,100.0,standard,5.0,2.0,1.0,
647,0.0,increament,0.6,100.0,standard,5.0,2.0,1.0,
648,0.0,increament,0.6,100.0,standard,5.0,2.0,1.0,
649,0.0,increament,0.6,100.0,standard,5.0,2.0,1.0,
650,0.0,increament,0.6,100.0,standard,5.0,2.0,1.0,
651,0.0,increament,0.6,100.0,standard,5.0,2.0,1.0,
652,0.0,increament,0.6,100.0,standard,5.0,2.0,1.0,
653,0.0,increament,0.6,100.0,standard,5.0,2.0,1.0,
654,0.0,increament,0.6,100.0,standard,5.0,2.0,1.0,
655,0.0,increament,0.6,100.0,standard,5.0,2.0,1.0,
656,0.0,increament,0.6,100.0,standard,5.0,2.0,1.0,
657,0.0,increament,0.6,100.0,standard,5.0,2.0,1.0,
658,0.0,increament,0.6,100.0,standard,5.0,2.0,1.0,
659,0.0,increament,0.84,140.0,oddball,7.0,2.0,1.0,0.7271988000720739
660,0.0,decreament,0.6,100.0,standard,1.0,2.0,1.0,
661,0.0,decreament,0.6,100.0,standard,1.0,2.0,1.0,
662,0.0,decreament,0.6,100.0,standard,1.0,2.0,1.0,
663,0.0,decreament,0.6,100.0,standard,1.0,2.0,1.0,
664,0.0,decreament,0.6,100.0,standard,1.0,2.0,1.0,
665,0.0,decreament,0.6,100.0,standard,1.0,2.0,1.0,
666,0.0,decreament,0.6,100.0,standard,1.0,2.0,1.0,
667,0.0,decreament,0.48,80.0,oddball,4.0,2.0,0.0,
668,0.0,decreament,0.6,100.0,standard,1.0,2.0,1.0,
669,0.0,decreament,0.6,100.0,standard,1.0,2.0,1.0,
670,0.0,decreament,0.6,100.0,standard,1.0,2.0,1.0,
671,0.0,decreament,0.6,100.0,standard,1.0,2.0,1.0,
672,0.0,decreament,0.24,40.0,oddball,2.0,2.0,1.0,0.5719503001309931
673,0.0,decreament,0.6,100.0,standard,1.0,2.0,1.0,
674,0.0,decreament,0.6,100.0,standard,1.0,2.0,1.0,
675,0.0,decreament,0.6,100.0,standard,1.0,2.0,1.0,
676,0.0,decreament,0.6,100.0,standard,1.0,2.0,1.0,
677,0.0,decreament,0.6,100.0,standard,1.0,2.0,1.0,
678,0.0,decreament,0.6,100.0,standard,1.0,2.0,1.0,
679,0.0,decreament,0.6,100.0,standard,1.0,2.0,1.0,
680,0.0,decreament,0.6,100.0,standard,1.0,2.0,1.0,
681,0.0,decreament,0.6,100.0,standard,1.0,2.0,1.0,
682,0.0,decreament,0.6,100.0,standard,1.0,2.0,1.0,
683,0.0,decreament,0.6,100.0,standard,1.0,2.0,1.0,
684,0.0,decreament,0.6,100.0,standard,1.0,2.0,1.0,
685,0.0,decreament,0.6,100.0,standard,1.0,2.0,1.0,
686,0.0,decreament,0.36,60.0,oddball,3.0,2.0,1.0,0.4806817001663148
687,0.0,decreament,0.6,100.0,standard,1.0,2.0,1.0,
688,0.0,decreament,0.6,100.0,standard,1.0,2.0,1.0,
689,0.0,decreament,0.6,100.0,standard,1.0,2.0,1.0,
690,0.0,increament,0.6,100.0,standard,5.0,2.0,1.0,
691,0.0,increament,0.6,100.0,standard,5.0,2.0,1.0,
692,0.0,increament,0.6,100.0,standard,5.0,2.0,1.0,
693,0.0,increament,0.6,100.0,standard,5.0,2.0,1.0,
694,0.0,increament,0.6,100.0,standard,5.0,2.0,1.0,
695,0.0,increament,0.84,140.0,oddball,7.0,2.0,0.0,
696,0.0,increament,0.6,100.0,standard,5.0,2.0,1.0,
697,0.0,increament,0.6,100.0,standard,5.0,2.0,1.0,
698,0.0,increament,0.6,100.0,standard,5.0,2.0,1.0,
699,0.0,increament,0.6,100.0,standard,5.0,2.0,1.0,
700,0.0,increament,0.6,100.0,standard,5.0,2.0,1.0,
701,0.0,increament,0.6,100.0,standard,5.0,2.0,1.0,
702,0.0,increament,0.96,160.0,oddball,8.0,2.0,1.0,1.1293712998740375
703,0.0,increament,0.6,100.0,standard,5.0,2.0,1.0,
704,0.0,increament,0.6,100.0,standard,5.0,2.0,1.0,
705,0.0,increament,0.6,100.0,standard,5.0,2.0,1.0,
706,0.0,increament,0.6,100.0,standard,5.0,2.0,1.0,
707,0.0,increament,0.6,100.0,standard,5.0,2.0,1.0,
708,0.0,increament,0.6,100.0,standard,5.0,2.0,1.0,
709,0.0,increament,0.6,100.0,standard,5.0,2.0,1.0,
710,0.0,increament,0.6,100.0,standard,5.0,2.0,1.0,
711,0.0,increament,0.72,120.0,oddball,6.0,2.0,1.0,0.5465235998854041
712,0.0,increament,0.6,100.0,standard,5.0,2.0,1.0,
713,0.0,increament,0.6,100.0,standard,5.0,2.0,1.0,
714,0.0,increament,0.6,100.0,standard,5.0,2.0,1.0,
715,0.0,increament,0.6,100.0,standard,5.0,2.0,1.0,
716,0.0,increament,0.6,100.0,standard,5.0,2.0,1.0,
717,0.0,increament,0.6,100.0,standard,5.0,2.0,1.0,
718,0.0,increament,0.6,100.0,standard,5.0,2.0,1.0,
719,0.0,increament,0.6,100.0,standard,5.0,2.0,1.0,
720,0.0,decreament,0.6,100.0,standard,1.0,2.0,1.0,
721,0.0,decreament,0.6,100.0,standard,1.0,2.0,1.0,
722,0.0,decreament,0.6,100.0,standard,1.0,2.0,1.0,
723,0.0,decreament,0.6,100.0,standard,1.0,2.0,1.0,
724,0.0,decreament,0.6,100.0,standard,1.0,2.0,1.0,
725,0.0,decreament,0.6,100.0,standard,1.0,2.0,1.0,
726,0.0,decreament,0.6,100.0,standard,1.0,2.0,1.0,
727,0.0,decreament,0.6,100.0,standard,1.0,2.0,1.0,
728,0.0,decreament,0.48,80.0,oddball,4.0,2.0,0.0,
729,0.0,decreament,0.6,100.0,standard,1.0,2.0,1.0,
730,0.0,decreament,0.6,100.0,standard,1.0,2.0,1.0,
731,0.0,decreament,0.6,100.0,standard,1.0,2.0,1.0,
732,0.0,decreament,0.36,60.0,oddball,3.0,2.0,1.0,0.6174372998066247
733,0.0,decreament,0.6,100.0,standard,1.0,2.0,1.0,
734,0.0,decreament,0.6,100.0,standard,1.0,2.0,1.0,
735,0.0,decreament,0.6,100.0,standard,1.0,2.0,1.0,
736,0.0,decreament,0.6,100.0,standard,1.0,2.0,1.0,
737,0.0,decreament,0.6,100.0,standard,1.0,2.0,1.0,
738,0.0,decreament,0.6,100.0,standard,1.0,2.0,1.0,
739,0.0,decreament,0.24,40.0,oddball,2.0,2.0,1.0,0.5858148001134396
740,0.0,decreament,0.6,100.0,standard,1.0,2.0,1.0,
741,0.0,decreament,0.6,100.0,standard,1.0,2.0,1.0,
742,0.0,decreament,0.6,100.0,standard,1.0,2.0,1.0,
743,0.0,decreament,0.6,100.0,standard,1.0,2.0,1.0,
744,0.0,decreament,0.6,100.0,standard,1.0,2.0,1.0,
745,0.0,decreament,0.6,100.0,standard,1.0,2.0,1.0,
746,0.0,decreament,0.6,100.0,standard,1.0,2.0,1.0,
747,0.0,decreament,0.6,100.0,standard,1.0,2.0,1.0,
748,0.0,decreament,0.6,100.0,standard,1.0,2.0,1.0,
749,0.0,decreament,0.6,100.0,standard,1.0,2.0,1.0,
750,0.0,increament,0.6,100.0,standard,5.0,2.0,1.0,
751,0.0,increament,0.6,100.0,standard,5.0,2.0,1.0,
752,0.0,increament,0.6,100.0,standard,5.0,2.0,1.0,
753,0.0,increament,0.6,100.0,standard,5.0,2.0,1.0,
754,0.0,increament,0.6,100.0,standard,5.0,2.0,1.0,
755,0.0,increament,0.84,140.0,oddball,7.0,2.0,0.0,
756,0.0,increament,0.6,100.0,standard,5.0,2.0,1.0,
757,0.0,increament,0.6,100.0,standard,5.0,2.0,1.0,
758,0.0,increament,0.6,100.0,standard,5.0,2.0,1.0,
759,0.0,increament,0.6,100.0,standard,5.0,2.0,1.0,
760,0.0,increament,0.6,100.0,standard,5.0,2.0,1.0,
761,0.0,increament,0.6,100.0,standard,5.0,2.0,1.0,
762,0.0,increament,0.72,120.0,oddball,6.0,2.0,0.0,
763,0.0,increament,0.6,100.0,standard,5.0,2.0,1.0,
764,0.0,increament,0.6,100.0,standard,5.0,2.0,1.0,
765,0.0,increament,0.6,100.0,standard,5.0,2.0,1.0,
766,0.0,increament,0.6,100.0,standard,5.0,2.0,1.0,
767,0.0,increament,0.6,100.0,standard,5.0,2.0,1.0,
768,0.0,increament,0.6,100.0,standard,5.0,2.0,1.0,
769,0.0,increament,0.6,100.0,standard,5.0,2.0,1.0,
770,0.0,increament,0.6,100.0,standard,5.0,2.0,1.0,
771,0.0,increament,0.6,100.0,standard,5.0,2.0,1.0,
772,0.0,increament,0.96,160.0,oddball,8.0,2.0,1.0,0.2457562000490725
773,0.0,increament,0.6,100.0,standard,5.0,2.0,1.0,
774,0.0,increament,0.6,100.0,standard,5.0,2.0,1.0,
775,0.0,increament,0.6,100.0,standard,5.0,2.0,1.0,
776,0.0,increament,0.6,100.0,standard,5.0,2.0,1.0,
777,0.0,increament,0.6,100.0,standard,5.0,2.0,1.0,
778,0.0,increament,0.6,100.0,standard,5.0,2.0,1.0,
779,0.0,increament,0.6,100.0,standard,5.0,2.0,1.0,
780,0.0,decreament,0.6,100.0,standard,1.0,2.0,1.0,
781,0.0,decreament,0.6,100.0,standard,1.0,2.0,1.0,
782,0.0,decreament,0.6,100.0,standard,1.0,2.0,1.0,
783,0.0,decreament,0.6,100.0,standard,1.0,2.0,1.0,
784,0.0,decreament,0.6,100.0,standard,1.0,2.0,1.0,
785,0.0,decreament,0.6,100.0,standard,1.0,2.0,1.0,
786,0.0,decreament,0.6,100.0,standard,1.0,2.0,1.0,
787,0.0,decreament,0.6,100.0,standard,1.0,2.0,1.0,
788,0.0,decreament,0.6,100.0,standard,1.0,2.0,1.0,
789,0.0,decreament,0.6,100.0,standard,1.0,2.0,1.0,
790,0.0,decreament,0.6,100.0,standard,1.0,2.0,1.0,
791,0.0,decreament,0.6,100.0,standard,1.0,2.0,1.0,
792,0.0,decreament,0.6,100.0,standard,1.0,2.0,1.0,
793,0.0,decreament,0.6,100.0,standard,1.0,2.0,1.0,
794,0.0,decreament,0.6,100.0,standard,1.0,2.0,1.0,
795,0.0,decreament,0.6,100.0,standard,1.0,2.0,1.0,
796,0.0,decreament,0.6,100.0,standard,1.0,2.0,1.0,
797,0.0,decreament,0.6,100.0,standard,1.0,2.0,1.0,
798,0.0,decreament,0.36,60.0,oddball,3.0,2.0,1.0,0.5839848001487553
799,0.0,decreament,0.6,100.0,standard,1.0,2.0,1.0,
800,0.0,decreament,0.6,100.0,standard,1.0,2.0,1.0,
801,0.0,decreament,0.6,100.0,standard,1.0,2.0,1.0,
802,0.0,decreament,0.6,100.0,standard,1.0,2.0,1.0,
803,0.0,decreament,0.24,40.0,oddball,2.0,2.0,1.0,0.5661094998940825
804,0.0,decreament,0.6,100.0,standard,1.0,2.0,1.0,
805,0.0,decreament,0.6,100.0,standard,1.0,2.0,1.0,
806,0.0,decreament,0.6,100.0,standard,1.0,2.0,1.0,
807,0.0,decreament,0.48,80.0,oddball,4.0,2.0,0.0,
808,0.0,decreament,0.6,100.0,standard,1.0,2.0,1.0,
809,0.0,decreament,0.6,100.0,standard,1.0,2.0,1.0,
810,0.0,increament,0.6,100.0,standard,5.0,2.0,1.0,
811,0.0,increament,0.6,100.0,standard,5.0,2.0,1.0,
812,0.0,increament,0.6,100.0,standard,5.0,2.0,1.0,
813,0.0,increament,0.6,100.0,standard,5.0,2.0,1.0,
814,0.0,increament,0.6,100.0,standard,5.0,2.0,1.0,
815,0.0,increament,0.6,100.0,standard,5.0,2.0,1.0,
816,0.0,increament,0.6,100.0,standard,5.0,2.0,1.0,
817,0.0,increament,0.6,100.0,standard,5.0,2.0,1.0,
818,0.0,increament,0.6,100.0,standard,5.0,2.0,1.0,
819,0.0,increament,0.6,100.0,standard,5.0,2.0,1.0,
820,0.0,increament,0.6,100.0,standard,5.0,2.0,1.0,
821,0.0,increament,0.6,100.0,standard,5.0,2.0,1.0,
822,0.0,increament,0.6,100.0,standard,5.0,2.0,1.0,
823,0.0,increament,0.84,140.0,oddball,7.0,2.0,0.0,
824,0.0,increament,0.6,100.0,standard,5.0,2.0,1.0,
825,0.0,increament,0.6,100.0,standard,5.0,2.0,1.0,
826,0.0,increament,0.6,100.0,standard,5.0,2.0,1.0,
827,0.0,increament,0.6,100.0,standard,5.0,2.0,1.0,
828,0.0,increament,0.6,100.0,standard,5.0,2.0,1.0,
829,0.0,increament,0.6,100.0,standard,5.0,2.0,1.0,
830,0.0,increament,0.6,100.0,standard,5.0,2.0,1.0,
831,0.0,increament,0.6,100.0,standard,5.0,2.0,1.0,
832,0.0,increament,0.6,100.0,standard,5.0,2.0,1.0,
833,0.0,increament,0.6,100.0,standard,5.0,2.0,1.0,
834,0.0,increament,0.72,120.0,oddball,6.0,2.0,0.0,
835,0.0,increament,0.6,100.0,standard,5.0,2.0,1.0,
836,0.0,increament,0.6,100.0,standard,5.0,2.0,1.0,
837,0.0,increament,0.6,100.0,standard,5.0,2.0,1.0,
838,0.0,increament,0.6,100.0,standard,5.0,2.0,1.0,
839,0.0,increament,0.96,160.0,oddball,8.0,2.0,1.0,0.2105716997757554
840,0.0,decreament,0.6,100.0,standard,1.0,2.0,1.0,
841,0.0,decreament,0.6,100.0,standard,1.0,2.0,1.0,
842,0.0,decreament,0.6,100.0,standard,1.0,2.0,1.0,
843,0.0,decreament,0.6,100.0,standard,1.0,2.0,1.0,
844,0.0,decreament,0.6,100.0,standard,1.0,2.0,1.0,
845,0.0,decreament,0.6,100.0,standard,1.0,2.0,1.0,
846,0.0,decreament,0.6,100.0,standard,1.0,2.0,1.0,
847,0.0,decreament,0.6,100.0,standard,1.0,2.0,1.0,
848,0.0,decreament,0.6,100.0,standard,1.0,2.0,1.0,
849,0.0,decreament,0.6,100.0,standard,1.0,2.0,1.0,
850,0.0,decreament,0.6,100.0,standard,1.0,2.0,1.0,
851,0.0,decreament,0.48,80.0,oddball,4.0,2.0,0.0,
852,0.0,decreament,0.6,100.0,standard,1.0,2.0,1.0,
853,0.0,decreament,0.6,100.0,standard,1.0,2.0,1.0,
854,0.0,decreament,0.6,100.0,standard,1.0,2.0,1.0,
855,0.0,decreament,0.6,100.0,standard,1.0,2.0,1.0,
856,0.0,decreament,0.6,100.0,standard,1.0,2.0,1.0,
857,0.0,decreament,0.6,100.0,standard,1.0,2.0,1.0,
858,0.0,decreament,0.36,60.0,oddball,3.0,2.0,1.0,1.5387766999192536
859,0.0,decreament,0.6,100.0,standard,1.0,2.0,1.0,
860,0.0,decreament,0.6,100.0,standard,1.0,2.0,1.0,
861,0.0,decreament,0.6,100.0,standard,1.0,2.0,1.0,
862,0.0,decreament,0.6,100.0,standard,1.0,2.0,1.0,
863,0.0,decreament,0.6,100.0,standard,1.0,2.0,1.0,
864,0.0,decreament,0.6,100.0,standard,1.0,2.0,1.0,
865,0.0,decreament,0.6,100.0,standard,1.0,2.0,1.0,
866,0.0,decreament,0.6,100.0,standard,1.0,2.0,1.0,
867,0.0,decreament,0.6,100.0,standard,1.0,2.0,1.0,
868,0.0,decreament,0.6,100.0,standard,1.0,2.0,1.0,
869,0.0,decreament,0.24,40.0,oddball,2.0,2.0,1.0,0.5828857999294996
870,0.0,increament,0.6,100.0,standard,5.0,2.0,1.0,
871,0.0,increament,0.6,100.0,standard,5.0,2.0,1.0,
872,0.0,increament,0.6,100.0,standard,5.0,2.0,1.0,
873,0.0,increament,0.6,100.0,standard,5.0,2.0,1.0,
874,0.0,increament,0.6,100.0,standard,5.0,2.0,1.0,
875,0.0,increament,0.6,100.0,standard,5.0,2.0,1.0,
876,0.0,increament,0.6,100.0,standard,5.0,2.0,1.0,
877,0.0,increament,0.72,120.0,oddball,6.0,2.0,0.0,
878,0.0,increament,0.6,100.0,standard,5.0,2.0,1.0,
879,0.0,increament,0.6,100.0,standard,5.0,2.0,1.0,
880,0.0,increament,0.6,100.0,standard,5.0,2.0,1.0,
881,0.0,increament,0.84,140.0,oddball,7.0,2.0,0.0,
882,0.0,increament,0.6,100.0,standard,5.0,2.0,1.0,
883,0.0,increament,0.6,100.0,standard,5.0,2.0,1.0,
884,0.0,increament,0.6,100.0,standard,5.0,2.0,1.0,
885,0.0,increament,0.6,100.0,standard,5.0,2.0,1.0,
886,0.0,increament,0.6,100.0,standard,5.0,2.0,1.0,
887,0.0,increament,0.6,100.0,standard,5.0,2.0,1.0,
888,0.0,increament,0.6,100.0,standard,5.0,2.0,1.0,
889,0.0,increament,0.6,100.0,standard,5.0,2.0,1.0,
890,0.0,increament,0.6,100.0,standard,5.0,2.0,1.0,
891,0.0,increament,0.6,100.0,standard,5.0,2.0,1.0,
892,0.0,increament,0.6,100.0,standard,5.0,2.0,1.0,
893,0.0,increament,0.6,100.0,standard,5.0,2.0,1.0,
894,0.0,increament,0.6,100.0,standard,5.0,2.0,1.0,
895,0.0,increament,0.6,100.0,standard,5.0,2.0,1.0,
896,0.0,increament,0.6,100.0,standard,5.0,2.0,1.0,
897,0.0,increament,0.96,160.0,oddball,8.0,2.0,1.0,0.2113336999900639
898,0.0,increament,0.6,100.0,standard,5.0,2.0,1.0,
899,0.0,increament,0.6,100.0,standard,5.0,2.0,1.0,
900,10.0,decreament,0.6,100.0,standard,21.0,3.0,1.0,
901,10.0,decreament,0.6,100.0,standard,21.0,3.0,1.0,
902,10.0,decreament,0.6,100.0,standard,21.0,3.0,1.0,
903,10.0,decreament,0.6,100.0,standard,21.0,3.0,1.0,
904,10.0,decreament,0.6,100.0,standard,21.0,3.0,1.0,
905,10.0,decreament,0.6,100.0,standard,21.0,3.0,1.0,
906,10.0,decreament,0.6,100.0,standard,21.0,3.0,1.0,
907,10.0,decreament,0.6,100.0,standard,21.0,3.0,1.0,
908,10.0,decreament,0.48,80.0,oddball,24.0,3.0,1.0,1.0390420001931489
909,10.0,decreament,0.6,100.0,standard,21.0,3.0,1.0,
910,10.0,decreament,0.6,100.0,standard,21.0,3.0,1.0,
911,10.0,decreament,0.6,100.0,standard,21.0,3.0,1.0,
912,10.0,decreament,0.6,100.0,standard,21.0,3.0,1.0,
913,10.0,decreament,0.6,100.0,standard,21.0,3.0,1.0,
914,10.0,decreament,0.6,100.0,standard,21.0,3.0,1.0,
915,10.0,decreament,0.6,100.0,standard,21.0,3.0,1.0,
916,10.0,decreament,0.6,100.0,standard,21.0,3.0,1.0,
917,10.0,decreament,0.6,100.0,standard,21.0,3.0,1.0,
918,10.0,decreament,0.24,40.0,oddball,22.0,3.0,1.0,0.6350271999835968
919,10.0,decreament,0.6,100.0,standard,21.0,3.0,1.0,
920,10.0,decreament,0.6,100.0,standard,21.0,3.0,1.0,
921,10.0,decreament,0.6,100.0,standard,21.0,3.0,1.0,
922,10.0,decreament,0.6,100.0,standard,21.0,3.0,1.0,
923,10.0,decreament,0.6,100.0,standard,21.0,3.0,1.0,
924,10.0,decreament,0.6,100.0,standard,21.0,3.0,1.0,
925,10.0,decreament,0.6,100.0,standard,21.0,3.0,1.0,
926,10.0,decreament,0.6,100.0,standard,21.0,3.0,1.0,
927,10.0,decreament,0.6,100.0,standard,21.0,3.0,1.0,
928,10.0,decreament,0.36,60.0,oddball,23.0,3.0,1.0,0.7228558002971113
929,10.0,decreament,0.6,100.0,standard,21.0,3.0,1.0,
930,10.0,increament,0.6,100.0,standard,25.0,3.0,1.0,
931,10.0,increament,0.6,100.0,standard,25.0,3.0,1.0,
932,10.0,increament,0.6,100.0,standard,25.0,3.0,1.0,
933,10.0,increament,0.6,100.0,standard,25.0,3.0,1.0,
934,10.0,increament,0.6,100.0,standard,25.0,3.0,1.0,
935,10.0,increament,0.6,100.0,standard,25.0,3.0,1.0,
936,10.0,increament,0.6,100.0,standard,25.0,3.0,1.0,
937,10.0,increament,0.6,100.0,standard,25.0,3.0,1.0,
938,10.0,increament,0.6,100.0,standard,25.0,3.0,1.0,
939,10.0,increament,0.6,100.0,standard,25.0,3.0,0.0,0.4733624001964926
940,10.0,increament,0.6,100.0,standard,25.0,3.0,1.0,
941,10.0,increament,0.6,100.0,standard,25.0,3.0,1.0,
942,10.0,increament,0.6,100.0,standard,25.0,3.0,1.0,
943,10.0,increament,0.84,140.0,oddball,27.0,3.0,1.0,0.5643284004181623
944,10.0,increament,0.6,100.0,standard,25.0,3.0,1.0,
945,10.0,increament,0.6,100.0,standard,25.0,3.0,1.0,
946,10.0,increament,0.6,100.0,standard,25.0,3.0,1.0,
947,10.0,increament,0.6,100.0,standard,25.0,3.0,0.0,1.2834966001100838
948,10.0,increament,0.6,100.0,standard,25.0,3.0,1.0,
949,10.0,increament,0.72,120.0,oddball,26.0,3.0,1.0,0.6247113002464175
950,10.0,increament,0.6,100.0,standard,25.0,3.0,1.0,
951,10.0,increament,0.6,100.0,standard,25.0,3.0,1.0,
952,10.0,increament,0.6,100.0,standard,25.0,3.0,1.0,
953,10.0,increament,0.6,100.0,standard,25.0,3.0,1.0,
954,10.0,increament,0.6,100.0,standard,25.0,3.0,1.0,
955,10.0,increament,0.6,100.0,standard,25.0,3.0,0.0,1.149775800295174
956,10.0,increament,0.6,100.0,standard,25.0,3.0,1.0,
957,10.0,increament,0.6,100.0,standard,25.0,3.0,1.0,
958,10.0,increament,0.96,160.0,oddball,28.0,3.0,1.0,0.3514314000494778
959,10.0,increament,0.6,100.0,standard,25.0,3.0,1.0,
960,10.0,decreament,0.6,100.0,standard,21.0,3.0,1.0,
961,10.0,decreament,0.6,100.0,standard,21.0,3.0,1.0,
962,10.0,decreament,0.6,100.0,standard,21.0,3.0,1.0,
963,10.0,decreament,0.6,100.0,standard,21.0,3.0,1.0,
964,10.0,decreament,0.6,100.0,standard,21.0,3.0,1.0,
965,10.0,decreament,0.6,100.0,standard,21.0,3.0,1.0,
966,10.0,decreament,0.6,100.0,standard,21.0,3.0,1.0,
967,10.0,decreament,0.36,60.0,oddball,23.0,3.0,1.0,0.7051663999445736
968,10.0,decreament,0.6,100.0,standard,21.0,3.0,1.0,
969,10.0,decreament,0.6,100.0,standard,21.0,3.0,1.0,
970,10.0,decreament,0.6,100.0,standard,21.0,3.0,1.0,
971,10.0,decreament,0.6,100.0,standard,21.0,3.0,1.0,
972,10.0,decreament,0.6,100.0,standard,21.0,3.0,1.0,
973,10.0,decreament,0.6,100.0,standard,21.0,3.0,1.0,
974,10.0,decreament,0.6,100.0,standard,21.0,3.0,1.0,
975,10.0,decreament,0.6,100.0,standard,21.0,3.0,1.0,
976,10.0,decreament,0.6,100.0,standard,21.0,3.0,1.0,
977,10.0,decreament,0.6,100.0,standard,21.0,3.0,1.0,
978,10.0,decreament,0.6,100.0,standard,21.0,3.0,0.0,1.3398778000846503
979,10.0,decreament,0.6,100.0,standard,21.0,3.0,1.0,
980,10.0,decreament,0.6,100.0,standard,21.0,3.0,1.0,
981,10.0,decreament,0.6,100.0,standard,21.0,3.0,1.0,
982,10.0,decreament,0.6,100.0,standard,21.0,3.0,1.0,
983,10.0,decreament,0.48,80.0,oddball,24.0,3.0,0.0,
984,10.0,decreament,0.6,100.0,standard,21.0,3.0,1.0,
985,10.0,decreament,0.6,100.0,standard,21.0,3.0,1.0,
986,10.0,decreament,0.6,100.0,standard,21.0,3.0,1.0,
987,10.0,decreament,0.24,40.0,oddball,22.0,3.0,1.0,0.7105654999613762
988,10.0,decreament,0.6,100.0,standard,21.0,3.0,1.0,
989,10.0,decreament,0.6,100.0,standard,21.0,3.0,1.0,
990,10.0,increament,0.6,100.0,standard,25.0,3.0,1.0,
991,10.0,increament,0.6,100.0,standard,25.0,3.0,1.0,
992,10.0,increament,0.6,100.0,standard,25.0,3.0,1.0,
993,10.0,increament,0.6,100.0,standard,25.0,3.0,1.0,
994,10.0,increament,0.6,100.0,standard,25.0,3.0,1.0,
995,10.0,increament,0.6,100.0,standard,25.0,3.0,1.0,
996,10.0,increament,0.6,100.0,standard,25.0,3.0,1.0,
997,10.0,increament,0.6,100.0,standard,25.0,3.0,1.0,
998,10.0,increament,0.6,100.0,standard,25.0,3.0,1.0,
999,10.0,increament,0.6,100.0,standard,25.0,3.0,1.0,
1000,10.0,increament,0.6,100.0,standard,25.0,3.0,1.0,
1001,10.0,increament,0.6,100.0,standard,25.0,3.0,1.0,
1002,10.0,increament,0.6,100.0,standard,25.0,3.0,1.0,
1003,10.0,increament,0.6,100.0,standard,25.0,3.0,1.0,
1004,10.0,increament,0.72,120.0,oddball,26.0,3.0,1.0,0.5807692003436387
1005,10.0,increament,0.6,100.0,standard,25.0,3.0,1.0,
1006,10.0,increament,0.6,100.0,standard,25.0,3.0,1.0,
1007,10.0,increament,0.6,100.0,standard,25.0,3.0,1.0,
1008,10.0,increament,0.6,100.0,standard,25.0,3.0,1.0,
1009,10.0,increament,0.96,160.0,oddball,28.0,3.0,1.0,0.3890483002178371
1010,10.0,increament,0.6,100.0,standard,25.0,3.0,1.0,
1011,10.0,increament,0.6,100.0,standard,25.0,3.0,0.0,0.9457282000221312
1012,10.0,increament,0.6,100.0,standard,25.0,3.0,1.0,
1013,10.0,increament,0.6,100.0,standard,25.0,3.0,1.0,
1014,10.0,increament,0.84,140.0,oddball,27.0,3.0,1.0,0.5494337999261916
1015,10.0,increament,0.6,100.0,standard,25.0,3.0,1.0,
1016,10.0,increament,0.6,100.0,standard,25.0,3.0,0.0,0.9869793001562356
1017,10.0,increament,0.6,100.0,standard,25.0,3.0,1.0,
1018,10.0,increament,0.6,100.0,standard,25.0,3.0,1.0,
1019,10.0,increament,0.6,100.0,standard,25.0,3.0,1.0,
1020,10.0,decreament,0.6,100.0,standard,21.0,3.0,1.0,
1021,10.0,decreament,0.6,100.0,standard,21.0,3.0,1.0,
1022,10.0,decreament,0.6,100.0,standard,21.0,3.0,1.0,
1023,10.0,decreament,0.6,100.0,standard,21.0,3.0,1.0,
1024,10.0,decreament,0.6,100.0,standard,21.0,3.0,1.0,
1025,10.0,decreament,0.6,100.0,standard,21.0,3.0,1.0,
1026,10.0,decreament,0.6,100.0,standard,21.0,3.0,1.0,
1027,10.0,decreament,0.6,100.0,standard,21.0,3.0,1.0,
1028,10.0,decreament,0.36,60.0,oddball,23.0,3.0,1.0,0.7076011002063751
1029,10.0,decreament,0.6,100.0,standard,21.0,3.0,1.0,
1030,10.0,decreament,0.6,100.0,standard,21.0,3.0,1.0,
1031,10.0,decreament,0.6,100.0,standard,21.0,3.0,1.0,
1032,10.0,decreament,0.6,100.0,standard,21.0,3.0,1.0,
1033,10.0,decreament,0.6,100.0,standard,21.0,3.0,1.0,
1034,10.0,decreament,0.24,40.0,oddball,22.0,3.0,1.0,0.7679972001351416
1035,10.0,decreament,0.6,100.0,standard,21.0,3.0,1.0,
1036,10.0,decreament,0.6,100.0,standard,21.0,3.0,1.0,
1037,10.0,decreament,0.6,100.0,standard,21.0,3.0,1.0,
1038,10.0,decreament,0.6,100.0,standard,21.0,3.0,1.0,
1039,10.0,decreament,0.6,100.0,standard,21.0,3.0,1.0,
1040,10.0,decreament,0.6,100.0,standard,21.0,3.0,1.0,
1041,10.0,decreament,0.6,100.0,standard,21.0,3.0,1.0,
1042,10.0,decreament,0.6,100.0,standard,21.0,3.0,1.0,
1043,10.0,decreament,0.6,100.0,standard,21.0,3.0,1.0,
1044,10.0,decreament,0.6,100.0,standard,21.0,3.0,1.0,
1045,10.0,decreament,0.6,100.0,standard,21.0,3.0,1.0,
1046,10.0,decreament,0.48,80.0,oddball,24.0,3.0,0.0,
1047,10.0,decreament,0.6,100.0,standard,21.0,3.0,1.0,
1048,10.0,decreament,0.6,100.0,standard,21.0,3.0,1.0,
1049,10.0,decreament,0.6,100.0,standard,21.0,3.0,1.0,
1050,10.0,increament,0.6,100.0,standard,25.0,3.0,1.0,
1051,10.0,increament,0.6,100.0,standard,25.0,3.0,1.0,
1052,10.0,increament,0.6,100.0,standard,25.0,3.0,1.0,
1053,10.0,increament,0.6,100.0,standard,25.0,3.0,1.0,
1054,10.0,increament,0.6,100.0,standard,25.0,3.0,1.0,
1055,10.0,increament,0.6,100.0,standard,25.0,3.0,1.0,
1056,10.0,increament,0.6,100.0,standard,25.0,3.0,1.0,
1057,10.0,increament,0.6,100.0,standard,25.0,3.0,1.0,
1058,10.0,increament,0.84,140.0,oddball,27.0,3.0,0.0,
1059,10.0,increament,0.6,100.0,standard,25.0,3.0,1.0,
1060,10.0,increament,0.6,100.0,standard,25.0,3.0,1.0,
1061,10.0,increament,0.6,100.0,standard,25.0,3.0,1.0,
1062,10.0,increament,0.6,100.0,standard,25.0,3.0,1.0,
1063,10.0,increament,0.6,100.0,standard,25.0,3.0,1.0,
1064,10.0,increament,0.6,100.0,standard,25.0,3.0,0.0,1.1796583998948336
1065,10.0,increament,0.6,100.0,standard,25.0,3.0,1.0,
1066,10.0,increament,0.6,100.0,standard,25.0,3.0,1.0,
1067,10.0,increament,0.6,100.0,standard,25.0,3.0,1.0,
1068,10.0,increament,0.6,100.0,standard,25.0,3.0,1.0,
1069,10.0,increament,0.6,100.0,standard,25.0,3.0,1.0,
1070,10.0,increament,0.6,100.0,standard,25.0,3.0,1.0,
1071,10.0,increament,0.72,120.0,oddball,26.0,3.0,0.0,
1072,10.0,increament,0.6,100.0,standard,25.0,3.0,1.0,
1073,10.0,increament,0.6,100.0,standard,25.0,3.0,1.0,
1074,10.0,increament,0.6,100.0,standard,25.0,3.0,1.0,
1075,10.0,increament,0.96,160.0,oddball,28.0,3.0,1.0,0.4015575000084936
1076,10.0,increament,0.6,100.0,standard,25.0,3.0,1.0,
1077,10.0,increament,0.6,100.0,standard,25.0,3.0,1.0,
1078,10.0,increament,0.6,100.0,standard,25.0,3.0,1.0,
1079,10.0,increament,0.6,100.0,standard,25.0,3.0,1.0,
1080,10.0,decreament,0.6,100.0,standard,21.0,3.0,1.0,
1081,10.0,decreament,0.6,100.0,standard,21.0,3.0,1.0,
1082,10.0,decreament,0.6,100.0,standard,21.0,3.0,1.0,
1083,10.0,decreament,0.6,100.0,standard,21.0,3.0,1.0,
1084,10.0,decreament,0.6,100.0,standard,21.0,3.0,1.0,
1085,10.0,decreament,0.6,100.0,standard,21.0,3.0,1.0,
1086,10.0,decreament,0.6,100.0,standard,21.0,3.0,1.0,
1087,10.0,decreament,0.6,100.0,standard,21.0,3.0,1.0,
1088,10.0,decreament,0.6,100.0,standard,21.0,3.0,1.0,
1089,10.0,decreament,0.6,100.0,standard,21.0,3.0,1.0,
1090,10.0,decreament,0.24,40.0,oddball,22.0,3.0,1.0,0.8039389001205564
1091,10.0,decreament,0.6,100.0,standard,21.0,3.0,1.0,
1092,10.0,decreament,0.6,100.0,standard,21.0,3.0,1.0,
1093,10.0,decreament,0.6,100.0,standard,21.0,3.0,1.0,
1094,10.0,decreament,0.6,100.0,standard,21.0,3.0,1.0,
1095,10.0,decreament,0.6,100.0,standard,21.0,3.0,1.0,
1096,10.0,decreament,0.6,100.0,standard,21.0,3.0,1.0,
1097,10.0,decreament,0.6,100.0,standard,21.0,3.0,1.0,
1098,10.0,decreament,0.6,100.0,standard,21.0,3.0,1.0,
1099,10.0,decreament,0.6,100.0,standard,21.0,3.0,1.0,
1100,10.0,decreament,0.6,100.0,standard,21.0,3.0,1.0,
1101,10.0,decreament,0.6,100.0,standard,21.0,3.0,1.0,
1102,10.0,decreament,0.6,100.0,standard,21.0,3.0,1.0,
1103,10.0,decreament,0.6,100.0,standard,21.0,3.0,1.0,
1104,10.0,decreament,0.36,60.0,oddball,23.0,3.0,1.0,0.6198120997287333
1105,10.0,decreament,0.6,100.0,standard,21.0,3.0,1.0,
1106,10.0,decreament,0.6,100.0,standard,21.0,3.0,1.0,
1107,10.0,decreament,0.6,100.0,standard,21.0,3.0,1.0,
1108,10.0,decreament,0.6,100.0,standard,21.0,3.0,1.0,
1109,10.0,decreament,0.48,80.0,oddball,24.0,3.0,0.0,
1110,10.0,increament,0.6,100.0,standard,25.0,3.0,1.0,
1111,10.0,increament,0.6,100.0,standard,25.0,3.0,1.0,
1112,10.0,increament,0.6,100.0,standard,25.0,3.0,1.0,
1113,10.0,increament,0.6,100.0,standard,25.0,3.0,1.0,
1114,10.0,increament,0.6,100.0,standard,25.0,3.0,1.0,
1115,10.0,increament,0.6,100.0,standard,25.0,3.0,1.0,
1116,10.0,increament,0.6,100.0,standard,25.0,3.0,1.0,
1117,10.0,increament,0.6,100.0,standard,25.0,3.0,1.0,
1118,10.0,increament,0.6,100.0,standard,25.0,3.0,1.0,
1119,10.0,increament,0.6,100.0,standard,25.0,3.0,1.0,
1120,10.0,increament,0.6,100.0,standard,25.0,3.0,1.0,
1121,10.0,increament,0.6,100.0,standard,25.0,3.0,1.0,
1122,10.0,increament,0.6,100.0,standard,25.0,3.0,1.0,
1123,10.0,increament,0.6,100.0,standard,25.0,3.0,1.0,
1124,10.0,increament,0.6,100.0,standard,25.0,3.0,1.0,
1125,10.0,increament,0.72,120.0,oddball,26.0,3.0,0.0,
1126,10.0,increament,0.6,100.0,standard,25.0,3.0,1.0,
1127,10.0,increament,0.6,100.0,standard,25.0,3.0,1.0,
1128,10.0,increament,0.6,100.0,standard,25.0,3.0,1.0,
1129,10.0,increament,0.6,100.0,standard,25.0,3.0,1.0,
1130,10.0,increament,0.6,100.0,standard,25.0,3.0,1.0,
1131,10.0,increament,0.96,160.0,oddball,28.0,3.0,1.0,0.3085018000565469
1132,10.0,increament,0.6,100.0,standard,25.0,3.0,1.0,
1133,10.0,increament,0.6,100.0,standard,25.0,3.0,1.0,
1134,10.0,increament,0.6,100.0,standard,25.0,3.0,1.0,
1135,10.0,increament,0.84,140.0,oddball,27.0,3.0,1.0,0.444249200168997
1136,10.0,increament,0.6,100.0,standard,25.0,3.0,1.0,
1137,10.0,increament,0.6,100.0,standard,25.0,3.0,1.0,
1138,10.0,increament,0.6,100.0,standard,25.0,3.0,1.0,
1139,10.0,increament,0.6,100.0,standard,25.0,3.0,1.0,
1140,10.0,decreament,0.6,100.0,standard,21.0,3.0,1.0,
1141,10.0,decreament,0.6,100.0,standard,21.0,3.0,1.0,
1142,10.0,decreament,0.6,100.0,standard,21.0,3.0,1.0,
1143,10.0,decreament,0.6,100.0,standard,21.0,3.0,1.0,
1144,10.0,decreament,0.6,100.0,standard,21.0,3.0,1.0,
1145,10.0,decreament,0.48,80.0,oddball,24.0,3.0,0.0,
1146,10.0,decreament,0.6,100.0,standard,21.0,3.0,1.0,
1147,10.0,decreament,0.6,100.0,standard,21.0,3.0,1.0,
1148,10.0,decreament,0.6,100.0,standard,21.0,3.0,1.0,
1149,10.0,decreament,0.6,100.0,standard,21.0,3.0,1.0,
1150,10.0,decreament,0.6,100.0,standard,21.0,3.0,1.0,
1151,10.0,decreament,0.6,100.0,standard,21.0,3.0,1.0,
1152,10.0,decreament,0.6,100.0,standard,21.0,3.0,1.0,
1153,10.0,decreament,0.6,100.0,standard,21.0,3.0,1.0,
1154,10.0,decreament,0.24,40.0,oddball,22.0,3.0,1.0,0.5997452004812658
1155,10.0,decreament,0.6,100.0,standard,21.0,3.0,1.0,
1156,10.0,decreament,0.6,100.0,standard,21.0,3.0,1.0,
1157,10.0,decreament,0.6,100.0,standard,21.0,3.0,1.0,
1158,10.0,decreament,0.6,100.0,standard,21.0,3.0,1.0,
1159,10.0,decreament,0.6,100.0,standard,21.0,3.0,1.0,
1160,10.0,decreament,0.6,100.0,standard,21.0,3.0,1.0,
1161,10.0,decreament,0.6,100.0,standard,21.0,3.0,1.0,
1162,10.0,decreament,0.6,100.0,standard,21.0,3.0,1.0,
1163,10.0,decreament,0.6,100.0,standard,21.0,3.0,1.0,
1164,10.0,decreament,0.6,100.0,standard,21.0,3.0,1.0,
1165,10.0,decreament,0.36,60.0,oddball,23.0,3.0,1.0,0.5759065002202988
1166,10.0,decreament,0.6,100.0,standard,21.0,3.0,1.0,
1167,10.0,decreament,0.6,100.0,standard,21.0,3.0,1.0,
1168,10.0,decreament,0.6,100.0,standard,21.0,3.0,1.0,
1169,10.0,decreament,0.6,100.0,standard,21.0,3.0,1.0,
1170,10.0,increament,0.6,100.0,standard,25.0,3.0,1.0,
1171,10.0,increament,0.6,100.0,standard,25.0,3.0,1.0,
1172,10.0,increament,0.6,100.0,standard,25.0,3.0,1.0,
1173,10.0,increament,0.6,100.0,standard,25.0,3.0,1.0,
1174,10.0,increament,0.6,100.0,standard,25.0,3.0,1.0,
1175,10.0,increament,0.6,100.0,standard,25.0,3.0,1.0,
1176,10.0,increament,0.6,100.0,standard,25.0,3.0,1.0,
1177,10.0,increament,0.6,100.0,standard,25.0,3.0,1.0,
1178,10.0,increament,0.6,100.0,standard,25.0,3.0,1.0,
1179,10.0,increament,0.96,160.0,oddball,28.0,3.0,1.0,1.1483600004576149
1180,10.0,increament,0.6,100.0,standard,25.0,3.0,1.0,
1181,10.0,increament,0.6,100.0,standard,25.0,3.0,1.0,
1182,10.0,increament,0.6,100.0,standard,25.0,3.0,1.0,
1183,10.0,increament,0.6,100.0,standard,25.0,3.0,1.0,
1184,10.0,increament,0.84,140.0,oddball,27.0,3.0,0.0,
1185,10.0,increament,0.6,100.0,standard,25.0,3.0,1.0,
1186,10.0,increament,0.6,100.0,standard,25.0,3.0,1.0,
1187,10.0,increament,0.6,100.0,standard,25.0,3.0,1.0,
1188,10.0,increament,0.6,100.0,standard,25.0,3.0,1.0,
1189,10.0,increament,0.6,100.0,standard,25.0,3.0,1.0,
1190,10.0,increament,0.6,100.0,standard,25.0,3.0,1.0,
1191,10.0,increament,0.6,100.0,standard,25.0,3.0,1.0,
1192,10.0,increament,0.6,100.0,standard,25.0,3.0,1.0,
1193,10.0,increament,0.6,100.0,standard,25.0,3.0,1.0,
1194,10.0,increament,0.6,100.0,standard,25.0,3.0,1.0,
1195,10.0,increament,0.6,100.0,standard,25.0,3.0,1.0,
1196,10.0,increament,0.6,100.0,standard,25.0,3.0,1.0,
1197,10.0,increament,0.6,100.0,standard,25.0,3.0,1.0,
1198,10.0,increament,0.6,100.0,standard,25.0,3.0,1.0,
1199,10.0,increament,0.72,120.0,oddball,26.0,3.0,0.0,
