,grating_freq,direction,duration,scaling,stim_type,trigger,blocks.thisN,resp.corr,resp.rt
0,10.0,decreament,0.6,100.0,standard,21.0,0.0,1.0,
1,10.0,decreament,0.6,100.0,standard,21.0,0.0,1.0,
2,10.0,decreament,0.6,100.0,standard,21.0,0.0,1.0,
3,10.0,decreament,0.6,100.0,standard,21.0,0.0,1.0,
4,10.0,decreament,0.6,100.0,standard,21.0,0.0,1.0,
5,10.0,decreament,0.6,100.0,standard,21.0,0.0,1.0,
6,10.0,decreament,0.6,100.0,standard,21.0,0.0,1.0,
7,10.0,decreament,0.6,100.0,standard,21.0,0.0,1.0,
8,10.0,decreament,0.6,100.0,standard,21.0,0.0,1.0,
9,10.0,decreament,0.6,100.0,standard,21.0,0.0,0.0,0.6189747997559607
10,10.0,decreament,0.24,40.0,oddball,22.0,0.0,1.0,0.5125326998531818
11,10.0,decreament,0.6,100.0,standard,21.0,0.0,1.0,
12,10.0,decreament,0.6,100.0,standard,21.0,0.0,1.0,
13,10.0,decreament,0.6,100.0,standard,21.0,0.0,1.0,
14,10.0,decreament,0.48,80.0,oddball,24.0,0.0,1.0,1.1185096998233348
15,10.0,decreament,0.6,100.0,standard,21.0,0.0,1.0,
16,10.0,decreament,0.6,100.0,standard,21.0,0.0,1.0,
17,10.0,decreament,0.6,100.0,standard,21.0,0.0,1.0,
18,10.0,decreament,0.6,100.0,standard,21.0,0.0,1.0,
19,10.0,decreament,0.6,100.0,standard,21.0,0.0,1.0,
20,10.0,decreament,0.6,100.0,standard,21.0,0.0,1.0,
21,10.0,decreament,0.6,100.0,standard,21.0,0.0,1.0,
22,10.0,decreament,0.6,100.0,standard,21.0,0.0,1.0,
23,10.0,decreament,0.36,60.0,oddball,23.0,0.0,1.0,0.478411499876529
24,10.0,decreament,0.6,100.0,standard,21.0,0.0,1.0,
25,10.0,decreament,0.6,100.0,standard,21.0,0.0,1.0,
26,10.0,decreament,0.6,100.0,standard,21.0,0.0,1.0,
27,10.0,decreament,0.6,100.0,standard,21.0,0.0,1.0,
28,10.0,decreament,0.6,100.0,standard,21.0,0.0,1.0,
29,10.0,decreament,0.6,100.0,standard,21.0,0.0,1.0,
30,10.0,increament,0.6,100.0,standard,25.0,0.0,1.0,
31,10.0,increament,0.6,100.0,standard,25.0,0.0,1.0,
32,10.0,increament,0.6,100.0,standard,25.0,0.0,1.0,
33,10.0,increament,0.6,100.0,standard,25.0,0.0,1.0,
34,10.0,increament,0.6,100.0,standard,25.0,0.0,1.0,
35,10.0,increament,0.6,100.0,standard,25.0,0.0,1.0,
36,10.0,increament,0.6,100.0,standard,25.0,0.0,1.0,
37,10.0,increament,0.6,100.0,standard,25.0,0.0,1.0,
38,10.0,increament,0.72,120.0,oddball,26.0,0.0,1.0,0.4288293998688459
39,10.0,increament,0.6,100.0,standard,25.0,0.0,1.0,
40,10.0,increament,0.6,100.0,standard,25.0,0.0,1.0,
41,10.0,increament,0.6,100.0,standard,25.0,0.0,1.0,
42,10.0,increament,0.6,100.0,standard,25.0,0.0,1.0,
43,10.0,increament,0.6,100.0,standard,25.0,0.0,1.0,
44,10.0,increament,0.6,100.0,standard,25.0,0.0,1.0,
45,10.0,increament,0.6,100.0,standard,25.0,0.0,1.0,
46,10.0,increament,0.6,100.0,standard,25.0,0.0,1.0,
47,10.0,increament,0.6,100.0,standard,25.0,0.0,1.0,
48,10.0,increament,0.84,140.0,oddball,27.0,0.0,1.0,0.4174579000100493
49,10.0,increament,0.6,100.0,standard,25.0,0.0,1.0,
50,10.0,increament,0.6,100.0,standard,25.0,0.0,1.0,
51,10.0,increament,0.6,100.0,standard,25.0,0.0,1.0,
52,10.0,increament,0.6,100.0,standard,25.0,0.0,1.0,
53,10.0,increament,0.6,100.0,standard,25.0,0.0,1.0,
54,10.0,increament,0.6,100.0,standard,25.0,0.0,1.0,
55,10.0,increament,0.96,160.0,oddball,28.0,0.0,1.0,0.3618043998721987
56,10.0,increament,0.6,100.0,standard,25.0,0.0,1.0,
57,10.0,increament,0.6,100.0,standard,25.0,0.0,1.0,
58,10.0,increament,0.6,100.0,standard,25.0,0.0,1.0,
59,10.0,increament,0.6,100.0,standard,25.0,0.0,1.0,
60,10.0,decreament,0.6,100.0,standard,21.0,0.0,1.0,
61,10.0,decreament,0.6,100.0,standard,21.0,0.0,1.0,
62,10.0,decreament,0.6,100.0,standard,21.0,0.0,1.0,
63,10.0,decreament,0.6,100.0,standard,21.0,0.0,1.0,
64,10.0,decreament,0.6,100.0,standard,21.0,0.0,1.0,
65,10.0,decreament,0.48,80.0,oddball,24.0,0.0,0.0,
66,10.0,decreament,0.6,100.0,standard,21.0,0.0,1.0,
67,10.0,decreament,0.6,100.0,standard,21.0,0.0,1.0,
68,10.0,decreament,0.6,100.0,standard,21.0,0.0,1.0,
69,10.0,decreament,0.6,100.0,standard,21.0,0.0,1.0,
70,10.0,decreament,0.6,100.0,standard,21.0,0.0,1.0,
71,10.0,decreament,0.6,100.0,standard,21.0,0.0,1.0,
72,10.0,decreament,0.36,60.0,oddball,23.0,0.0,1.0,0.5198619998991489
73,10.0,decreament,0.6,100.0,standard,21.0,0.0,1.0,
74,10.0,decreament,0.6,100.0,standard,21.0,0.0,1.0,
75,10.0,decreament,0.6,100.0,standard,21.0,0.0,1.0,
76,10.0,decreament,0.24,40.0,oddball,22.0,0.0,1.0,0.626919399946928
77,10.0,decreament,0.6,100.0,standard,21.0,0.0,1.0,
78,10.0,decreament,0.6,100.0,standard,21.0,0.0,1.0,
79,10.0,decreament,0.6,100.0,standard,21.0,0.0,1.0,
80,10.0,decreament,0.6,100.0,standard,21.0,0.0,1.0,
81,10.0,decreament,0.6,100.0,standard,21.0,0.0,1.0,
82,10.0,decreament,0.6,100.0,standard,21.0,0.0,1.0,
83,10.0,decreament,0.6,100.0,standard,21.0,0.0,1.0,
84,10.0,decreament,0.6,100.0,standard,21.0,0.0,1.0,
85,10.0,decreament,0.6,100.0,standard,21.0,0.0,0.0,0.7869155998341739
86,10.0,decreament,0.6,100.0,standard,21.0,0.0,0.0,0.4483225997537374
87,10.0,decreament,0.6,100.0,standard,21.0,0.0,0.0,0.6084692999720573
88,10.0,decreament,0.6,100.0,standard,21.0,0.0,1.0,
89,10.0,decreament,0.6,100.0,standard,21.0,0.0,0.0,0.5983169998507947
90,10.0,increament,0.6,100.0,standard,25.0,0.0,1.0,
91,10.0,increament,0.6,100.0,standard,25.0,0.0,1.0,
92,10.0,increament,0.6,100.0,standard,25.0,0.0,1.0,
93,10.0,increament,0.6,100.0,standard,25.0,0.0,1.0,
94,10.0,increament,0.6,100.0,standard,25.0,0.0,1.0,
95,10.0,increament,0.6,100.0,standard,25.0,0.0,0.0,0.9257811999414116
96,10.0,increament,0.96,160.0,oddball,28.0,0.0,1.0,0.3964883999433368
97,10.0,increament,0.6,100.0,standard,25.0,0.0,1.0,
98,10.0,increament,0.6,100.0,standard,25.0,0.0,1.0,
99,10.0,increament,0.6,100.0,standard,25.0,0.0,1.0,
100,10.0,increament,0.6,100.0,standard,25.0,0.0,1.0,
101,10.0,increament,0.6,100.0,standard,25.0,0.0,1.0,
102,10.0,increament,0.6,100.0,standard,25.0,0.0,1.0,
103,10.0,increament,0.72,120.0,oddball,26.0,0.0,0.0,
104,10.0,increament,0.6,100.0,standard,25.0,0.0,1.0,
105,10.0,increament,0.6,100.0,standard,25.0,0.0,1.0,
106,10.0,increament,0.6,100.0,standard,25.0,0.0,1.0,
107,10.0,increament,0.6,100.0,standard,25.0,0.0,1.0,
108,10.0,increament,0.6,100.0,standard,25.0,0.0,1.0,
109,10.0,increament,0.84,140.0,oddball,27.0,0.0,1.0,0.4658043999224901
110,10.0,increament,0.6,100.0,standard,25.0,0.0,1.0,
111,10.0,increament,0.6,100.0,standard,25.0,0.0,1.0,
112,10.0,increament,0.6,100.0,standard,25.0,0.0,1.0,
113,10.0,increament,0.6,100.0,standard,25.0,0.0,1.0,
114,10.0,increament,0.6,100.0,standard,25.0,0.0,1.0,
115,10.0,increament,0.6,100.0,standard,25.0,0.0,1.0,
116,10.0,increament,0.6,100.0,standard,25.0,0.0,1.0,
117,10.0,increament,0.6,100.0,standard,25.0,0.0,1.0,
118,10.0,increament,0.6,100.0,standard,25.0,0.0,1.0,
119,10.0,increament,0.6,100.0,standard,25.0,0.0,1.0,
120,10.0,decreament,0.6,100.0,standard,21.0,0.0,1.0,
121,10.0,decreament,0.6,100.0,standard,21.0,0.0,1.0,
122,10.0,decreament,0.6,100.0,standard,21.0,0.0,1.0,
123,10.0,decreament,0.6,100.0,standard,21.0,0.0,1.0,
124,10.0,decreament,0.6,100.0,standard,21.0,0.0,1.0,
125,10.0,decreament,0.6,100.0,standard,21.0,0.0,1.0,
126,10.0,decreament,0.24,40.0,oddball,22.0,0.0,1.0,0.4709797999821603
127,10.0,decreament,0.6,100.0,standard,21.0,0.0,1.0,
128,10.0,decreament,0.6,100.0,standard,21.0,0.0,1.0,
129,10.0,decreament,0.6,100.0,standard,21.0,0.0,1.0,
130,10.0,decreament,0.6,100.0,standard,21.0,0.0,1.0,
131,10.0,decreament,0.6,100.0,standard,21.0,0.0,1.0,
132,10.0,decreament,0.6,100.0,standard,21.0,0.0,1.0,
133,10.0,decreament,0.6,100.0,standard,21.0,0.0,0.0,1.837411099812016
134,10.0,decreament,0.6,100.0,standard,21.0,0.0,0.0,0.3498204997740686
135,10.0,decreament,0.6,100.0,standard,21.0,0.0,1.0,
136,10.0,decreament,0.6,100.0,standard,21.0,0.0,1.0,
137,10.0,decreament,0.6,100.0,standard,21.0,0.0,1.0,
138,10.0,decreament,0.48,80.0,oddball,24.0,0.0,0.0,
139,10.0,decreament,0.6,100.0,standard,21.0,0.0,1.0,
140,10.0,decreament,0.6,100.0,standard,21.0,0.0,0.0,1.5870022997260094
141,10.0,decreament,0.6,100.0,standard,21.0,0.0,0.0,0.8778866997454315
142,10.0,decreament,0.6,100.0,standard,21.0,0.0,0.0,0.7867866999004036
143,10.0,decreament,0.6,100.0,standard,21.0,0.0,0.0,0.7567423998843879
144,10.0,decreament,0.36,60.0,oddball,23.0,0.0,0.0,
145,10.0,decreament,0.6,100.0,standard,21.0,0.0,1.0,
146,10.0,decreament,0.6,100.0,standard,21.0,0.0,1.0,
147,10.0,decreament,0.6,100.0,standard,21.0,0.0,1.0,
148,10.0,decreament,0.6,100.0,standard,21.0,0.0,1.0,
149,10.0,decreament,0.6,100.0,standard,21.0,0.0,1.0,
150,10.0,increament,0.6,100.0,standard,25.0,0.0,1.0,
151,10.0,increament,0.6,100.0,standard,25.0,0.0,1.0,
152,10.0,increament,0.6,100.0,standard,25.0,0.0,1.0,
153,10.0,increament,0.6,100.0,standard,25.0,0.0,1.0,
154,10.0,increament,0.6,100.0,standard,25.0,0.0,1.0,
155,10.0,increament,0.84,140.0,oddball,27.0,0.0,0.0,
156,10.0,increament,0.6,100.0,standard,25.0,0.0,1.0,
157,10.0,increament,0.6,100.0,standard,25.0,0.0,1.0,
158,10.0,increament,0.6,100.0,standard,25.0,0.0,1.0,
159,10.0,increament,0.6,100.0,standard,25.0,0.0,1.0,
160,10.0,increament,0.6,100.0,standard,25.0,0.0,1.0,
161,10.0,increament,0.6,100.0,standard,25.0,0.0,1.0,
162,10.0,increament,0.6,100.0,standard,25.0,0.0,1.0,
163,10.0,increament,0.6,100.0,standard,25.0,0.0,1.0,
164,10.0,increament,0.6,100.0,standard,25.0,0.0,1.0,
165,10.0,increament,0.6,100.0,standard,25.0,0.0,1.0,
166,10.0,increament,0.72,120.0,oddball,26.0,0.0,1.0,0.7597216998692602
167,10.0,increament,0.6,100.0,standard,25.0,0.0,1.0,
168,10.0,increament,0.6,100.0,standard,25.0,0.0,1.0,
169,10.0,increament,0.6,100.0,standard,25.0,0.0,1.0,
170,10.0,increament,0.6,100.0,standard,25.0,0.0,1.0,
171,10.0,increament,0.96,160.0,oddball,28.0,0.0,1.0,1.2641324999276549
172,10.0,increament,0.6,100.0,standard,25.0,0.0,1.0,
173,10.0,increament,0.6,100.0,standard,25.0,0.0,1.0,
174,10.0,increament,0.6,100.0,standard,25.0,0.0,1.0,
175,10.0,increament,0.6,100.0,standard,25.0,0.0,1.0,
176,10.0,increament,0.6,100.0,standard,25.0,0.0,1.0,
177,10.0,increament,0.6,100.0,standard,25.0,0.0,1.0,
178,10.0,increament,0.6,100.0,standard,25.0,0.0,1.0,
179,10.0,increament,0.6,100.0,standard,25.0,0.0,1.0,
180,10.0,decreament,0.6,100.0,standard,21.0,0.0,1.0,
181,10.0,decreament,0.6,100.0,standard,21.0,0.0,1.0,
182,10.0,decreament,0.6,100.0,standard,21.0,0.0,1.0,
183,10.0,decreament,0.6,100.0,standard,21.0,0.0,1.0,
184,10.0,decreament,0.6,100.0,standard,21.0,0.0,1.0,
185,10.0,decreament,0.24,40.0,oddball,22.0,0.0,1.0,0.5541854999028146
186,10.0,decreament,0.6,100.0,standard,21.0,0.0,1.0,
187,10.0,decreament,0.6,100.0,standard,21.0,0.0,1.0,
188,10.0,decreament,0.6,100.0,standard,21.0,0.0,1.0,
189,10.0,decreament,0.6,100.0,standard,21.0,0.0,1.0,
190,10.0,decreament,0.6,100.0,standard,21.0,0.0,1.0,
191,10.0,decreament,0.6,100.0,standard,21.0,0.0,1.0,
192,10.0,decreament,0.6,100.0,standard,21.0,0.0,1.0,
193,10.0,decreament,0.48,80.0,oddball,24.0,0.0,0.0,
194,10.0,decreament,0.6,100.0,standard,21.0,0.0,1.0,
195,10.0,decreament,0.6,100.0,standard,21.0,0.0,1.0,
196,10.0,decreament,0.6,100.0,standard,21.0,0.0,1.0,
197,10.0,decreament,0.6,100.0,standard,21.0,0.0,1.0,
198,10.0,decreament,0.6,100.0,standard,21.0,0.0,1.0,
199,10.0,decreament,0.6,100.0,standard,21.0,0.0,1.0,
200,10.0,decreament,0.6,100.0,standard,21.0,0.0,1.0,
201,10.0,decreament,0.6,100.0,standard,21.0,0.0,1.0,
202,10.0,decreament,0.6,100.0,standard,21.0,0.0,1.0,
203,10.0,decreament,0.6,100.0,standard,21.0,0.0,1.0,
204,10.0,decreament,0.36,60.0,oddball,23.0,0.0,1.0,0.4154781997203827
205,10.0,decreament,0.6,100.0,standard,21.0,0.0,1.0,
206,10.0,decreament,0.6,100.0,standard,21.0,0.0,1.0,
207,10.0,decreament,0.6,100.0,standard,21.0,0.0,0.0,0.8882649997249246
208,10.0,decreament,0.6,100.0,standard,21.0,0.0,1.0,
209,10.0,decreament,0.6,100.0,standard,21.0,0.0,0.0,1.3132832997944206
210,10.0,increament,0.6,100.0,standard,25.0,0.0,1.0,
211,10.0,increament,0.6,100.0,standard,25.0,0.0,1.0,
212,10.0,increament,0.6,100.0,standard,25.0,0.0,1.0,
213,10.0,increament,0.6,100.0,standard,25.0,0.0,1.0,
214,10.0,increament,0.6,100.0,standard,25.0,0.0,1.0,
215,10.0,increament,0.84,140.0,oddball,27.0,0.0,1.0,0.944882599869743
216,10.0,increament,0.6,100.0,standard,25.0,0.0,1.0,
217,10.0,increament,0.6,100.0,standard,25.0,0.0,1.0,
218,10.0,increament,0.6,100.0,standard,25.0,0.0,1.0,
219,10.0,increament,0.96,160.0,oddball,28.0,0.0,1.0,0.8575338998343796
220,10.0,increament,0.6,100.0,standard,25.0,0.0,1.0,
221,10.0,increament,0.6,100.0,standard,25.0,0.0,1.0,
222,10.0,increament,0.6,100.0,standard,25.0,0.0,1.0,
223,10.0,increament,0.6,100.0,standard,25.0,0.0,1.0,
224,10.0,increament,0.6,100.0,standard,25.0,0.0,1.0,
225,10.0,increament,0.6,100.0,standard,25.0,0.0,1.0,
226,10.0,increament,0.6,100.0,standard,25.0,0.0,1.0,
227,10.0,increament,0.6,100.0,standard,25.0,0.0,1.0,
228,10.0,increament,0.6,100.0,standard,25.0,0.0,1.0,
229,10.0,increament,0.6,100.0,standard,25.0,0.0,1.0,
230,10.0,increament,0.6,100.0,standard,25.0,0.0,1.0,
231,10.0,increament,0.6,100.0,standard,25.0,0.0,1.0,
232,10.0,increament,0.6,100.0,standard,25.0,0.0,1.0,
233,10.0,increament,0.6,100.0,standard,25.0,0.0,1.0,
234,10.0,increament,0.6,100.0,standard,25.0,0.0,1.0,
235,10.0,increament,0.72,120.0,oddball,26.0,0.0,0.0,
236,10.0,increament,0.6,100.0,standard,25.0,0.0,1.0,
237,10.0,increament,0.6,100.0,standard,25.0,0.0,1.0,
238,10.0,increament,0.6,100.0,standard,25.0,0.0,1.0,
239,10.0,increament,0.6,100.0,standard,25.0,0.0,1.0,
240,10.0,decreament,0.6,100.0,standard,21.0,0.0,1.0,
241,10.0,decreament,0.6,100.0,standard,21.0,0.0,1.0,
242,10.0,decreament,0.6,100.0,standard,21.0,0.0,1.0,
243,10.0,decreament,0.6,100.0,standard,21.0,0.0,1.0,
244,10.0,decreament,0.6,100.0,standard,21.0,0.0,1.0,
245,10.0,decreament,0.48,80.0,oddball,24.0,0.0,0.0,
246,10.0,decreament,0.6,100.0,standard,21.0,0.0,0.0,1.247790199937299
247,10.0,decreament,0.6,100.0,standard,21.0,0.0,1.0,
248,10.0,decreament,0.6,100.0,standard,21.0,0.0,0.0,0.6161004998721182
249,10.0,decreament,0.24,40.0,oddball,22.0,0.0,1.0,0.6007765997201204
250,10.0,decreament,0.6,100.0,standard,21.0,0.0,1.0,
251,10.0,decreament,0.6,100.0,standard,21.0,0.0,1.0,
252,10.0,decreament,0.6,100.0,standard,21.0,0.0,1.0,
253,10.0,decreament,0.6,100.0,standard,21.0,0.0,1.0,
254,10.0,decreament,0.6,100.0,standard,21.0,0.0,1.0,
255,10.0,decreament,0.6,100.0,standard,21.0,0.0,1.0,
256,10.0,decreament,0.36,60.0,oddball,23.0,0.0,1.0,0.8485534000210464
257,10.0,decreament,0.6,100.0,standard,21.0,0.0,0.0,1.4364370999392122
258,10.0,decreament,0.6,100.0,standard,21.0,0.0,1.0,
259,10.0,decreament,0.6,100.0,standard,21.0,0.0,1.0,
260,10.0,decreament,0.6,100.0,standard,21.0,0.0,1.0,
261,10.0,decreament,0.6,100.0,standard,21.0,0.0,1.0,
262,10.0,decreament,0.6,100.0,standard,21.0,0.0,1.0,
263,10.0,decreament,0.6,100.0,standard,21.0,0.0,0.0,0.7701041998807341
264,10.0,decreament,0.6,100.0,standard,21.0,0.0,0.0,1.6321535997558383
265,10.0,decreament,0.6,100.0,standard,21.0,0.0,1.0,
266,10.0,decreament,0.6,100.0,standard,21.0,0.0,1.0,
267,10.0,decreament,0.6,100.0,standard,21.0,0.0,1.0,
268,10.0,decreament,0.6,100.0,standard,21.0,0.0,1.0,
269,10.0,decreament,0.6,100.0,standard,21.0,0.0,1.0,
270,10.0,increament,0.6,100.0,standard,25.0,0.0,1.0,
271,10.0,increament,0.6,100.0,standard,25.0,0.0,1.0,
272,10.0,increament,0.6,100.0,standard,25.0,0.0,1.0,
273,10.0,increament,0.6,100.0,standard,25.0,0.0,1.0,
274,10.0,increament,0.6,100.0,standard,25.0,0.0,1.0,
275,10.0,increament,0.6,100.0,standard,25.0,0.0,1.0,
276,10.0,increament,0.6,100.0,standard,25.0,0.0,1.0,
277,10.0,increament,0.6,100.0,standard,25.0,0.0,1.0,
278,10.0,increament,0.6,100.0,standard,25.0,0.0,1.0,
279,10.0,increament,0.96,160.0,oddball,28.0,0.0,1.0,0.4478897999506444
280,10.0,increament,0.6,100.0,standard,25.0,0.0,1.0,
281,10.0,increament,0.6,100.0,standard,25.0,0.0,1.0,
282,10.0,increament,0.6,100.0,standard,25.0,0.0,1.0,
283,10.0,increament,0.6,100.0,standard,25.0,0.0,1.0,
284,10.0,increament,0.6,100.0,standard,25.0,0.0,1.0,
285,10.0,increament,0.6,100.0,standard,25.0,0.0,1.0,
286,10.0,increament,0.6,100.0,standard,25.0,0.0,1.0,
287,10.0,increament,0.6,100.0,standard,25.0,0.0,1.0,
288,10.0,increament,0.6,100.0,standard,25.0,0.0,1.0,
289,10.0,increament,0.6,100.0,standard,25.0,0.0,1.0,
290,10.0,increament,0.6,100.0,standard,25.0,0.0,1.0,
291,10.0,increament,0.84,140.0,oddball,27.0,0.0,1.0,0.6948422999121249
292,10.0,increament,0.6,100.0,standard,25.0,0.0,1.0,
293,10.0,increament,0.6,100.0,standard,25.0,0.0,1.0,
294,10.0,increament,0.6,100.0,standard,25.0,0.0,1.0,
295,10.0,increament,0.6,100.0,standard,25.0,0.0,1.0,
296,10.0,increament,0.6,100.0,standard,25.0,0.0,1.0,
297,10.0,increament,0.6,100.0,standard,25.0,0.0,1.0,
298,10.0,increament,0.6,100.0,standard,25.0,0.0,1.0,
299,10.0,increament,0.72,120.0,oddball,26.0,0.0,0.0,
300,20.0,decreament,0.6,100.0,standard,41.0,1.0,1.0,
301,20.0,decreament,0.6,100.0,standard,41.0,1.0,1.0,
302,20.0,decreament,0.6,100.0,standard,41.0,1.0,1.0,
303,20.0,decreament,0.6,100.0,standard,41.0,1.0,1.0,
304,20.0,decreament,0.6,100.0,standard,41.0,1.0,1.0,
305,20.0,decreament,0.6,100.0,standard,41.0,1.0,1.0,
306,20.0,decreament,0.6,100.0,standard,41.0,1.0,1.0,
307,20.0,decreament,0.48,80.0,oddball,44.0,1.0,0.0,
308,20.0,decreament,0.6,100.0,standard,41.0,1.0,1.0,
309,20.0,decreament,0.6,100.0,standard,41.0,1.0,1.0,
310,20.0,decreament,0.6,100.0,standard,41.0,1.0,1.0,
311,20.0,decreament,0.6,100.0,standard,41.0,1.0,1.0,
312,20.0,decreament,0.24,40.0,oddball,42.0,1.0,1.0,0.5624933999497443
313,20.0,decreament,0.6,100.0,standard,41.0,1.0,1.0,
314,20.0,decreament,0.6,100.0,standard,41.0,1.0,1.0,
315,20.0,decreament,0.6,100.0,standard,41.0,1.0,1.0,
316,20.0,decreament,0.6,100.0,standard,41.0,1.0,1.0,
317,20.0,decreament,0.6,100.0,standard,41.0,1.0,1.0,
318,20.0,decreament,0.6,100.0,standard,41.0,1.0,1.0,
319,20.0,decreament,0.6,100.0,standard,41.0,1.0,1.0,
320,20.0,decreament,0.6,100.0,standard,41.0,1.0,1.0,
321,20.0,decreament,0.6,100.0,standard,41.0,1.0,1.0,
322,20.0,decreament,0.6,100.0,standard,41.0,1.0,1.0,
323,20.0,decreament,0.6,100.0,standard,41.0,1.0,1.0,
324,20.0,decreament,0.6,100.0,standard,41.0,1.0,1.0,
325,20.0,decreament,0.6,100.0,standard,41.0,1.0,1.0,
326,20.0,decreament,0.6,100.0,standard,41.0,1.0,1.0,
327,20.0,decreament,0.36,60.0,oddball,43.0,1.0,1.0,0.967988499905914
328,20.0,decreament,0.6,100.0,standard,41.0,1.0,1.0,
329,20.0,decreament,0.6,100.0,standard,41.0,1.0,1.0,
330,20.0,increament,0.6,100.0,standard,45.0,1.0,1.0,
331,20.0,increament,0.6,100.0,standard,45.0,1.0,1.0,
332,20.0,increament,0.6,100.0,standard,45.0,1.0,1.0,
333,20.0,increament,0.6,100.0,standard,45.0,1.0,1.0,
334,20.0,increament,0.6,100.0,standard,45.0,1.0,1.0,
335,20.0,increament,0.6,100.0,standard,45.0,1.0,1.0,
336,20.0,increament,0.6,100.0,standard,45.0,1.0,1.0,
337,20.0,increament,0.96,160.0,oddball,48.0,1.0,1.0,0.6108321999199688
338,20.0,increament,0.6,100.0,standard,45.0,1.0,1.0,
339,20.0,increament,0.6,100.0,standard,45.0,1.0,1.0,
340,20.0,increament,0.6,100.0,standard,45.0,1.0,1.0,
341,20.0,increament,0.6,100.0,standard,45.0,1.0,1.0,
342,20.0,increament,0.84,140.0,oddball,47.0,1.0,1.0,0.4711833999026567
343,20.0,increament,0.6,100.0,standard,45.0,1.0,1.0,
344,20.0,increament,0.6,100.0,standard,45.0,1.0,1.0,
345,20.0,increament,0.6,100.0,standard,45.0,1.0,1.0,
346,20.0,increament,0.6,100.0,standard,45.0,1.0,1.0,
347,20.0,increament,0.72,120.0,oddball,46.0,1.0,0.0,
348,20.0,increament,0.6,100.0,standard,45.0,1.0,1.0,
349,20.0,increament,0.6,100.0,standard,45.0,1.0,1.0,
350,20.0,increament,0.6,100.0,standard,45.0,1.0,0.0,0.7895661999937147
351,20.0,increament,0.6,100.0,standard,45.0,1.0,1.0,
352,20.0,increament,0.6,100.0,standard,45.0,1.0,1.0,
353,20.0,increament,0.6,100.0,standard,45.0,1.0,1.0,
354,20.0,increament,0.6,100.0,standard,45.0,1.0,1.0,
355,20.0,increament,0.6,100.0,standard,45.0,1.0,1.0,
356,20.0,increament,0.6,100.0,standard,45.0,1.0,1.0,
357,20.0,increament,0.6,100.0,standard,45.0,1.0,1.0,
358,20.0,increament,0.6,100.0,standard,45.0,1.0,1.0,
359,20.0,increament,0.6,100.0,standard,45.0,1.0,1.0,
360,20.0,decreament,0.6,100.0,standard,41.0,1.0,1.0,
361,20.0,decreament,0.6,100.0,standard,41.0,1.0,1.0,
362,20.0,decreament,0.6,100.0,standard,41.0,1.0,1.0,
363,20.0,decreament,0.6,100.0,standard,41.0,1.0,1.0,
364,20.0,decreament,0.6,100.0,standard,41.0,1.0,1.0,
365,20.0,decreament,0.36,60.0,oddball,43.0,1.0,1.0,0.6879259999841452
366,20.0,decreament,0.6,100.0,standard,41.0,1.0,1.0,
367,20.0,decreament,0.6,100.0,standard,41.0,1.0,1.0,
368,20.0,decreament,0.6,100.0,standard,41.0,1.0,1.0,
369,20.0,decreament,0.6,100.0,standard,41.0,1.0,0.0,0.8284516998101026
370,20.0,decreament,0.48,80.0,oddball,44.0,1.0,0.0,
371,20.0,decreament,0.6,100.0,standard,41.0,1.0,1.0,
372,20.0,decreament,0.6,100.0,standard,41.0,1.0,1.0,
373,20.0,decreament,0.6,100.0,standard,41.0,1.0,1.0,
374,20.0,decreament,0.6,100.0,standard,41.0,1.0,1.0,
375,20.0,decreament,0.6,100.0,standard,41.0,1.0,1.0,
376,20.0,decreament,0.6,100.0,standard,41.0,1.0,0.0,0.6763449998106807
377,20.0,decreament,0.6,100.0,standard,41.0,1.0,1.0,
378,20.0,decreament,0.6,100.0,standard,41.0,1.0,1.0,
379,20.0,decreament,0.6,100.0,standard,41.0,1.0,1.0,
380,20.0,decreament,0.6,100.0,standard,41.0,1.0,1.0,
381,20.0,decreament,0.6,100.0,standard,41.0,1.0,1.0,
382,20.0,decreament,0.6,100.0,standard,41.0,1.0,1.0,
383,20.0,decreament,0.6,100.0,standard,41.0,1.0,1.0,
384,20.0,decreament,0.24,40.0,oddball,42.0,1.0,1.0,0.8721677998546511
385,20.0,decreament,0.6,100.0,standard,41.0,1.0,1.0,
386,20.0,decreament,0.6,100.0,standard,41.0,1.0,1.0,
387,20.0,decreament,0.6,100.0,standard,41.0,1.0,1.0,
388,20.0,decreament,0.6,100.0,standard,41.0,1.0,0.0,0.9768852998968214
389,20.0,decreament,0.6,100.0,standard,41.0,1.0,1.0,
390,20.0,increament,0.6,100.0,standard,45.0,1.0,1.0,
391,20.0,increament,0.6,100.0,standard,45.0,1.0,1.0,
392,20.0,increament,0.6,100.0,standard,45.0,1.0,1.0,
393,20.0,increament,0.6,100.0,standard,45.0,1.0,1.0,
394,20.0,increament,0.6,100.0,standard,45.0,1.0,1.0,
395,20.0,increament,0.72,120.0,oddball,46.0,1.0,1.0,0.947682999772951
396,20.0,increament,0.6,100.0,standard,45.0,1.0,1.0,
397,20.0,increament,0.6,100.0,standard,45.0,1.0,1.0,
398,20.0,increament,0.6,100.0,standard,45.0,1.0,1.0,
399,20.0,increament,0.6,100.0,standard,45.0,1.0,1.0,
400,20.0,increament,0.6,100.0,standard,45.0,1.0,1.0,
401,20.0,increament,0.6,100.0,standard,45.0,1.0,1.0,
402,20.0,increament,0.6,100.0,standard,45.0,1.0,1.0,
403,20.0,increament,0.6,100.0,standard,45.0,1.0,1.0,
404,20.0,increament,0.6,100.0,standard,45.0,1.0,1.0,
405,20.0,increament,0.6,100.0,standard,45.0,1.0,1.0,
406,20.0,increament,0.6,100.0,standard,45.0,1.0,1.0,
407,20.0,increament,0.6,100.0,standard,45.0,1.0,1.0,
408,20.0,increament,0.6,100.0,standard,45.0,1.0,1.0,
409,20.0,increament,0.6,100.0,standard,45.0,1.0,1.0,
410,20.0,increament,0.6,100.0,standard,45.0,1.0,1.0,
411,20.0,increament,0.6,100.0,standard,45.0,1.0,1.0,
412,20.0,increament,0.84,140.0,oddball,47.0,1.0,1.0,0.3933491997886449
413,20.0,increament,0.6,100.0,standard,45.0,1.0,1.0,
414,20.0,increament,0.6,100.0,standard,45.0,1.0,1.0,
415,20.0,increament,0.6,100.0,standard,45.0,1.0,1.0,
416,20.0,increament,0.96,160.0,oddball,48.0,1.0,1.0,0.4447844000533223
417,20.0,increament,0.6,100.0,standard,45.0,1.0,1.0,
418,20.0,increament,0.6,100.0,standard,45.0,1.0,1.0,
419,20.0,increament,0.6,100.0,standard,45.0,1.0,1.0,
420,20.0,decreament,0.6,100.0,standard,41.0,1.0,1.0,
421,20.0,decreament,0.6,100.0,standard,41.0,1.0,1.0,
422,20.0,decreament,0.6,100.0,standard,41.0,1.0,1.0,
423,20.0,decreament,0.6,100.0,standard,41.0,1.0,1.0,
424,20.0,decreament,0.6,100.0,standard,41.0,1.0,1.0,
425,20.0,decreament,0.6,100.0,standard,41.0,1.0,1.0,
426,20.0,decreament,0.6,100.0,standard,41.0,1.0,1.0,
427,20.0,decreament,0.6,100.0,standard,41.0,1.0,1.0,
428,20.0,decreament,0.6,100.0,standard,41.0,1.0,1.0,
429,20.0,decreament,0.6,100.0,standard,41.0,1.0,0.0,0.4190195999108255
430,20.0,decreament,0.6,100.0,standard,41.0,1.0,0.0,0.5494697999674827
431,20.0,decreament,0.6,100.0,standard,41.0,1.0,1.0,
432,20.0,decreament,0.6,100.0,standard,41.0,1.0,1.0,
433,20.0,decreament,0.6,100.0,standard,41.0,1.0,1.0,
434,20.0,decreament,0.48,80.0,oddball,44.0,1.0,1.0,0.7110084998421371
435,20.0,decreament,0.6,100.0,standard,41.0,1.0,1.0,
436,20.0,decreament,0.6,100.0,standard,41.0,1.0,1.0,
437,20.0,decreament,0.6,100.0,standard,41.0,1.0,1.0,
438,20.0,decreament,0.6,100.0,standard,41.0,1.0,1.0,
439,20.0,decreament,0.6,100.0,standard,41.0,1.0,1.0,
440,20.0,decreament,0.6,100.0,standard,41.0,1.0,0.0,0.5215695998631418
441,20.0,decreament,0.6,100.0,standard,41.0,1.0,1.0,
442,20.0,decreament,0.6,100.0,standard,41.0,1.0,1.0,
443,20.0,decreament,0.24,40.0,oddball,42.0,1.0,1.0,0.5815063999034464
444,20.0,decreament,0.6,100.0,standard,41.0,1.0,1.0,
445,20.0,decreament,0.6,100.0,standard,41.0,1.0,1.0,
446,20.0,decreament,0.6,100.0,standard,41.0,1.0,1.0,
447,20.0,decreament,0.6,100.0,standard,41.0,1.0,1.0,
448,20.0,decreament,0.36,60.0,oddball,43.0,1.0,1.0,0.5191097999922931
449,20.0,decreament,0.6,100.0,standard,41.0,1.0,1.0,
450,20.0,increament,0.6,100.0,standard,45.0,1.0,1.0,
451,20.0,increament,0.6,100.0,standard,45.0,1.0,1.0,
452,20.0,increament,0.6,100.0,standard,45.0,1.0,1.0,
453,20.0,increament,0.6,100.0,standard,45.0,1.0,1.0,
454,20.0,increament,0.6,100.0,standard,45.0,1.0,1.0,
455,20.0,increament,0.6,100.0,standard,45.0,1.0,1.0,
456,20.0,increament,0.6,100.0,standard,45.0,1.0,1.0,
457,20.0,increament,0.6,100.0,standard,45.0,1.0,1.0,
458,20.0,increament,0.6,100.0,standard,45.0,1.0,1.0,
459,20.0,increament,0.6,100.0,standard,45.0,1.0,1.0,
460,20.0,increament,0.6,100.0,standard,45.0,1.0,1.0,
461,20.0,increament,0.6,100.0,standard,45.0,1.0,1.0,
462,20.0,increament,0.6,100.0,standard,45.0,1.0,1.0,
463,20.0,increament,0.72,120.0,oddball,46.0,1.0,0.0,
464,20.0,increament,0.6,100.0,standard,45.0,1.0,1.0,
465,20.0,increament,0.6,100.0,standard,45.0,1.0,1.0,
466,20.0,increament,0.6,100.0,standard,45.0,1.0,1.0,
467,20.0,increament,0.84,140.0,oddball,47.0,1.0,1.0,0.3113873000256717
468,20.0,increament,0.6,100.0,standard,45.0,1.0,1.0,
469,20.0,increament,0.6,100.0,standard,45.0,1.0,1.0,
470,20.0,increament,0.6,100.0,standard,45.0,1.0,1.0,
471,20.0,increament,0.6,100.0,standard,45.0,1.0,1.0,
472,20.0,increament,0.6,100.0,standard,45.0,1.0,1.0,
473,20.0,increament,0.6,100.0,standard,45.0,1.0,1.0,
474,20.0,increament,0.6,100.0,standard,45.0,1.0,1.0,
475,20.0,increament,0.96,160.0,oddball,48.0,1.0,1.0,0.4425053999293595
476,20.0,increament,0.6,100.0,standard,45.0,1.0,1.0,
477,20.0,increament,0.6,100.0,standard,45.0,1.0,1.0,
478,20.0,increament,0.6,100.0,standard,45.0,1.0,1.0,
479,20.0,increament,0.6,100.0,standard,45.0,1.0,1.0,
480,20.0,decreament,0.6,100.0,standard,41.0,1.0,1.0,
481,20.0,decreament,0.6,100.0,standard,41.0,1.0,1.0,
482,20.0,decreament,0.6,100.0,standard,41.0,1.0,1.0,
483,20.0,decreament,0.6,100.0,standard,41.0,1.0,1.0,
484,20.0,decreament,0.6,100.0,standard,41.0,1.0,1.0,
485,20.0,decreament,0.6,100.0,standard,41.0,1.0,1.0,
486,20.0,decreament,0.6,100.0,standard,41.0,1.0,1.0,
487,20.0,decreament,0.6,100.0,standard,41.0,1.0,1.0,
488,20.0,decreament,0.6,100.0,standard,41.0,1.0,1.0,
489,20.0,decreament,0.6,100.0,standard,41.0,1.0,1.0,
490,20.0,decreament,0.6,100.0,standard,41.0,1.0,1.0,
491,20.0,decreament,0.6,100.0,standard,41.0,1.0,1.0,
492,20.0,decreament,0.6,100.0,standard,41.0,1.0,1.0,
493,20.0,decreament,0.6,100.0,standard,41.0,1.0,1.0,
494,20.0,decreament,0.6,100.0,standard,41.0,1.0,1.0,
495,20.0,decreament,0.6,100.0,standard,41.0,1.0,1.0,
496,20.0,decreament,0.6,100.0,standard,41.0,1.0,0.0,0.8673115998972207
497,20.0,decreament,0.6,100.0,standard,41.0,1.0,1.0,
498,20.0,decreament,0.36,60.0,oddball,43.0,1.0,1.0,0.4793544998392463
499,20.0,decreament,0.6,100.0,standard,41.0,1.0,1.0,
500,20.0,decreament,0.6,100.0,standard,41.0,1.0,1.0,
501,20.0,decreament,0.6,100.0,standard,41.0,1.0,1.0,
502,20.0,decreament,0.6,100.0,standard,41.0,1.0,1.0,
503,20.0,decreament,0.6,100.0,standard,41.0,1.0,1.0,
504,20.0,decreament,0.6,100.0,standard,41.0,1.0,1.0,
505,20.0,decreament,0.48,80.0,oddball,44.0,1.0,0.0,
506,20.0,decreament,0.6,100.0,standard,41.0,1.0,1.0,
507,20.0,decreament,0.6,100.0,standard,41.0,1.0,1.0,
508,20.0,decreament,0.6,100.0,standard,41.0,1.0,1.0,
509,20.0,decreament,0.24,40.0,oddball,42.0,1.0,1.0,0.6494602998718619
510,20.0,increament,0.6,100.0,standard,45.0,1.0,1.0,
511,20.0,increament,0.6,100.0,standard,45.0,1.0,1.0,
512,20.0,increament,0.6,100.0,standard,45.0,1.0,1.0,
513,20.0,increament,0.6,100.0,standard,45.0,1.0,1.0,
514,20.0,increament,0.6,100.0,standard,45.0,1.0,1.0,
515,20.0,increament,0.6,100.0,standard,45.0,1.0,1.0,
516,20.0,increament,0.96,160.0,oddball,48.0,1.0,1.0,0.3787710997276008
517,20.0,increament,0.6,100.0,standard,45.0,1.0,1.0,
518,20.0,increament,0.6,100.0,standard,45.0,1.0,1.0,
519,20.0,increament,0.6,100.0,standard,45.0,1.0,1.0,
520,20.0,increament,0.6,100.0,standard,45.0,1.0,1.0,
521,20.0,increament,0.6,100.0,standard,45.0,1.0,1.0,
522,20.0,increament,0.6,100.0,standard,45.0,1.0,1.0,
523,20.0,increament,0.72,120.0,oddball,46.0,1.0,0.0,
524,20.0,increament,0.6,100.0,standard,45.0,1.0,1.0,
525,20.0,increament,0.6,100.0,standard,45.0,1.0,1.0,
526,20.0,increament,0.6,100.0,standard,45.0,1.0,1.0,
527,20.0,increament,0.6,100.0,standard,45.0,1.0,1.0,
528,20.0,increament,0.6,100.0,standard,45.0,1.0,1.0,
529,20.0,increament,0.6,100.0,standard,45.0,1.0,1.0,
530,20.0,increament,0.6,100.0,standard,45.0,1.0,1.0,
531,20.0,increament,0.6,100.0,standard,45.0,1.0,1.0,
532,20.0,increament,0.6,100.0,standard,45.0,1.0,1.0,
533,20.0,increament,0.6,100.0,standard,45.0,1.0,1.0,
534,20.0,increament,0.6,100.0,standard,45.0,1.0,1.0,
535,20.0,increament,0.6,100.0,standard,45.0,1.0,1.0,
536,20.0,increament,0.6,100.0,standard,45.0,1.0,1.0,
537,20.0,increament,0.6,100.0,standard,45.0,1.0,1.0,
538,20.0,increament,0.6,100.0,standard,45.0,1.0,1.0,
539,20.0,increament,0.84,140.0,oddball,47.0,1.0,0.0,
540,20.0,decreament,0.6,100.0,standard,41.0,1.0,1.0,
541,20.0,decreament,0.6,100.0,standard,41.0,1.0,1.0,
542,20.0,decreament,0.6,100.0,standard,41.0,1.0,1.0,
543,20.0,decreament,0.6,100.0,standard,41.0,1.0,1.0,
544,20.0,decreament,0.6,100.0,standard,41.0,1.0,1.0,
545,20.0,decreament,0.6,100.0,standard,41.0,1.0,0.0,1.66935019986704
546,20.0,decreament,0.36,60.0,oddball,43.0,1.0,1.0,0.644904299871996
547,20.0,decreament,0.6,100.0,standard,41.0,1.0,1.0,
548,20.0,decreament,0.6,100.0,standard,41.0,1.0,1.0,
549,20.0,decreament,0.6,100.0,standard,41.0,1.0,1.0,
550,20.0,decreament,0.6,100.0,standard,41.0,1.0,1.0,
551,20.0,decreament,0.6,100.0,standard,41.0,1.0,1.0,
552,20.0,decreament,0.6,100.0,standard,41.0,1.0,1.0,
553,20.0,decreament,0.48,80.0,oddball,44.0,1.0,1.0,0.7511328998953104
554,20.0,decreament,0.6,100.0,standard,41.0,1.0,1.0,
555,20.0,decreament,0.6,100.0,standard,41.0,1.0,1.0,
556,20.0,decreament,0.6,100.0,standard,41.0,1.0,1.0,
557,20.0,decreament,0.6,100.0,standard,41.0,1.0,1.0,
558,20.0,decreament,0.6,100.0,standard,41.0,1.0,1.0,
559,20.0,decreament,0.6,100.0,standard,41.0,1.0,1.0,
560,20.0,decreament,0.6,100.0,standard,41.0,1.0,1.0,
561,20.0,decreament,0.6,100.0,standard,41.0,1.0,1.0,
562,20.0,decreament,0.6,100.0,standard,41.0,1.0,1.0,
563,20.0,decreament,0.6,100.0,standard,41.0,1.0,1.0,
564,20.0,decreament,0.6,100.0,standard,41.0,1.0,1.0,
565,20.0,decreament,0.6,100.0,standard,41.0,1.0,1.0,
566,20.0,decreament,0.24,40.0,oddball,42.0,1.0,1.0,0.6644437997601926
567,20.0,decreament,0.6,100.0,standard,41.0,1.0,1.0,
568,20.0,decreament,0.6,100.0,standard,41.0,1.0,1.0,
569,20.0,decreament,0.6,100.0,standard,41.0,1.0,1.0,
570,20.0,increament,0.6,100.0,standard,45.0,1.0,1.0,
571,20.0,increament,0.6,100.0,standard,45.0,1.0,1.0,
572,20.0,increament,0.6,100.0,standard,45.0,1.0,1.0,
573,20.0,increament,0.6,100.0,standard,45.0,1.0,1.0,
574,20.0,increament,0.6,100.0,standard,45.0,1.0,1.0,
575,20.0,increament,0.6,100.0,standard,45.0,1.0,1.0,
576,20.0,increament,0.72,120.0,oddball,46.0,1.0,0.0,
577,20.0,increament,0.6,100.0,standard,45.0,1.0,1.0,
578,20.0,increament,0.6,100.0,standard,45.0,1.0,1.0,
579,20.0,increament,0.6,100.0,standard,45.0,1.0,1.0,
580,20.0,increament,0.6,100.0,standard,45.0,1.0,1.0,
581,20.0,increament,0.6,100.0,standard,45.0,1.0,1.0,
582,20.0,increament,0.6,100.0,standard,45.0,1.0,1.0,
583,20.0,increament,0.6,100.0,standard,45.0,1.0,1.0,
584,20.0,increament,0.6,100.0,standard,45.0,1.0,1.0,
585,20.0,increament,0.6,100.0,standard,45.0,1.0,1.0,
586,20.0,increament,0.6,100.0,standard,45.0,1.0,1.0,
587,20.0,increament,0.84,140.0,oddball,47.0,1.0,1.0,0.5029495998751372
588,20.0,increament,0.6,100.0,standard,45.0,1.0,1.0,
589,20.0,increament,0.6,100.0,standard,45.0,1.0,1.0,
590,20.0,increament,0.6,100.0,standard,45.0,1.0,1.0,
591,20.0,increament,0.6,100.0,standard,45.0,1.0,1.0,
592,20.0,increament,0.6,100.0,standard,45.0,1.0,1.0,
593,20.0,increament,0.6,100.0,standard,45.0,1.0,1.0,
594,20.0,increament,0.6,100.0,standard,45.0,1.0,1.0,
595,20.0,increament,0.6,100.0,standard,45.0,1.0,1.0,
596,20.0,increament,0.6,100.0,standard,45.0,1.0,1.0,
597,20.0,increament,0.96,160.0,oddball,48.0,1.0,1.0,0.5072538000531495
598,20.0,increament,0.6,100.0,standard,45.0,1.0,1.0,
599,20.0,increament,0.6,100.0,standard,45.0,1.0,1.0,
600,0.0,decreament,0.6,100.0,standard,1.0,2.0,1.0,
601,0.0,decreament,0.6,100.0,standard,1.0,2.0,1.0,
602,0.0,decreament,0.6,100.0,standard,1.0,2.0,1.0,
603,0.0,decreament,0.6,100.0,standard,1.0,2.0,1.0,
604,0.0,decreament,0.6,100.0,standard,1.0,2.0,1.0,
605,0.0,decreament,0.6,100.0,standard,1.0,2.0,1.0,
606,0.0,decreament,0.6,100.0,standard,1.0,2.0,1.0,
607,0.0,decreament,0.6,100.0,standard,1.0,2.0,1.0,
608,0.0,decreament,0.6,100.0,standard,1.0,2.0,1.0,
609,0.0,decreament,0.6,100.0,standard,1.0,2.0,1.0,
610,0.0,decreament,0.24,40.0,oddball,2.0,2.0,1.0,0.4870182999875396
611,0.0,decreament,0.6,100.0,standard,1.0,2.0,1.0,
612,0.0,decreament,0.6,100.0,standard,1.0,2.0,1.0,
613,0.0,decreament,0.6,100.0,standard,1.0,2.0,1.0,
614,0.0,decreament,0.6,100.0,standard,1.0,2.0,1.0,
615,0.0,decreament,0.6,100.0,standard,1.0,2.0,1.0,
616,0.0,decreament,0.6,100.0,standard,1.0,2.0,1.0,
617,0.0,decreament,0.6,100.0,standard,1.0,2.0,1.0,
618,0.0,decreament,0.6,100.0,standard,1.0,2.0,1.0,
619,0.0,decreament,0.6,100.0,standard,1.0,2.0,1.0,
620,0.0,decreament,0.6,100.0,standard,1.0,2.0,1.0,
621,0.0,decreament,0.6,100.0,standard,1.0,2.0,1.0,
622,0.0,decreament,0.48,80.0,oddball,4.0,2.0,0.0,
623,0.0,decreament,0.6,100.0,standard,1.0,2.0,1.0,
624,0.0,decreament,0.6,100.0,standard,1.0,2.0,1.0,
625,0.0,decreament,0.6,100.0,standard,1.0,2.0,1.0,
626,0.0,decreament,0.6,100.0,standard,1.0,2.0,1.0,
627,0.0,decreament,0.36,60.0,oddball,3.0,2.0,1.0,0.6473534000106156
628,0.0,decreament,0.6,100.0,standard,1.0,2.0,1.0,
629,0.0,decreament,0.6,100.0,standard,1.0,2.0,1.0,
630,0.0,increament,0.6,100.0,standard,5.0,2.0,1.0,
631,0.0,increament,0.6,100.0,standard,5.0,2.0,1.0,
632,0.0,increament,0.6,100.0,standard,5.0,2.0,1.0,
633,0.0,increament,0.6,100.0,standard,5.0,2.0,1.0,
634,0.0,increament,0.6,100.0,standard,5.0,2.0,1.0,
635,0.0,increament,0.6,100.0,standard,5.0,2.0,1.0,
636,0.0,increament,0.6,100.0,standard,5.0,2.0,1.0,
637,0.0,increament,0.6,100.0,standard,5.0,2.0,1.0,
638,0.0,increament,0.84,140.0,oddball,7.0,2.0,0.0,
639,0.0,increament,0.6,100.0,standard,5.0,2.0,1.0,
640,0.0,increament,0.6,100.0,standard,5.0,2.0,1.0,
641,0.0,increament,0.6,100.0,standard,5.0,2.0,1.0,
642,0.0,increament,0.6,100.0,standard,5.0,2.0,1.0,
643,0.0,increament,0.6,100.0,standard,5.0,2.0,1.0,
644,0.0,increament,0.72,120.0,oddball,6.0,2.0,0.0,
645,0.0,increament,0.6,100.0,standard,5.0,2.0,1.0,
646,0.0,increament,0.6,100.0,standard,5.0,2.0,1.0,
647,0.0,increament,0.6,100.0,standard,5.0,2.0,1.0,
648,0.0,increament,0.6,100.0,standard,5.0,2.0,1.0,
649,0.0,increament,0.6,100.0,standard,5.0,2.0,1.0,
650,0.0,increament,0.6,100.0,standard,5.0,2.0,1.0,
651,0.0,increament,0.6,100.0,standard,5.0,2.0,1.0,
652,0.0,increament,0.96,160.0,oddball,8.0,2.0,0.0,
653,0.0,increament,0.6,100.0,standard,5.0,2.0,1.0,
654,0.0,increament,0.6,100.0,standard,5.0,2.0,1.0,
655,0.0,increament,0.6,100.0,standard,5.0,2.0,1.0,
656,0.0,increament,0.6,100.0,standard,5.0,2.0,1.0,
657,0.0,increament,0.6,100.0,standard,5.0,2.0,1.0,
658,0.0,increament,0.6,100.0,standard,5.0,2.0,1.0,
659,0.0,increament,0.6,100.0,standard,5.0,2.0,1.0,
660,0.0,decreament,0.6,100.0,standard,1.0,2.0,1.0,
661,0.0,decreament,0.6,100.0,standard,1.0,2.0,1.0,
662,0.0,decreament,0.6,100.0,standard,1.0,2.0,1.0,
663,0.0,decreament,0.6,100.0,standard,1.0,2.0,1.0,
664,0.0,decreament,0.6,100.0,standard,1.0,2.0,1.0,
665,0.0,decreament,0.48,80.0,oddball,4.0,2.0,0.0,
666,0.0,decreament,0.6,100.0,standard,1.0,2.0,1.0,
667,0.0,decreament,0.6,100.0,standard,1.0,2.0,1.0,
668,0.0,decreament,0.6,100.0,standard,1.0,2.0,1.0,
669,0.0,decreament,0.6,100.0,standard,1.0,2.0,1.0,
670,0.0,decreament,0.24,40.0,oddball,2.0,2.0,1.0,0.8082139999605715
671,0.0,decreament,0.6,100.0,standard,1.0,2.0,1.0,
672,0.0,decreament,0.6,100.0,standard,1.0,2.0,1.0,
673,0.0,decreament,0.6,100.0,standard,1.0,2.0,1.0,
674,0.0,decreament,0.6,100.0,standard,1.0,2.0,1.0,
675,0.0,decreament,0.6,100.0,standard,1.0,2.0,0.0,0.6375557999126613
676,0.0,decreament,0.6,100.0,standard,1.0,2.0,1.0,
677,0.0,decreament,0.6,100.0,standard,1.0,2.0,1.0,
678,0.0,decreament,0.6,100.0,standard,1.0,2.0,1.0,
679,0.0,decreament,0.6,100.0,standard,1.0,2.0,1.0,
680,0.0,decreament,0.6,100.0,standard,1.0,2.0,1.0,
681,0.0,decreament,0.6,100.0,standard,1.0,2.0,1.0,
682,0.0,decreament,0.6,100.0,standard,1.0,2.0,1.0,
683,0.0,decreament,0.6,100.0,standard,1.0,2.0,1.0,
684,0.0,decreament,0.36,60.0,oddball,3.0,2.0,1.0,0.6393395997583866
685,0.0,decreament,0.6,100.0,standard,1.0,2.0,1.0,
686,0.0,decreament,0.6,100.0,standard,1.0,2.0,1.0,
687,0.0,decreament,0.6,100.0,standard,1.0,2.0,1.0,
688,0.0,decreament,0.6,100.0,standard,1.0,2.0,1.0,
689,0.0,decreament,0.6,100.0,standard,1.0,2.0,1.0,
690,0.0,increament,0.6,100.0,standard,5.0,2.0,1.0,
691,0.0,increament,0.6,100.0,standard,5.0,2.0,1.0,
692,0.0,increament,0.6,100.0,standard,5.0,2.0,1.0,
693,0.0,increament,0.6,100.0,standard,5.0,2.0,1.0,
694,0.0,increament,0.6,100.0,standard,5.0,2.0,1.0,
695,0.0,increament,0.6,100.0,standard,5.0,2.0,1.0,
696,0.0,increament,0.6,100.0,standard,5.0,2.0,1.0,
697,0.0,increament,0.6,100.0,standard,5.0,2.0,1.0,
698,0.0,increament,0.6,100.0,standard,5.0,2.0,1.0,
699,0.0,increament,0.6,100.0,standard,5.0,2.0,1.0,
700,0.0,increament,0.6,100.0,standard,5.0,2.0,1.0,
701,0.0,increament,0.6,100.0,standard,5.0,2.0,1.0,
702,0.0,increament,0.6,100.0,standard,5.0,2.0,1.0,
703,0.0,increament,0.6,100.0,standard,5.0,2.0,1.0,
704,0.0,increament,0.6,100.0,standard,5.0,2.0,1.0,
705,0.0,increament,0.84,140.0,oddball,7.0,2.0,1.0,0.698793499963358
706,0.0,increament,0.6,100.0,standard,5.0,2.0,1.0,
707,0.0,increament,0.6,100.0,standard,5.0,2.0,1.0,
708,0.0,increament,0.6,100.0,standard,5.0,2.0,1.0,
709,0.0,increament,0.6,100.0,standard,5.0,2.0,1.0,
710,0.0,increament,0.6,100.0,standard,5.0,2.0,1.0,
711,0.0,increament,0.6,100.0,standard,5.0,2.0,1.0,
712,0.0,increament,0.96,160.0,oddball,8.0,2.0,0.0,
713,0.0,increament,0.6,100.0,standard,5.0,2.0,1.0,
714,0.0,increament,0.6,100.0,standard,5.0,2.0,1.0,
715,0.0,increament,0.6,100.0,standard,5.0,2.0,1.0,
716,0.0,increament,0.6,100.0,standard,5.0,2.0,1.0,
717,0.0,increament,0.6,100.0,standard,5.0,2.0,1.0,
718,0.0,increament,0.72,120.0,oddball,6.0,2.0,0.0,
719,0.0,increament,0.6,100.0,standard,5.0,2.0,1.0,
720,0.0,decreament,0.6,100.0,standard,1.0,2.0,1.0,
721,0.0,decreament,0.6,100.0,standard,1.0,2.0,1.0,
722,0.0,decreament,0.6,100.0,standard,1.0,2.0,1.0,
723,0.0,decreament,0.6,100.0,standard,1.0,2.0,1.0,
724,0.0,decreament,0.6,100.0,standard,1.0,2.0,1.0,
725,0.0,decreament,0.24,40.0,oddball,2.0,2.0,1.0,0.5787444999441504
726,0.0,decreament,0.6,100.0,standard,1.0,2.0,1.0,
727,0.0,decreament,0.6,100.0,standard,1.0,2.0,1.0,
728,0.0,decreament,0.6,100.0,standard,1.0,2.0,1.0,
729,0.0,decreament,0.6,100.0,standard,1.0,2.0,1.0,
730,0.0,decreament,0.6,100.0,standard,1.0,2.0,1.0,
731,0.0,decreament,0.6,100.0,standard,1.0,2.0,1.0,
732,0.0,decreament,0.6,100.0,standard,1.0,2.0,1.0,
733,0.0,decreament,0.36,60.0,oddball,3.0,2.0,1.0,0.5036512997467071
734,0.0,decreament,0.6,100.0,standard,1.0,2.0,1.0,
735,0.0,decreament,0.6,100.0,standard,1.0,2.0,1.0,
736,0.0,decreament,0.6,100.0,standard,1.0,2.0,1.0,
737,0.0,decreament,0.6,100.0,standard,1.0,2.0,1.0,
738,0.0,decreament,0.6,100.0,standard,1.0,2.0,1.0,
739,0.0,decreament,0.6,100.0,standard,1.0,2.0,1.0,
740,0.0,decreament,0.6,100.0,standard,1.0,2.0,0.0,0.6473524000030011
741,0.0,decreament,0.6,100.0,standard,1.0,2.0,1.0,
742,0.0,decreament,0.6,100.0,standard,1.0,2.0,1.0,
743,0.0,decreament,0.6,100.0,standard,1.0,2.0,1.0,
744,0.0,decreament,0.6,100.0,standard,1.0,2.0,1.0,
745,0.0,decreament,0.6,100.0,standard,1.0,2.0,0.0,0.6002472997643054
746,0.0,decreament,0.6,100.0,standard,1.0,2.0,1.0,
747,0.0,decreament,0.48,80.0,oddball,4.0,2.0,0.0,
748,0.0,decreament,0.6,100.0,standard,1.0,2.0,1.0,
749,0.0,decreament,0.6,100.0,standard,1.0,2.0,1.0,
750,0.0,increament,0.6,100.0,standard,5.0,2.0,1.0,
751,0.0,increament,0.6,100.0,standard,5.0,2.0,1.0,
752,0.0,increament,0.6,100.0,standard,5.0,2.0,1.0,
753,0.0,increament,0.6,100.0,standard,5.0,2.0,1.0,
754,0.0,increament,0.6,100.0,standard,5.0,2.0,1.0,
755,0.0,increament,0.6,100.0,standard,5.0,2.0,1.0,
756,0.0,increament,0.6,100.0,standard,5.0,2.0,1.0,
757,0.0,increament,0.6,100.0,standard,5.0,2.0,1.0,
758,0.0,increament,0.6,100.0,standard,5.0,2.0,1.0,
759,0.0,increament,0.6,100.0,standard,5.0,2.0,1.0,
760,0.0,increament,0.6,100.0,standard,5.0,2.0,1.0,
761,0.0,increament,0.6,100.0,standard,5.0,2.0,1.0,
762,0.0,increament,0.84,140.0,oddball,7.0,2.0,0.0,
763,0.0,increament,0.6,100.0,standard,5.0,2.0,1.0,
764,0.0,increament,0.6,100.0,standard,5.0,2.0,1.0,
765,0.0,increament,0.6,100.0,standard,5.0,2.0,1.0,
766,0.0,increament,0.6,100.0,standard,5.0,2.0,1.0,
767,0.0,increament,0.6,100.0,standard,5.0,2.0,1.0,
768,0.0,increament,0.96,160.0,oddball,8.0,2.0,1.0,0.4403535998426378
769,0.0,increament,0.6,100.0,standard,5.0,2.0,1.0,
770,0.0,increament,0.6,100.0,standard,5.0,2.0,1.0,
771,0.0,increament,0.6,100.0,standard,5.0,2.0,1.0,
772,0.0,increament,0.6,100.0,standard,5.0,2.0,1.0,
773,0.0,increament,0.6,100.0,standard,5.0,2.0,1.0,
774,0.0,increament,0.6,100.0,standard,5.0,2.0,1.0,
775,0.0,increament,0.72,120.0,oddball,6.0,2.0,0.0,
776,0.0,increament,0.6,100.0,standard,5.0,2.0,1.0,
777,0.0,increament,0.6,100.0,standard,5.0,2.0,1.0,
778,0.0,increament,0.6,100.0,standard,5.0,2.0,1.0,
779,0.0,increament,0.6,100.0,standard,5.0,2.0,1.0,
780,0.0,decreament,0.6,100.0,standard,1.0,2.0,1.0,
781,0.0,decreament,0.6,100.0,standard,1.0,2.0,1.0,
782,0.0,decreament,0.6,100.0,standard,1.0,2.0,1.0,
783,0.0,decreament,0.6,100.0,standard,1.0,2.0,1.0,
784,0.0,decreament,0.6,100.0,standard,1.0,2.0,1.0,
785,0.0,decreament,0.6,100.0,standard,1.0,2.0,1.0,
786,0.0,decreament,0.6,100.0,standard,1.0,2.0,1.0,
787,0.0,decreament,0.48,80.0,oddball,4.0,2.0,0.0,
788,0.0,decreament,0.6,100.0,standard,1.0,2.0,1.0,
789,0.0,decreament,0.6,100.0,standard,1.0,2.0,1.0,
790,0.0,decreament,0.6,100.0,standard,1.0,2.0,1.0,
791,0.0,decreament,0.24,40.0,oddball,2.0,2.0,1.0,0.4947548999916762
792,0.0,decreament,0.6,100.0,standard,1.0,2.0,1.0,
793,0.0,decreament,0.6,100.0,standard,1.0,2.0,1.0,
794,0.0,decreament,0.6,100.0,standard,1.0,2.0,1.0,
795,0.0,decreament,0.6,100.0,standard,1.0,2.0,1.0,
796,0.0,decreament,0.6,100.0,standard,1.0,2.0,0.0,0.723675699904561
797,0.0,decreament,0.6,100.0,standard,1.0,2.0,1.0,
798,0.0,decreament,0.6,100.0,standard,1.0,2.0,1.0,
799,0.0,decreament,0.6,100.0,standard,1.0,2.0,1.0,
800,0.0,decreament,0.6,100.0,standard,1.0,2.0,1.0,
801,0.0,decreament,0.6,100.0,standard,1.0,2.0,1.0,
802,0.0,decreament,0.6,100.0,standard,1.0,2.0,1.0,
803,0.0,decreament,0.6,100.0,standard,1.0,2.0,1.0,
804,0.0,decreament,0.36,60.0,oddball,3.0,2.0,1.0,0.560081799980253
805,0.0,decreament,0.6,100.0,standard,1.0,2.0,1.0,
806,0.0,decreament,0.6,100.0,standard,1.0,2.0,1.0,
807,0.0,decreament,0.6,100.0,standard,1.0,2.0,1.0,
808,0.0,decreament,0.6,100.0,standard,1.0,2.0,1.0,
809,0.0,decreament,0.6,100.0,standard,1.0,2.0,1.0,
810,0.0,increament,0.6,100.0,standard,5.0,2.0,1.0,
811,0.0,increament,0.6,100.0,standard,5.0,2.0,1.0,
812,0.0,increament,0.6,100.0,standard,5.0,2.0,1.0,
813,0.0,increament,0.6,100.0,standard,5.0,2.0,1.0,
814,0.0,increament,0.6,100.0,standard,5.0,2.0,1.0,
815,0.0,increament,0.6,100.0,standard,5.0,2.0,1.0,
816,0.0,increament,0.6,100.0,standard,5.0,2.0,1.0,
817,0.0,increament,0.6,100.0,standard,5.0,2.0,1.0,
818,0.0,increament,0.6,100.0,standard,5.0,2.0,1.0,
819,0.0,increament,0.6,100.0,standard,5.0,2.0,1.0,
820,0.0,increament,0.6,100.0,standard,5.0,2.0,1.0,
821,0.0,increament,0.6,100.0,standard,5.0,2.0,1.0,
822,0.0,increament,0.96,160.0,oddball,8.0,2.0,1.0,0.8895583997946233
823,0.0,increament,0.6,100.0,standard,5.0,2.0,1.0,
824,0.0,increament,0.6,100.0,standard,5.0,2.0,1.0,
825,0.0,increament,0.6,100.0,standard,5.0,2.0,1.0,
826,0.0,increament,0.6,100.0,standard,5.0,2.0,1.0,
827,0.0,increament,0.6,100.0,standard,5.0,2.0,1.0,
828,0.0,increament,0.6,100.0,standard,5.0,2.0,1.0,
829,0.0,increament,0.6,100.0,standard,5.0,2.0,1.0,
830,0.0,increament,0.72,120.0,oddball,6.0,2.0,1.0,0.5714749000035226
831,0.0,increament,0.6,100.0,standard,5.0,2.0,1.0,
832,0.0,increament,0.6,100.0,standard,5.0,2.0,1.0,
833,0.0,increament,0.6,100.0,standard,5.0,2.0,1.0,
834,0.0,increament,0.6,100.0,standard,5.0,2.0,1.0,
835,0.0,increament,0.6,100.0,standard,5.0,2.0,1.0,
836,0.0,increament,0.6,100.0,standard,5.0,2.0,1.0,
837,0.0,increament,0.6,100.0,standard,5.0,2.0,1.0,
838,0.0,increament,0.6,100.0,standard,5.0,2.0,1.0,
839,0.0,increament,0.84,140.0,oddball,7.0,2.0,1.0,0.9183870998676866
840,0.0,decreament,0.6,100.0,standard,1.0,2.0,1.0,
841,0.0,decreament,0.6,100.0,standard,1.0,2.0,1.0,
842,0.0,decreament,0.6,100.0,standard,1.0,2.0,1.0,
843,0.0,decreament,0.6,100.0,standard,1.0,2.0,1.0,
844,0.0,decreament,0.6,100.0,standard,1.0,2.0,1.0,
845,0.0,decreament,0.6,100.0,standard,1.0,2.0,1.0,
846,0.0,decreament,0.6,100.0,standard,1.0,2.0,1.0,
847,0.0,decreament,0.6,100.0,standard,1.0,2.0,1.0,
848,0.0,decreament,0.6,100.0,standard,1.0,2.0,1.0,
849,0.0,decreament,0.6,100.0,standard,1.0,2.0,1.0,
850,0.0,decreament,0.6,100.0,standard,1.0,2.0,1.0,
851,0.0,decreament,0.6,100.0,standard,1.0,2.0,1.0,
852,0.0,decreament,0.6,100.0,standard,1.0,2.0,1.0,
853,0.0,decreament,0.48,80.0,oddball,4.0,2.0,0.0,
854,0.0,decreament,0.6,100.0,standard,1.0,2.0,1.0,
855,0.0,decreament,0.6,100.0,standard,1.0,2.0,1.0,
856,0.0,decreament,0.6,100.0,standard,1.0,2.0,1.0,
857,0.0,decreament,0.6,100.0,standard,1.0,2.0,0.0,0.7107973997481167
858,0.0,decreament,0.24,40.0,oddball,2.0,2.0,1.0,0.5118678999133408
859,0.0,decreament,0.6,100.0,standard,1.0,2.0,0.0,0.6552768996916711
860,0.0,decreament,0.6,100.0,standard,1.0,2.0,1.0,
861,0.0,decreament,0.6,100.0,standard,1.0,2.0,1.0,
862,0.0,decreament,0.6,100.0,standard,1.0,2.0,1.0,
863,0.0,decreament,0.36,60.0,oddball,3.0,2.0,1.0,0.9535689998883754
864,0.0,decreament,0.6,100.0,standard,1.0,2.0,1.0,
865,0.0,decreament,0.6,100.0,standard,1.0,2.0,1.0,
866,0.0,decreament,0.6,100.0,standard,1.0,2.0,1.0,
867,0.0,decreament,0.6,100.0,standard,1.0,2.0,1.0,
868,0.0,decreament,0.6,100.0,standard,1.0,2.0,1.0,
869,0.0,decreament,0.6,100.0,standard,1.0,2.0,1.0,
870,0.0,increament,0.6,100.0,standard,5.0,2.0,1.0,
871,0.0,increament,0.6,100.0,standard,5.0,2.0,1.0,
872,0.0,increament,0.6,100.0,standard,5.0,2.0,1.0,
873,0.0,increament,0.6,100.0,standard,5.0,2.0,1.0,
874,0.0,increament,0.6,100.0,standard,5.0,2.0,1.0,
875,0.0,increament,0.6,100.0,standard,5.0,2.0,1.0,
876,0.0,increament,0.6,100.0,standard,5.0,2.0,1.0,
877,0.0,increament,0.84,140.0,oddball,7.0,2.0,0.0,
878,0.0,increament,0.6,100.0,standard,5.0,2.0,1.0,
879,0.0,increament,0.6,100.0,standard,5.0,2.0,1.0,
880,0.0,increament,0.6,100.0,standard,5.0,2.0,1.0,
881,0.0,increament,0.6,100.0,standard,5.0,2.0,1.0,
882,0.0,increament,0.6,100.0,standard,5.0,2.0,1.0,
883,0.0,increament,0.6,100.0,standard,5.0,2.0,0.0,0.9523720999713988
884,0.0,increament,0.6,100.0,standard,5.0,2.0,1.0,
885,0.0,increament,0.6,100.0,standard,5.0,2.0,1.0,
886,0.0,increament,0.6,100.0,standard,5.0,2.0,1.0,
887,0.0,increament,0.72,120.0,oddball,6.0,2.0,1.0,1.1695951998699456
888,0.0,increament,0.6,100.0,standard,5.0,2.0,1.0,
889,0.0,increament,0.6,100.0,standard,5.0,2.0,1.0,
890,0.0,increament,0.6,100.0,standard,5.0,2.0,1.0,
891,0.0,increament,0.6,100.0,standard,5.0,2.0,1.0,
892,0.0,increament,0.6,100.0,standard,5.0,2.0,1.0,
893,0.0,increament,0.6,100.0,standard,5.0,2.0,1.0,
894,0.0,increament,0.6,100.0,standard,5.0,2.0,1.0,
895,0.0,increament,0.96,160.0,oddball,8.0,2.0,1.0,0.7156386999413371
896,0.0,increament,0.6,100.0,standard,5.0,2.0,1.0,
897,0.0,increament,0.6,100.0,standard,5.0,2.0,1.0,
898,0.0,increament,0.6,100.0,standard,5.0,2.0,1.0,
899,0.0,increament,0.6,100.0,standard,5.0,2.0,1.0,
900,5.0,decreament,0.6,100.0,standard,11.0,3.0,1.0,
901,5.0,decreament,0.6,100.0,standard,11.0,3.0,1.0,
902,5.0,decreament,0.6,100.0,standard,11.0,3.0,1.0,
903,5.0,decreament,0.6,100.0,standard,11.0,3.0,1.0,
904,5.0,decreament,0.6,100.0,standard,11.0,3.0,1.0,
905,5.0,decreament,0.6,100.0,standard,11.0,3.0,1.0,
906,5.0,decreament,0.6,100.0,standard,11.0,3.0,1.0,
907,5.0,decreament,0.6,100.0,standard,11.0,3.0,1.0,
908,5.0,decreament,0.6,100.0,standard,11.0,3.0,1.0,
909,5.0,decreament,0.6,100.0,standard,11.0,3.0,1.0,
910,5.0,decreament,0.6,100.0,standard,11.0,3.0,1.0,
911,5.0,decreament,0.24,40.0,oddball,12.0,3.0,1.0,0.7068248998839408
912,5.0,decreament,0.6,100.0,standard,11.0,3.0,1.0,
913,5.0,decreament,0.6,100.0,standard,11.0,3.0,1.0,
914,5.0,decreament,0.6,100.0,standard,11.0,3.0,1.0,
915,5.0,decreament,0.6,100.0,standard,11.0,3.0,1.0,
916,5.0,decreament,0.6,100.0,standard,11.0,3.0,0.0,1.124638999812305
917,5.0,decreament,0.6,100.0,standard,11.0,3.0,1.0,
918,5.0,decreament,0.6,100.0,standard,11.0,3.0,1.0,
919,5.0,decreament,0.36,60.0,oddball,13.0,3.0,0.0,
920,5.0,decreament,0.6,100.0,standard,11.0,3.0,1.0,
921,5.0,decreament,0.6,100.0,standard,11.0,3.0,1.0,
922,5.0,decreament,0.6,100.0,standard,11.0,3.0,1.0,
923,5.0,decreament,0.6,100.0,standard,11.0,3.0,1.0,
924,5.0,decreament,0.6,100.0,standard,11.0,3.0,1.0,
925,5.0,decreament,0.6,100.0,standard,11.0,3.0,1.0,
926,5.0,decreament,0.6,100.0,standard,11.0,3.0,1.0,
927,5.0,decreament,0.48,80.0,oddball,14.0,3.0,0.0,
928,5.0,decreament,0.6,100.0,standard,11.0,3.0,1.0,
929,5.0,decreament,0.6,100.0,standard,11.0,3.0,1.0,
930,5.0,increament,0.6,100.0,standard,15.0,3.0,1.0,
931,5.0,increament,0.6,100.0,standard,15.0,3.0,1.0,
932,5.0,increament,0.6,100.0,standard,15.0,3.0,1.0,
933,5.0,increament,0.6,100.0,standard,15.0,3.0,1.0,
934,5.0,increament,0.6,100.0,standard,15.0,3.0,1.0,
935,5.0,increament,0.6,100.0,standard,15.0,3.0,1.0,
936,5.0,increament,0.96,160.0,oddball,18.0,3.0,1.0,0.4993744997773319
937,5.0,increament,0.6,100.0,standard,15.0,3.0,1.0,
938,5.0,increament,0.6,100.0,standard,15.0,3.0,1.0,
939,5.0,increament,0.6,100.0,standard,15.0,3.0,1.0,
940,5.0,increament,0.6,100.0,standard,15.0,3.0,1.0,
941,5.0,increament,0.84,140.0,oddball,17.0,3.0,0.0,
942,5.0,increament,0.6,100.0,standard,15.0,3.0,1.0,
943,5.0,increament,0.6,100.0,standard,15.0,3.0,1.0,
944,5.0,increament,0.6,100.0,standard,15.0,3.0,1.0,
945,5.0,increament,0.6,100.0,standard,15.0,3.0,1.0,
946,5.0,increament,0.6,100.0,standard,15.0,3.0,1.0,
947,5.0,increament,0.6,100.0,standard,15.0,3.0,1.0,
948,5.0,increament,0.6,100.0,standard,15.0,3.0,1.0,
949,5.0,increament,0.6,100.0,standard,15.0,3.0,1.0,
950,5.0,increament,0.6,100.0,standard,15.0,3.0,1.0,
951,5.0,increament,0.72,120.0,oddball,16.0,3.0,0.0,
952,5.0,increament,0.6,100.0,standard,15.0,3.0,1.0,
953,5.0,increament,0.6,100.0,standard,15.0,3.0,1.0,
954,5.0,increament,0.6,100.0,standard,15.0,3.0,1.0,
955,5.0,increament,0.6,100.0,standard,15.0,3.0,1.0,
956,5.0,increament,0.6,100.0,standard,15.0,3.0,1.0,
957,5.0,increament,0.6,100.0,standard,15.0,3.0,1.0,
958,5.0,increament,0.6,100.0,standard,15.0,3.0,1.0,
959,5.0,increament,0.6,100.0,standard,15.0,3.0,1.0,
960,5.0,decreament,0.6,100.0,standard,11.0,3.0,1.0,
961,5.0,decreament,0.6,100.0,standard,11.0,3.0,1.0,
962,5.0,decreament,0.6,100.0,standard,11.0,3.0,1.0,
963,5.0,decreament,0.6,100.0,standard,11.0,3.0,1.0,
964,5.0,decreament,0.6,100.0,standard,11.0,3.0,1.0,
965,5.0,decreament,0.6,100.0,standard,11.0,3.0,1.0,
966,5.0,decreament,0.24,40.0,oddball,12.0,3.0,1.0,0.5205532999243587
967,5.0,decreament,0.6,100.0,standard,11.0,3.0,1.0,
968,5.0,decreament,0.6,100.0,standard,11.0,3.0,1.0,
969,5.0,decreament,0.6,100.0,standard,11.0,3.0,1.0,
970,5.0,decreament,0.6,100.0,standard,11.0,3.0,1.0,
971,5.0,decreament,0.6,100.0,standard,11.0,3.0,1.0,
972,5.0,decreament,0.6,100.0,standard,11.0,3.0,1.0,
973,5.0,decreament,0.6,100.0,standard,11.0,3.0,1.0,
974,5.0,decreament,0.36,60.0,oddball,13.0,3.0,1.0,0.573175499914214
975,5.0,decreament,0.6,100.0,standard,11.0,3.0,1.0,
976,5.0,decreament,0.6,100.0,standard,11.0,3.0,0.0,0.7706517998594791
977,5.0,decreament,0.6,100.0,standard,11.0,3.0,1.0,
978,5.0,decreament,0.6,100.0,standard,11.0,3.0,1.0,
979,5.0,decreament,0.6,100.0,standard,11.0,3.0,1.0,
980,5.0,decreament,0.6,100.0,standard,11.0,3.0,1.0,
981,5.0,decreament,0.6,100.0,standard,11.0,3.0,1.0,
982,5.0,decreament,0.6,100.0,standard,11.0,3.0,1.0,
983,5.0,decreament,0.48,80.0,oddball,14.0,3.0,0.0,
984,5.0,decreament,0.6,100.0,standard,11.0,3.0,1.0,
985,5.0,decreament,0.6,100.0,standard,11.0,3.0,1.0,
986,5.0,decreament,0.6,100.0,standard,11.0,3.0,1.0,
987,5.0,decreament,0.6,100.0,standard,11.0,3.0,1.0,
988,5.0,decreament,0.6,100.0,standard,11.0,3.0,1.0,
989,5.0,decreament,0.6,100.0,standard,11.0,3.0,0.0,1.5344435998704284
990,5.0,increament,0.6,100.0,standard,15.0,3.0,1.0,
991,5.0,increament,0.6,100.0,standard,15.0,3.0,1.0,
992,5.0,increament,0.6,100.0,standard,15.0,3.0,1.0,
993,5.0,increament,0.6,100.0,standard,15.0,3.0,1.0,
994,5.0,increament,0.6,100.0,standard,15.0,3.0,1.0,
995,5.0,increament,0.6,100.0,standard,15.0,3.0,1.0,
996,5.0,increament,0.72,120.0,oddball,16.0,3.0,0.0,
997,5.0,increament,0.6,100.0,standard,15.0,3.0,1.0,
998,5.0,increament,0.6,100.0,standard,15.0,3.0,1.0,
999,5.0,increament,0.6,100.0,standard,15.0,3.0,1.0,
1000,5.0,increament,0.6,100.0,standard,15.0,3.0,1.0,
1001,5.0,increament,0.6,100.0,standard,15.0,3.0,1.0,
1002,5.0,increament,0.6,100.0,standard,15.0,3.0,1.0,
1003,5.0,increament,0.6,100.0,standard,15.0,3.0,1.0,
1004,5.0,increament,0.6,100.0,standard,15.0,3.0,1.0,
1005,5.0,increament,0.6,100.0,standard,15.0,3.0,1.0,
1006,5.0,increament,0.6,100.0,standard,15.0,3.0,1.0,
1007,5.0,increament,0.6,100.0,standard,15.0,3.0,1.0,
1008,5.0,increament,0.84,140.0,oddball,17.0,3.0,1.0,0.6551691999193281
1009,5.0,increament,0.6,100.0,standard,15.0,3.0,1.0,
1010,5.0,increament,0.6,100.0,standard,15.0,3.0,1.0,
1011,5.0,increament,0.6,100.0,standard,15.0,3.0,1.0,
1012,5.0,increament,0.96,160.0,oddball,18.0,3.0,1.0,0.9705945998430252
1013,5.0,increament,0.6,100.0,standard,15.0,3.0,1.0,
1014,5.0,increament,0.6,100.0,standard,15.0,3.0,1.0,
1015,5.0,increament,0.6,100.0,standard,15.0,3.0,1.0,
1016,5.0,increament,0.6,100.0,standard,15.0,3.0,1.0,
1017,5.0,increament,0.6,100.0,standard,15.0,3.0,1.0,
1018,5.0,increament,0.6,100.0,standard,15.0,3.0,1.0,
1019,5.0,increament,0.6,100.0,standard,15.0,3.0,1.0,
1020,5.0,decreament,0.6,100.0,standard,11.0,3.0,1.0,
1021,5.0,decreament,0.6,100.0,standard,11.0,3.0,1.0,
1022,5.0,decreament,0.6,100.0,standard,11.0,3.0,1.0,
1023,5.0,decreament,0.6,100.0,standard,11.0,3.0,1.0,
1024,5.0,decreament,0.6,100.0,standard,11.0,3.0,1.0,
1025,5.0,decreament,0.6,100.0,standard,11.0,3.0,1.0,
1026,5.0,decreament,0.6,100.0,standard,11.0,3.0,1.0,
1027,5.0,decreament,0.6,100.0,standard,11.0,3.0,1.0,
1028,5.0,decreament,0.6,100.0,standard,11.0,3.0,1.0,
1029,5.0,decreament,0.6,100.0,standard,11.0,3.0,1.0,
1030,5.0,decreament,0.6,100.0,standard,11.0,3.0,1.0,
1031,5.0,decreament,0.6,100.0,standard,11.0,3.0,1.0,
1032,5.0,decreament,0.6,100.0,standard,11.0,3.0,1.0,
1033,5.0,decreament,0.6,100.0,standard,11.0,3.0,1.0,
1034,5.0,decreament,0.6,100.0,standard,11.0,3.0,1.0,
1035,5.0,decreament,0.6,100.0,standard,11.0,3.0,0.0,1.1016728999093175
1036,5.0,decreament,0.6,100.0,standard,11.0,3.0,1.0,
1037,5.0,decreament,0.24,40.0,oddball,12.0,3.0,1.0,0.7984851999208331
1038,5.0,decreament,0.6,100.0,standard,11.0,3.0,1.0,
1039,5.0,decreament,0.6,100.0,standard,11.0,3.0,1.0,
1040,5.0,decreament,0.6,100.0,standard,11.0,3.0,1.0,
1041,5.0,decreament,0.6,100.0,standard,11.0,3.0,1.0,
1042,5.0,decreament,0.36,60.0,oddball,13.0,3.0,1.0,0.7022028998471797
1043,5.0,decreament,0.6,100.0,standard,11.0,3.0,1.0,
1044,5.0,decreament,0.6,100.0,standard,11.0,3.0,1.0,
1045,5.0,decreament,0.6,100.0,standard,11.0,3.0,1.0,
1046,5.0,decreament,0.48,80.0,oddball,14.0,3.0,0.0,
1047,5.0,decreament,0.6,100.0,standard,11.0,3.0,1.0,
1048,5.0,decreament,0.6,100.0,standard,11.0,3.0,1.0,
1049,5.0,decreament,0.6,100.0,standard,11.0,3.0,1.0,
1050,5.0,increament,0.6,100.0,standard,15.0,3.0,1.0,
1051,5.0,increament,0.6,100.0,standard,15.0,3.0,1.0,
1052,5.0,increament,0.6,100.0,standard,15.0,3.0,1.0,
1053,5.0,increament,0.6,100.0,standard,15.0,3.0,1.0,
1054,5.0,increament,0.6,100.0,standard,15.0,3.0,1.0,
1055,5.0,increament,0.6,100.0,standard,15.0,3.0,1.0,
1056,5.0,increament,0.6,100.0,standard,15.0,3.0,1.0,
1057,5.0,increament,0.84,140.0,oddball,17.0,3.0,1.0,0.420317200012505
1058,5.0,increament,0.6,100.0,standard,15.0,3.0,1.0,
1059,5.0,increament,0.6,100.0,standard,15.0,3.0,1.0,
1060,5.0,increament,0.6,100.0,standard,15.0,3.0,1.0,
1061,5.0,increament,0.6,100.0,standard,15.0,3.0,1.0,
1062,5.0,increament,0.6,100.0,standard,15.0,3.0,1.0,
1063,5.0,increament,0.96,160.0,oddball,18.0,3.0,1.0,0.7908461999613792
1064,5.0,increament,0.6,100.0,standard,15.0,3.0,1.0,
1065,5.0,increament,0.6,100.0,standard,15.0,3.0,1.0,
1066,5.0,increament,0.6,100.0,standard,15.0,3.0,1.0,
1067,5.0,increament,0.6,100.0,standard,15.0,3.0,1.0,
1068,5.0,increament,0.72,120.0,oddball,16.0,3.0,0.0,
1069,5.0,increament,0.6,100.0,standard,15.0,3.0,1.0,
1070,5.0,increament,0.6,100.0,standard,15.0,3.0,1.0,
1071,5.0,increament,0.6,100.0,standard,15.0,3.0,1.0,
1072,5.0,increament,0.6,100.0,standard,15.0,3.0,1.0,
1073,5.0,increament,0.6,100.0,standard,15.0,3.0,1.0,
1074,5.0,increament,0.6,100.0,standard,15.0,3.0,1.0,
1075,5.0,increament,0.6,100.0,standard,15.0,3.0,1.0,
1076,5.0,increament,0.6,100.0,standard,15.0,3.0,1.0,
1077,5.0,increament,0.6,100.0,standard,15.0,3.0,1.0,
1078,5.0,increament,0.6,100.0,standard,15.0,3.0,1.0,
1079,5.0,increament,0.6,100.0,standard,15.0,3.0,1.0,
1080,5.0,decreament,0.6,100.0,standard,11.0,3.0,1.0,
1081,5.0,decreament,0.6,100.0,standard,11.0,3.0,1.0,
1082,5.0,decreament,0.6,100.0,standard,11.0,3.0,1.0,
1083,5.0,decreament,0.6,100.0,standard,11.0,3.0,1.0,
1084,5.0,decreament,0.6,100.0,standard,11.0,3.0,1.0,
1085,5.0,decreament,0.36,60.0,oddball,13.0,3.0,0.0,
1086,5.0,decreament,0.6,100.0,standard,11.0,3.0,1.0,
1087,5.0,decreament,0.6,100.0,standard,11.0,3.0,1.0,
1088,5.0,decreament,0.6,100.0,standard,11.0,3.0,1.0,
1089,5.0,decreament,0.48,80.0,oddball,14.0,3.0,1.0,1.2882272000424564
1090,5.0,decreament,0.6,100.0,standard,11.0,3.0,1.0,
1091,5.0,decreament,0.6,100.0,standard,11.0,3.0,1.0,
1092,5.0,decreament,0.6,100.0,standard,11.0,3.0,1.0,
1093,5.0,decreament,0.6,100.0,standard,11.0,3.0,1.0,
1094,5.0,decreament,0.6,100.0,standard,11.0,3.0,1.0,
1095,5.0,decreament,0.6,100.0,standard,11.0,3.0,1.0,
1096,5.0,decreament,0.6,100.0,standard,11.0,3.0,1.0,
1097,5.0,decreament,0.6,100.0,standard,11.0,3.0,1.0,
1098,5.0,decreament,0.24,40.0,oddball,12.0,3.0,1.0,0.6184284996706992
1099,5.0,decreament,0.6,100.0,standard,11.0,3.0,1.0,
1100,5.0,decreament,0.6,100.0,standard,11.0,3.0,1.0,
1101,5.0,decreament,0.6,100.0,standard,11.0,3.0,1.0,
1102,5.0,decreament,0.6,100.0,standard,11.0,3.0,1.0,
1103,5.0,decreament,0.6,100.0,standard,11.0,3.0,1.0,
1104,5.0,decreament,0.6,100.0,standard,11.0,3.0,1.0,
1105,5.0,decreament,0.6,100.0,standard,11.0,3.0,1.0,
1106,5.0,decreament,0.6,100.0,standard,11.0,3.0,1.0,
1107,5.0,decreament,0.6,100.0,standard,11.0,3.0,1.0,
1108,5.0,decreament,0.6,100.0,standard,11.0,3.0,1.0,
1109,5.0,decreament,0.6,100.0,standard,11.0,3.0,1.0,
1110,5.0,increament,0.6,100.0,standard,15.0,3.0,1.0,
1111,5.0,increament,0.6,100.0,standard,15.0,3.0,1.0,
1112,5.0,increament,0.6,100.0,standard,15.0,3.0,1.0,
1113,5.0,increament,0.6,100.0,standard,15.0,3.0,1.0,
1114,5.0,increament,0.6,100.0,standard,15.0,3.0,1.0,
1115,5.0,increament,0.6,100.0,standard,15.0,3.0,1.0,
1116,5.0,increament,0.6,100.0,standard,15.0,3.0,1.0,
1117,5.0,increament,0.96,160.0,oddball,18.0,3.0,1.0,0.8864980998914689
1118,5.0,increament,0.6,100.0,standard,15.0,3.0,1.0,
1119,5.0,increament,0.6,100.0,standard,15.0,3.0,1.0,
1120,5.0,increament,0.6,100.0,standard,15.0,3.0,1.0,
1121,5.0,increament,0.6,100.0,standard,15.0,3.0,1.0,
1122,5.0,increament,0.6,100.0,standard,15.0,3.0,1.0,
1123,5.0,increament,0.6,100.0,standard,15.0,3.0,1.0,
1124,5.0,increament,0.84,140.0,oddball,17.0,3.0,1.0,0.5350934998132288
1125,5.0,increament,0.6,100.0,standard,15.0,3.0,1.0,
1126,5.0,increament,0.6,100.0,standard,15.0,3.0,1.0,
1127,5.0,increament,0.6,100.0,standard,15.0,3.0,1.0,
1128,5.0,increament,0.6,100.0,standard,15.0,3.0,1.0,
1129,5.0,increament,0.6,100.0,standard,15.0,3.0,1.0,
1130,5.0,increament,0.6,100.0,standard,15.0,3.0,1.0,
1131,5.0,increament,0.6,100.0,standard,15.0,3.0,1.0,
1132,5.0,increament,0.6,100.0,standard,15.0,3.0,1.0,
1133,5.0,increament,0.6,100.0,standard,15.0,3.0,1.0,
1134,5.0,increament,0.6,100.0,standard,15.0,3.0,1.0,
1135,5.0,increament,0.6,100.0,standard,15.0,3.0,1.0,
1136,5.0,increament,0.6,100.0,standard,15.0,3.0,1.0,
1137,5.0,increament,0.72,120.0,oddball,16.0,3.0,0.0,
1138,5.0,increament,0.6,100.0,standard,15.0,3.0,1.0,
1139,5.0,increament,0.6,100.0,standard,15.0,3.0,1.0,
1140,5.0,decreament,0.6,100.0,standard,11.0,3.0,1.0,
1141,5.0,decreament,0.6,100.0,standard,11.0,3.0,1.0,
1142,5.0,decreament,0.6,100.0,standard,11.0,3.0,1.0,
1143,5.0,decreament,0.6,100.0,standard,11.0,3.0,1.0,
1144,5.0,decreament,0.6,100.0,standard,11.0,3.0,1.0,
1145,5.0,decreament,0.6,100.0,standard,11.0,3.0,1.0,
1146,5.0,decreament,0.6,100.0,standard,11.0,3.0,1.0,
1147,5.0,decreament,0.36,60.0,oddball,13.0,3.0,1.0,1.1867674998939035
1148,5.0,decreament,0.6,100.0,standard,11.0,3.0,1.0,
1149,5.0,decreament,0.6,100.0,standard,11.0,3.0,1.0,
1150,5.0,decreament,0.6,100.0,standard,11.0,3.0,1.0,
1151,5.0,decreament,0.48,80.0,oddball,14.0,3.0,0.0,
1152,5.0,decreament,0.6,100.0,standard,11.0,3.0,1.0,
1153,5.0,decreament,0.6,100.0,standard,11.0,3.0,1.0,
1154,5.0,decreament,0.6,100.0,standard,11.0,3.0,1.0,
1155,5.0,decreament,0.6,100.0,standard,11.0,3.0,1.0,
1156,5.0,decreament,0.6,100.0,standard,11.0,3.0,0.0,0.9693993998225778
1157,5.0,decreament,0.6,100.0,standard,11.0,3.0,1.0,
1158,5.0,decreament,0.6,100.0,standard,11.0,3.0,1.0,
1159,5.0,decreament,0.6,100.0,standard,11.0,3.0,1.0,
1160,5.0,decreament,0.6,100.0,standard,11.0,3.0,1.0,
1161,5.0,decreament,0.6,100.0,standard,11.0,3.0,1.0,
1162,5.0,decreament,0.6,100.0,standard,11.0,3.0,1.0,
1163,5.0,decreament,0.24,40.0,oddball,12.0,3.0,1.0,0.757536499761045
1164,5.0,decreament,0.6,100.0,standard,11.0,3.0,1.0,
1165,5.0,decreament,0.6,100.0,standard,11.0,3.0,1.0,
1166,5.0,decreament,0.6,100.0,standard,11.0,3.0,1.0,
1167,5.0,decreament,0.6,100.0,standard,11.0,3.0,1.0,
1168,5.0,decreament,0.6,100.0,standard,11.0,3.0,1.0,
1169,5.0,decreament,0.6,100.0,standard,11.0,3.0,1.0,
1170,5.0,increament,0.6,100.0,standard,15.0,3.0,1.0,
1171,5.0,increament,0.6,100.0,standard,15.0,3.0,1.0,
1172,5.0,increament,0.6,100.0,standard,15.0,3.0,1.0,
1173,5.0,increament,0.6,100.0,standard,15.0,3.0,1.0,
1174,5.0,increament,0.6,100.0,standard,15.0,3.0,1.0,
1175,5.0,increament,0.6,100.0,standard,15.0,3.0,1.0,
1176,5.0,increament,0.6,100.0,standard,15.0,3.0,1.0,
1177,5.0,increament,0.6,100.0,standard,15.0,3.0,1.0,
1178,5.0,increament,0.6,100.0,standard,15.0,3.0,1.0,
1179,5.0,increament,0.6,100.0,standard,15.0,3.0,1.0,
1180,5.0,increament,0.72,120.0,oddball,16.0,3.0,0.0,
1181,5.0,increament,0.6,100.0,standard,15.0,3.0,1.0,
1182,5.0,increament,0.6,100.0,standard,15.0,3.0,1.0,
1183,5.0,increament,0.6,100.0,standard,15.0,3.0,1.0,
1184,5.0,increament,0.6,100.0,standard,15.0,3.0,1.0,
1185,5.0,increament,0.6,100.0,standard,15.0,3.0,1.0,
1186,5.0,increament,0.6,100.0,standard,15.0,3.0,1.0,
1187,5.0,increament,0.6,100.0,standard,15.0,3.0,1.0,
1188,5.0,increament,0.6,100.0,standard,15.0,3.0,1.0,
1189,5.0,increament,0.6,100.0,standard,15.0,3.0,1.0,
1190,5.0,increament,0.84,140.0,oddball,17.0,3.0,0.0,
1191,5.0,increament,0.6,100.0,standard,15.0,3.0,1.0,
1192,5.0,increament,0.6,100.0,standard,15.0,3.0,1.0,
1193,5.0,increament,0.6,100.0,standard,15.0,3.0,1.0,
1194,5.0,increament,0.96,160.0,oddball,18.0,3.0,1.0,0.5239742998965085
1195,5.0,increament,0.6,100.0,standard,15.0,3.0,1.0,
1196,5.0,increament,0.6,100.0,standard,15.0,3.0,1.0,
1197,5.0,increament,0.6,100.0,standard,15.0,3.0,1.0,
1198,5.0,increament,0.6,100.0,standard,15.0,3.0,1.0,
1199,5.0,increament,0.6,100.0,standard,15.0,3.0,1.0,
