,grating_freq,direction,duration,scaling,stim_type,trigger,blocks.thisN,resp.corr,resp.rt
0,20.0,decreament,0.6,100.0,standard,41.0,0.0,1.0,
1,20.0,decreament,0.6,100.0,standard,41.0,0.0,1.0,
2,20.0,decreament,0.6,100.0,standard,41.0,0.0,1.0,
3,20.0,decreament,0.6,100.0,standard,41.0,0.0,1.0,
4,20.0,decreament,0.6,100.0,standard,41.0,0.0,1.0,
5,20.0,decreament,0.6,100.0,standard,41.0,0.0,1.0,
6,20.0,decreament,0.6,100.0,standard,41.0,0.0,1.0,
7,20.0,decreament,0.6,100.0,standard,41.0,0.0,1.0,
8,20.0,decreament,0.24,40.0,oddball,42.0,0.0,1.0,0.472662900108844
9,20.0,decreament,0.6,100.0,standard,41.0,0.0,1.0,
10,20.0,decreament,0.6,100.0,standard,41.0,0.0,1.0,
11,20.0,decreament,0.6,100.0,standard,41.0,0.0,1.0,
12,20.0,decreament,0.6,100.0,standard,41.0,0.0,1.0,
13,20.0,decreament,0.6,100.0,standard,41.0,0.0,1.0,
14,20.0,decreament,0.6,100.0,standard,41.0,0.0,1.0,
15,20.0,decreament,0.6,100.0,standard,41.0,0.0,1.0,
16,20.0,decreament,0.6,100.0,standard,41.0,0.0,1.0,
17,20.0,decreament,0.6,100.0,standard,41.0,0.0,0.0,0.5225853999145329
18,20.0,decreament,0.6,100.0,standard,41.0,0.0,1.0,
19,20.0,decreament,0.6,100.0,standard,41.0,0.0,1.0,
20,20.0,decreament,0.6,100.0,standard,41.0,0.0,1.0,
21,20.0,decreament,0.36,60.0,oddball,43.0,0.0,1.0,0.5767550999298692
22,20.0,decreament,0.6,100.0,standard,41.0,0.0,1.0,
23,20.0,decreament,0.6,100.0,standard,41.0,0.0,0.0,0.7074908996000886
24,20.0,decreament,0.6,100.0,standard,41.0,0.0,1.0,
25,20.0,decreament,0.6,100.0,standard,41.0,0.0,1.0,
26,20.0,decreament,0.48,80.0,oddball,44.0,0.0,1.0,0.8570790002122521
27,20.0,decreament,0.6,100.0,standard,41.0,0.0,1.0,
28,20.0,decreament,0.6,100.0,standard,41.0,0.0,1.0,
29,20.0,decreament,0.6,100.0,standard,41.0,0.0,1.0,
30,20.0,increament,0.6,100.0,standard,45.0,0.0,1.0,
31,20.0,increament,0.6,100.0,standard,45.0,0.0,1.0,
32,20.0,increament,0.6,100.0,standard,45.0,0.0,1.0,
33,20.0,increament,0.6,100.0,standard,45.0,0.0,1.0,
34,20.0,increament,0.6,100.0,standard,45.0,0.0,1.0,
35,20.0,increament,0.6,100.0,standard,45.0,0.0,1.0,
36,20.0,increament,0.6,100.0,standard,45.0,0.0,1.0,
37,20.0,increament,0.6,100.0,standard,45.0,0.0,1.0,
38,20.0,increament,0.6,100.0,standard,45.0,0.0,1.0,
39,20.0,increament,0.6,100.0,standard,45.0,0.0,1.0,
40,20.0,increament,0.6,100.0,standard,45.0,0.0,1.0,
41,20.0,increament,0.6,100.0,standard,45.0,0.0,1.0,
42,20.0,increament,0.6,100.0,standard,45.0,0.0,1.0,
43,20.0,increament,0.6,100.0,standard,45.0,0.0,1.0,
44,20.0,increament,0.96,160.0,oddball,48.0,0.0,1.0,0.3422866999171674
45,20.0,increament,0.6,100.0,standard,45.0,0.0,1.0,
46,20.0,increament,0.6,100.0,standard,45.0,0.0,0.0,1.7176089002750814
47,20.0,increament,0.6,100.0,standard,45.0,0.0,1.0,
48,20.0,increament,0.6,100.0,standard,45.0,0.0,1.0,
49,20.0,increament,0.6,100.0,standard,45.0,0.0,1.0,
50,20.0,increament,0.6,100.0,standard,45.0,0.0,1.0,
51,20.0,increament,0.6,100.0,standard,45.0,0.0,1.0,
52,20.0,increament,0.6,100.0,standard,45.0,0.0,0.0,0.6314795999787748
53,20.0,increament,0.72,120.0,oddball,46.0,0.0,0.0,
54,20.0,increament,0.6,100.0,standard,45.0,0.0,1.0,
55,20.0,increament,0.6,100.0,standard,45.0,0.0,1.0,
56,20.0,increament,0.6,100.0,standard,45.0,0.0,1.0,
57,20.0,increament,0.6,100.0,standard,45.0,0.0,1.0,
58,20.0,increament,0.6,100.0,standard,45.0,0.0,0.0,0.1042353003285825
59,20.0,increament,0.84,140.0,oddball,47.0,0.0,1.0,0.227745400276035
60,20.0,decreament,0.6,100.0,standard,41.0,0.0,1.0,
61,20.0,decreament,0.6,100.0,standard,41.0,0.0,1.0,
62,20.0,decreament,0.6,100.0,standard,41.0,0.0,1.0,
63,20.0,decreament,0.6,100.0,standard,41.0,0.0,1.0,
64,20.0,decreament,0.6,100.0,standard,41.0,0.0,1.0,
65,20.0,decreament,0.6,100.0,standard,41.0,0.0,1.0,
66,20.0,decreament,0.6,100.0,standard,41.0,0.0,1.0,
67,20.0,decreament,0.36,60.0,oddball,43.0,0.0,0.0,
68,20.0,decreament,0.6,100.0,standard,41.0,0.0,1.0,
69,20.0,decreament,0.6,100.0,standard,41.0,0.0,1.0,
70,20.0,decreament,0.6,100.0,standard,41.0,0.0,1.0,
71,20.0,decreament,0.6,100.0,standard,41.0,0.0,1.0,
72,20.0,decreament,0.6,100.0,standard,41.0,0.0,1.0,
73,20.0,decreament,0.6,100.0,standard,41.0,0.0,1.0,
74,20.0,decreament,0.6,100.0,standard,41.0,0.0,1.0,
75,20.0,decreament,0.6,100.0,standard,41.0,0.0,1.0,
76,20.0,decreament,0.6,100.0,standard,41.0,0.0,0.0,1.8100447999313476
77,20.0,decreament,0.6,100.0,standard,41.0,0.0,1.0,
78,20.0,decreament,0.6,100.0,standard,41.0,0.0,1.0,
79,20.0,decreament,0.6,100.0,standard,41.0,0.0,1.0,
80,20.0,decreament,0.6,100.0,standard,41.0,0.0,1.0,
81,20.0,decreament,0.24,40.0,oddball,42.0,0.0,1.0,0.6227011000737548
82,20.0,decreament,0.6,100.0,standard,41.0,0.0,1.0,
83,20.0,decreament,0.6,100.0,standard,41.0,0.0,1.0,
84,20.0,decreament,0.6,100.0,standard,41.0,0.0,1.0,
85,20.0,decreament,0.6,100.0,standard,41.0,0.0,1.0,
86,20.0,decreament,0.6,100.0,standard,41.0,0.0,0.0,0.7223642999306321
87,20.0,decreament,0.48,80.0,oddball,44.0,0.0,0.0,
88,20.0,decreament,0.6,100.0,standard,41.0,0.0,1.0,
89,20.0,decreament,0.6,100.0,standard,41.0,0.0,1.0,
90,20.0,increament,0.6,100.0,standard,45.0,0.0,1.0,
91,20.0,increament,0.6,100.0,standard,45.0,0.0,1.0,
92,20.0,increament,0.6,100.0,standard,45.0,0.0,1.0,
93,20.0,increament,0.6,100.0,standard,45.0,0.0,1.0,
94,20.0,increament,0.6,100.0,standard,45.0,0.0,1.0,
95,20.0,increament,0.6,100.0,standard,45.0,0.0,1.0,
96,20.0,increament,0.6,100.0,standard,45.0,0.0,1.0,
97,20.0,increament,0.6,100.0,standard,45.0,0.0,1.0,
98,20.0,increament,0.6,100.0,standard,45.0,0.0,1.0,
99,20.0,increament,0.96,160.0,oddball,48.0,0.0,1.0,0.0796627001836896
100,20.0,increament,0.6,100.0,standard,45.0,0.0,1.0,
101,20.0,increament,0.6,100.0,standard,45.0,0.0,1.0,
102,20.0,increament,0.6,100.0,standard,45.0,0.0,1.0,
103,20.0,increament,0.6,100.0,standard,45.0,0.0,1.0,
104,20.0,increament,0.6,100.0,standard,45.0,0.0,1.0,
105,20.0,increament,0.6,100.0,standard,45.0,0.0,1.0,
106,20.0,increament,0.6,100.0,standard,45.0,0.0,1.0,
107,20.0,increament,0.6,100.0,standard,45.0,0.0,1.0,
108,20.0,increament,0.6,100.0,standard,45.0,0.0,1.0,
109,20.0,increament,0.72,120.0,oddball,46.0,0.0,1.0,0.3477302002720535
110,20.0,increament,0.6,100.0,standard,45.0,0.0,1.0,
111,20.0,increament,0.6,100.0,standard,45.0,0.0,1.0,
112,20.0,increament,0.6,100.0,standard,45.0,0.0,1.0,
113,20.0,increament,0.6,100.0,standard,45.0,0.0,1.0,
114,20.0,increament,0.6,100.0,standard,45.0,0.0,1.0,
115,20.0,increament,0.6,100.0,standard,45.0,0.0,1.0,
116,20.0,increament,0.6,100.0,standard,45.0,0.0,0.0,0.2803159998729825
117,20.0,increament,0.6,100.0,standard,45.0,0.0,1.0,
118,20.0,increament,0.6,100.0,standard,45.0,0.0,1.0,
119,20.0,increament,0.84,140.0,oddball,47.0,0.0,1.0,0.5678273001685739
120,20.0,decreament,0.6,100.0,standard,41.0,0.0,1.0,
121,20.0,decreament,0.6,100.0,standard,41.0,0.0,1.0,
122,20.0,decreament,0.6,100.0,standard,41.0,0.0,1.0,
123,20.0,decreament,0.6,100.0,standard,41.0,0.0,1.0,
124,20.0,decreament,0.6,100.0,standard,41.0,0.0,1.0,
125,20.0,decreament,0.24,40.0,oddball,42.0,0.0,0.0,
126,20.0,decreament,0.6,100.0,standard,41.0,0.0,1.0,
127,20.0,decreament,0.6,100.0,standard,41.0,0.0,1.0,
128,20.0,decreament,0.6,100.0,standard,41.0,0.0,1.0,
129,20.0,decreament,0.6,100.0,standard,41.0,0.0,1.0,
130,20.0,decreament,0.6,100.0,standard,41.0,0.0,1.0,
131,20.0,decreament,0.6,100.0,standard,41.0,0.0,1.0,
132,20.0,decreament,0.6,100.0,standard,41.0,0.0,1.0,
133,20.0,decreament,0.48,80.0,oddball,44.0,0.0,0.0,
134,20.0,decreament,0.6,100.0,standard,41.0,0.0,1.0,
135,20.0,decreament,0.6,100.0,standard,41.0,0.0,1.0,
136,20.0,decreament,0.6,100.0,standard,41.0,0.0,1.0,
137,20.0,decreament,0.6,100.0,standard,41.0,0.0,1.0,
138,20.0,decreament,0.36,60.0,oddball,43.0,0.0,1.0,0.6834460999816656
139,20.0,decreament,0.6,100.0,standard,41.0,0.0,1.0,
140,20.0,decreament,0.6,100.0,standard,41.0,0.0,1.0,
141,20.0,decreament,0.6,100.0,standard,41.0,0.0,1.0,
142,20.0,decreament,0.6,100.0,standard,41.0,0.0,0.0,0.5320472000166774
143,20.0,decreament,0.6,100.0,standard,41.0,0.0,1.0,
144,20.0,decreament,0.6,100.0,standard,41.0,0.0,1.0,
145,20.0,decreament,0.6,100.0,standard,41.0,0.0,1.0,
146,20.0,decreament,0.6,100.0,standard,41.0,0.0,1.0,
147,20.0,decreament,0.6,100.0,standard,41.0,0.0,1.0,
148,20.0,decreament,0.6,100.0,standard,41.0,0.0,1.0,
149,20.0,decreament,0.6,100.0,standard,41.0,0.0,1.0,
150,20.0,increament,0.6,100.0,standard,45.0,0.0,1.0,
151,20.0,increament,0.6,100.0,standard,45.0,0.0,1.0,
152,20.0,increament,0.6,100.0,standard,45.0,0.0,1.0,
153,20.0,increament,0.6,100.0,standard,45.0,0.0,1.0,
154,20.0,increament,0.6,100.0,standard,45.0,0.0,1.0,
155,20.0,increament,0.6,100.0,standard,45.0,0.0,1.0,
156,20.0,increament,0.72,120.0,oddball,46.0,0.0,0.0,
157,20.0,increament,0.6,100.0,standard,45.0,0.0,1.0,
158,20.0,increament,0.6,100.0,standard,45.0,0.0,1.0,
159,20.0,increament,0.6,100.0,standard,45.0,0.0,1.0,
160,20.0,increament,0.6,100.0,standard,45.0,0.0,1.0,
161,20.0,increament,0.6,100.0,standard,45.0,0.0,1.0,
162,20.0,increament,0.6,100.0,standard,45.0,0.0,1.0,
163,20.0,increament,0.6,100.0,standard,45.0,0.0,1.0,
164,20.0,increament,0.6,100.0,standard,45.0,0.0,1.0,
165,20.0,increament,0.6,100.0,standard,45.0,0.0,0.0,0.3184911999851465
166,20.0,increament,0.6,100.0,standard,45.0,0.0,1.0,
167,20.0,increament,0.84,140.0,oddball,47.0,0.0,1.0,0.6589585999026895
168,20.0,increament,0.6,100.0,standard,45.0,0.0,1.0,
169,20.0,increament,0.6,100.0,standard,45.0,0.0,1.0,
170,20.0,increament,0.6,100.0,standard,45.0,0.0,1.0,
171,20.0,increament,0.6,100.0,standard,45.0,0.0,1.0,
172,20.0,increament,0.96,160.0,oddball,48.0,0.0,1.0,0.1085808002389967
173,20.0,increament,0.6,100.0,standard,45.0,0.0,1.0,
174,20.0,increament,0.6,100.0,standard,45.0,0.0,1.0,
175,20.0,increament,0.6,100.0,standard,45.0,0.0,1.0,
176,20.0,increament,0.6,100.0,standard,45.0,0.0,1.0,
177,20.0,increament,0.6,100.0,standard,45.0,0.0,1.0,
178,20.0,increament,0.6,100.0,standard,45.0,0.0,1.0,
179,20.0,increament,0.6,100.0,standard,45.0,0.0,1.0,
180,20.0,decreament,0.6,100.0,standard,41.0,0.0,1.0,
181,20.0,decreament,0.6,100.0,standard,41.0,0.0,1.0,
182,20.0,decreament,0.6,100.0,standard,41.0,0.0,1.0,
183,20.0,decreament,0.6,100.0,standard,41.0,0.0,1.0,
184,20.0,decreament,0.6,100.0,standard,41.0,0.0,1.0,
185,20.0,decreament,0.6,100.0,standard,41.0,0.0,1.0,
186,20.0,decreament,0.6,100.0,standard,41.0,0.0,1.0,
187,20.0,decreament,0.6,100.0,standard,41.0,0.0,1.0,
188,20.0,decreament,0.6,100.0,standard,41.0,0.0,1.0,
189,20.0,decreament,0.6,100.0,standard,41.0,0.0,1.0,
190,20.0,decreament,0.6,100.0,standard,41.0,0.0,1.0,
191,20.0,decreament,0.6,100.0,standard,41.0,0.0,1.0,
192,20.0,decreament,0.6,100.0,standard,41.0,0.0,1.0,
193,20.0,decreament,0.6,100.0,standard,41.0,0.0,1.0,
194,20.0,decreament,0.6,100.0,standard,41.0,0.0,1.0,
195,20.0,decreament,0.6,100.0,standard,41.0,0.0,1.0,
196,20.0,decreament,0.48,80.0,oddball,44.0,0.0,1.0,0.8779420997016132
197,20.0,decreament,0.6,100.0,standard,41.0,0.0,1.0,
198,20.0,decreament,0.6,100.0,standard,41.0,0.0,1.0,
199,20.0,decreament,0.6,100.0,standard,41.0,0.0,1.0,
200,20.0,decreament,0.6,100.0,standard,41.0,0.0,1.0,
201,20.0,decreament,0.36,60.0,oddball,43.0,0.0,1.0,0.5880873003043234
202,20.0,decreament,0.6,100.0,standard,41.0,0.0,1.0,
203,20.0,decreament,0.6,100.0,standard,41.0,0.0,1.0,
204,20.0,decreament,0.6,100.0,standard,41.0,0.0,1.0,
205,20.0,decreament,0.24,40.0,oddball,42.0,0.0,1.0,0.4353235000744462
206,20.0,decreament,0.6,100.0,standard,41.0,0.0,1.0,
207,20.0,decreament,0.6,100.0,standard,41.0,0.0,1.0,
208,20.0,decreament,0.6,100.0,standard,41.0,0.0,1.0,
209,20.0,decreament,0.6,100.0,standard,41.0,0.0,1.0,
210,20.0,increament,0.6,100.0,standard,45.0,0.0,1.0,
211,20.0,increament,0.6,100.0,standard,45.0,0.0,1.0,
212,20.0,increament,0.6,100.0,standard,45.0,0.0,1.0,
213,20.0,increament,0.6,100.0,standard,45.0,0.0,1.0,
214,20.0,increament,0.6,100.0,standard,45.0,0.0,1.0,
215,20.0,increament,0.6,100.0,standard,45.0,0.0,1.0,
216,20.0,increament,0.6,100.0,standard,45.0,0.0,1.0,
217,20.0,increament,0.6,100.0,standard,45.0,0.0,1.0,
218,20.0,increament,0.6,100.0,standard,45.0,0.0,0.0,0.3099249000661075
219,20.0,increament,0.6,100.0,standard,45.0,0.0,1.0,
220,20.0,increament,0.6,100.0,standard,45.0,0.0,1.0,
221,20.0,increament,0.6,100.0,standard,45.0,0.0,0.0,1.158407500013709
222,20.0,increament,0.72,120.0,oddball,46.0,0.0,0.0,
223,20.0,increament,0.6,100.0,standard,45.0,0.0,1.0,
224,20.0,increament,0.6,100.0,standard,45.0,0.0,1.0,
225,20.0,increament,0.6,100.0,standard,45.0,0.0,0.0,0.31345280027017
226,20.0,increament,0.6,100.0,standard,45.0,0.0,1.0,
227,20.0,increament,0.6,100.0,standard,45.0,0.0,1.0,
228,20.0,increament,0.6,100.0,standard,45.0,0.0,1.0,
229,20.0,increament,0.6,100.0,standard,45.0,0.0,0.0,0.3648040001280606
230,20.0,increament,0.6,100.0,standard,45.0,0.0,0.0,0.3114764001220464
231,20.0,increament,0.6,100.0,standard,45.0,0.0,1.0,
232,20.0,increament,0.84,140.0,oddball,47.0,0.0,1.0,0.3317440999671817
233,20.0,increament,0.6,100.0,standard,45.0,0.0,1.0,
234,20.0,increament,0.6,100.0,standard,45.0,0.0,1.0,
235,20.0,increament,0.6,100.0,standard,45.0,0.0,1.0,
236,20.0,increament,0.6,100.0,standard,45.0,0.0,0.0,0.1572937001474201
237,20.0,increament,0.6,100.0,standard,45.0,0.0,1.0,
238,20.0,increament,0.96,160.0,oddball,48.0,0.0,1.0,0.2487846999429166
239,20.0,increament,0.6,100.0,standard,45.0,0.0,1.0,
240,20.0,decreament,0.6,100.0,standard,41.0,0.0,1.0,
241,20.0,decreament,0.6,100.0,standard,41.0,0.0,1.0,
242,20.0,decreament,0.6,100.0,standard,41.0,0.0,1.0,
243,20.0,decreament,0.6,100.0,standard,41.0,0.0,1.0,
244,20.0,decreament,0.6,100.0,standard,41.0,0.0,1.0,
245,20.0,decreament,0.6,100.0,standard,41.0,0.0,1.0,
246,20.0,decreament,0.6,100.0,standard,41.0,0.0,1.0,
247,20.0,decreament,0.6,100.0,standard,41.0,0.0,1.0,
248,20.0,decreament,0.6,100.0,standard,41.0,0.0,1.0,
249,20.0,decreament,0.6,100.0,standard,41.0,0.0,1.0,
250,20.0,decreament,0.6,100.0,standard,41.0,0.0,1.0,
251,20.0,decreament,0.6,100.0,standard,41.0,0.0,1.0,
252,20.0,decreament,0.36,60.0,oddball,43.0,0.0,1.0,0.6950274999253452
253,20.0,decreament,0.6,100.0,standard,41.0,0.0,1.0,
254,20.0,decreament,0.6,100.0,standard,41.0,0.0,1.0,
255,20.0,decreament,0.6,100.0,standard,41.0,0.0,1.0,
256,20.0,decreament,0.48,80.0,oddball,44.0,0.0,0.0,
257,20.0,decreament,0.6,100.0,standard,41.0,0.0,1.0,
258,20.0,decreament,0.6,100.0,standard,41.0,0.0,1.0,
259,20.0,decreament,0.6,100.0,standard,41.0,0.0,1.0,
260,20.0,decreament,0.6,100.0,standard,41.0,0.0,1.0,
261,20.0,decreament,0.6,100.0,standard,41.0,0.0,1.0,
262,20.0,decreament,0.6,100.0,standard,41.0,0.0,1.0,
263,20.0,decreament,0.6,100.0,standard,41.0,0.0,1.0,
264,20.0,decreament,0.6,100.0,standard,41.0,0.0,1.0,
265,20.0,decreament,0.6,100.0,standard,41.0,0.0,1.0,
266,20.0,decreament,0.6,100.0,standard,41.0,0.0,1.0,
267,20.0,decreament,0.6,100.0,standard,41.0,0.0,1.0,
268,20.0,decreament,0.24,40.0,oddball,42.0,0.0,1.0,0.6710930000990629
269,20.0,decreament,0.6,100.0,standard,41.0,0.0,1.0,
270,20.0,increament,0.6,100.0,standard,45.0,0.0,1.0,
271,20.0,increament,0.6,100.0,standard,45.0,0.0,1.0,
272,20.0,increament,0.6,100.0,standard,45.0,0.0,1.0,
273,20.0,increament,0.6,100.0,standard,45.0,0.0,1.0,
274,20.0,increament,0.6,100.0,standard,45.0,0.0,1.0,
275,20.0,increament,0.6,100.0,standard,45.0,0.0,1.0,
276,20.0,increament,0.84,140.0,oddball,47.0,0.0,0.0,
277,20.0,increament,0.6,100.0,standard,45.0,0.0,1.0,
278,20.0,increament,0.6,100.0,standard,45.0,0.0,1.0,
279,20.0,increament,0.6,100.0,standard,45.0,0.0,1.0,
280,20.0,increament,0.6,100.0,standard,45.0,0.0,1.0,
281,20.0,increament,0.6,100.0,standard,45.0,0.0,0.0,0.2247675997205078
282,20.0,increament,0.6,100.0,standard,45.0,0.0,1.0,
283,20.0,increament,0.6,100.0,standard,45.0,0.0,1.0,
284,20.0,increament,0.6,100.0,standard,45.0,0.0,1.0,
285,20.0,increament,0.96,160.0,oddball,48.0,0.0,1.0,0.1300645000301301
286,20.0,increament,0.6,100.0,standard,45.0,0.0,1.0,
287,20.0,increament,0.6,100.0,standard,45.0,0.0,1.0,
288,20.0,increament,0.6,100.0,standard,45.0,0.0,1.0,
289,20.0,increament,0.6,100.0,standard,45.0,0.0,1.0,
290,20.0,increament,0.6,100.0,standard,45.0,0.0,1.0,
291,20.0,increament,0.6,100.0,standard,45.0,0.0,1.0,
292,20.0,increament,0.6,100.0,standard,45.0,0.0,1.0,
293,20.0,increament,0.6,100.0,standard,45.0,0.0,1.0,
294,20.0,increament,0.6,100.0,standard,45.0,0.0,1.0,
295,20.0,increament,0.6,100.0,standard,45.0,0.0,1.0,
296,20.0,increament,0.6,100.0,standard,45.0,0.0,1.0,
297,20.0,increament,0.72,120.0,oddball,46.0,0.0,0.0,
298,20.0,increament,0.6,100.0,standard,45.0,0.0,1.0,
299,20.0,increament,0.6,100.0,standard,45.0,0.0,1.0,
300,10.0,decreament,0.6,100.0,standard,21.0,1.0,1.0,
301,10.0,decreament,0.6,100.0,standard,21.0,1.0,1.0,
302,10.0,decreament,0.6,100.0,standard,21.0,1.0,1.0,
303,10.0,decreament,0.6,100.0,standard,21.0,1.0,1.0,
304,10.0,decreament,0.6,100.0,standard,21.0,1.0,1.0,
305,10.0,decreament,0.6,100.0,standard,21.0,1.0,1.0,
306,10.0,decreament,0.6,100.0,standard,21.0,1.0,1.0,
307,10.0,decreament,0.24,40.0,oddball,22.0,1.0,1.0,0.686994899995625
308,10.0,decreament,0.6,100.0,standard,21.0,1.0,1.0,
309,10.0,decreament,0.6,100.0,standard,21.0,1.0,1.0,
310,10.0,decreament,0.6,100.0,standard,21.0,1.0,1.0,
311,10.0,decreament,0.6,100.0,standard,21.0,1.0,1.0,
312,10.0,decreament,0.6,100.0,standard,21.0,1.0,1.0,
313,10.0,decreament,0.6,100.0,standard,21.0,1.0,1.0,
314,10.0,decreament,0.6,100.0,standard,21.0,1.0,1.0,
315,10.0,decreament,0.6,100.0,standard,21.0,1.0,1.0,
316,10.0,decreament,0.6,100.0,standard,21.0,1.0,1.0,
317,10.0,decreament,0.36,60.0,oddball,23.0,1.0,0.0,
318,10.0,decreament,0.6,100.0,standard,21.0,1.0,1.0,
319,10.0,decreament,0.6,100.0,standard,21.0,1.0,1.0,
320,10.0,decreament,0.6,100.0,standard,21.0,1.0,1.0,
321,10.0,decreament,0.48,80.0,oddball,24.0,1.0,0.0,
322,10.0,decreament,0.6,100.0,standard,21.0,1.0,1.0,
323,10.0,decreament,0.6,100.0,standard,21.0,1.0,1.0,
324,10.0,decreament,0.6,100.0,standard,21.0,1.0,1.0,
325,10.0,decreament,0.6,100.0,standard,21.0,1.0,1.0,
326,10.0,decreament,0.6,100.0,standard,21.0,1.0,1.0,
327,10.0,decreament,0.6,100.0,standard,21.0,1.0,1.0,
328,10.0,decreament,0.6,100.0,standard,21.0,1.0,1.0,
329,10.0,decreament,0.6,100.0,standard,21.0,1.0,1.0,
330,10.0,increament,0.6,100.0,standard,25.0,1.0,1.0,
331,10.0,increament,0.6,100.0,standard,25.0,1.0,1.0,
332,10.0,increament,0.6,100.0,standard,25.0,1.0,1.0,
333,10.0,increament,0.6,100.0,standard,25.0,1.0,1.0,
334,10.0,increament,0.6,100.0,standard,25.0,1.0,1.0,
335,10.0,increament,0.6,100.0,standard,25.0,1.0,1.0,
336,10.0,increament,0.6,100.0,standard,25.0,1.0,1.0,
337,10.0,increament,0.6,100.0,standard,25.0,1.0,1.0,
338,10.0,increament,0.6,100.0,standard,25.0,1.0,1.0,
339,10.0,increament,0.6,100.0,standard,25.0,1.0,1.0,
340,10.0,increament,0.6,100.0,standard,25.0,1.0,1.0,
341,10.0,increament,0.72,120.0,oddball,26.0,1.0,1.0,0.8165044998750091
342,10.0,increament,0.6,100.0,standard,25.0,1.0,1.0,
343,10.0,increament,0.6,100.0,standard,25.0,1.0,1.0,
344,10.0,increament,0.6,100.0,standard,25.0,1.0,1.0,
345,10.0,increament,0.6,100.0,standard,25.0,1.0,1.0,
346,10.0,increament,0.6,100.0,standard,25.0,1.0,1.0,
347,10.0,increament,0.6,100.0,standard,25.0,1.0,1.0,
348,10.0,increament,0.6,100.0,standard,25.0,1.0,1.0,
349,10.0,increament,0.96,160.0,oddball,28.0,1.0,1.0,0.4051387999206781
350,10.0,increament,0.6,100.0,standard,25.0,1.0,1.0,
351,10.0,increament,0.6,100.0,standard,25.0,1.0,1.0,
352,10.0,increament,0.6,100.0,standard,25.0,1.0,1.0,
353,10.0,increament,0.6,100.0,standard,25.0,1.0,1.0,
354,10.0,increament,0.6,100.0,standard,25.0,1.0,1.0,
355,10.0,increament,0.6,100.0,standard,25.0,1.0,1.0,
356,10.0,increament,0.6,100.0,standard,25.0,1.0,1.0,
357,10.0,increament,0.6,100.0,standard,25.0,1.0,1.0,
358,10.0,increament,0.84,140.0,oddball,27.0,1.0,1.0,0.2031493997201323
359,10.0,increament,0.6,100.0,standard,25.0,1.0,1.0,
360,10.0,decreament,0.6,100.0,standard,21.0,1.0,1.0,
361,10.0,decreament,0.6,100.0,standard,21.0,1.0,1.0,
362,10.0,decreament,0.6,100.0,standard,21.0,1.0,1.0,
363,10.0,decreament,0.6,100.0,standard,21.0,1.0,1.0,
364,10.0,decreament,0.6,100.0,standard,21.0,1.0,1.0,
365,10.0,decreament,0.6,100.0,standard,21.0,1.0,1.0,
366,10.0,decreament,0.6,100.0,standard,21.0,1.0,1.0,
367,10.0,decreament,0.6,100.0,standard,21.0,1.0,1.0,
368,10.0,decreament,0.6,100.0,standard,21.0,1.0,1.0,
369,10.0,decreament,0.6,100.0,standard,21.0,1.0,1.0,
370,10.0,decreament,0.6,100.0,standard,21.0,1.0,1.0,
371,10.0,decreament,0.6,100.0,standard,21.0,1.0,1.0,
372,10.0,decreament,0.24,40.0,oddball,22.0,1.0,1.0,0.8006994999013841
373,10.0,decreament,0.6,100.0,standard,21.0,1.0,1.0,
374,10.0,decreament,0.6,100.0,standard,21.0,1.0,1.0,
375,10.0,decreament,0.6,100.0,standard,21.0,1.0,1.0,
376,10.0,decreament,0.36,60.0,oddball,23.0,1.0,1.0,0.6937761004082859
377,10.0,decreament,0.6,100.0,standard,21.0,1.0,1.0,
378,10.0,decreament,0.6,100.0,standard,21.0,1.0,1.0,
379,10.0,decreament,0.6,100.0,standard,21.0,1.0,1.0,
380,10.0,decreament,0.6,100.0,standard,21.0,1.0,1.0,
381,10.0,decreament,0.6,100.0,standard,21.0,1.0,1.0,
382,10.0,decreament,0.6,100.0,standard,21.0,1.0,1.0,
383,10.0,decreament,0.6,100.0,standard,21.0,1.0,1.0,
384,10.0,decreament,0.6,100.0,standard,21.0,1.0,1.0,
385,10.0,decreament,0.48,80.0,oddball,24.0,1.0,0.0,
386,10.0,decreament,0.6,100.0,standard,21.0,1.0,1.0,
387,10.0,decreament,0.6,100.0,standard,21.0,1.0,1.0,
388,10.0,decreament,0.6,100.0,standard,21.0,1.0,1.0,
389,10.0,decreament,0.6,100.0,standard,21.0,1.0,1.0,
390,10.0,increament,0.6,100.0,standard,25.0,1.0,1.0,
391,10.0,increament,0.6,100.0,standard,25.0,1.0,1.0,
392,10.0,increament,0.6,100.0,standard,25.0,1.0,1.0,
393,10.0,increament,0.6,100.0,standard,25.0,1.0,1.0,
394,10.0,increament,0.6,100.0,standard,25.0,1.0,1.0,
395,10.0,increament,0.6,100.0,standard,25.0,1.0,1.0,
396,10.0,increament,0.6,100.0,standard,25.0,1.0,1.0,
397,10.0,increament,0.6,100.0,standard,25.0,1.0,1.0,
398,10.0,increament,0.72,120.0,oddball,26.0,1.0,0.0,
399,10.0,increament,0.6,100.0,standard,25.0,1.0,1.0,
400,10.0,increament,0.6,100.0,standard,25.0,1.0,1.0,
401,10.0,increament,0.6,100.0,standard,25.0,1.0,1.0,
402,10.0,increament,0.6,100.0,standard,25.0,1.0,1.0,
403,10.0,increament,0.6,100.0,standard,25.0,1.0,1.0,
404,10.0,increament,0.6,100.0,standard,25.0,1.0,0.0,0.3730717999860644
405,10.0,increament,0.6,100.0,standard,25.0,1.0,1.0,
406,10.0,increament,0.6,100.0,standard,25.0,1.0,1.0,
407,10.0,increament,0.6,100.0,standard,25.0,1.0,1.0,
408,10.0,increament,0.84,140.0,oddball,27.0,1.0,1.0,0.5261246999725699
409,10.0,increament,0.6,100.0,standard,25.0,1.0,1.0,
410,10.0,increament,0.6,100.0,standard,25.0,1.0,1.0,
411,10.0,increament,0.6,100.0,standard,25.0,1.0,1.0,
412,10.0,increament,0.6,100.0,standard,25.0,1.0,1.0,
413,10.0,increament,0.6,100.0,standard,25.0,1.0,1.0,
414,10.0,increament,0.6,100.0,standard,25.0,1.0,1.0,
415,10.0,increament,0.6,100.0,standard,25.0,1.0,1.0,
416,10.0,increament,0.6,100.0,standard,25.0,1.0,1.0,
417,10.0,increament,0.96,160.0,oddball,28.0,1.0,1.0,0.2115671001374721
418,10.0,increament,0.6,100.0,standard,25.0,1.0,1.0,
419,10.0,increament,0.6,100.0,standard,25.0,1.0,1.0,
420,10.0,decreament,0.6,100.0,standard,21.0,1.0,1.0,
421,10.0,decreament,0.6,100.0,standard,21.0,1.0,1.0,
422,10.0,decreament,0.6,100.0,standard,21.0,1.0,1.0,
423,10.0,decreament,0.6,100.0,standard,21.0,1.0,1.0,
424,10.0,decreament,0.6,100.0,standard,21.0,1.0,1.0,
425,10.0,decreament,0.48,80.0,oddball,24.0,1.0,0.0,
426,10.0,decreament,0.6,100.0,standard,21.0,1.0,1.0,
427,10.0,decreament,0.6,100.0,standard,21.0,1.0,1.0,
428,10.0,decreament,0.6,100.0,standard,21.0,1.0,1.0,
429,10.0,decreament,0.6,100.0,standard,21.0,1.0,1.0,
430,10.0,decreament,0.6,100.0,standard,21.0,1.0,1.0,
431,10.0,decreament,0.6,100.0,standard,21.0,1.0,1.0,
432,10.0,decreament,0.6,100.0,standard,21.0,1.0,1.0,
433,10.0,decreament,0.36,60.0,oddball,23.0,1.0,0.0,
434,10.0,decreament,0.6,100.0,standard,21.0,1.0,1.0,
435,10.0,decreament,0.6,100.0,standard,21.0,1.0,1.0,
436,10.0,decreament,0.6,100.0,standard,21.0,1.0,1.0,
437,10.0,decreament,0.6,100.0,standard,21.0,1.0,1.0,
438,10.0,decreament,0.6,100.0,standard,21.0,1.0,1.0,
439,10.0,decreament,0.6,100.0,standard,21.0,1.0,1.0,
440,10.0,decreament,0.6,100.0,standard,21.0,1.0,1.0,
441,10.0,decreament,0.6,100.0,standard,21.0,1.0,1.0,
442,10.0,decreament,0.6,100.0,standard,21.0,1.0,1.0,
443,10.0,decreament,0.6,100.0,standard,21.0,1.0,1.0,
444,10.0,decreament,0.6,100.0,standard,21.0,1.0,1.0,
445,10.0,decreament,0.6,100.0,standard,21.0,1.0,1.0,
446,10.0,decreament,0.6,100.0,standard,21.0,1.0,1.0,
447,10.0,decreament,0.6,100.0,standard,21.0,1.0,1.0,
448,10.0,decreament,0.24,40.0,oddball,22.0,1.0,1.0,0.5909421001560986
449,10.0,decreament,0.6,100.0,standard,21.0,1.0,1.0,
450,10.0,increament,0.6,100.0,standard,25.0,1.0,1.0,
451,10.0,increament,0.6,100.0,standard,25.0,1.0,1.0,
452,10.0,increament,0.6,100.0,standard,25.0,1.0,1.0,
453,10.0,increament,0.6,100.0,standard,25.0,1.0,1.0,
454,10.0,increament,0.6,100.0,standard,25.0,1.0,1.0,
455,10.0,increament,0.6,100.0,standard,25.0,1.0,1.0,
456,10.0,increament,0.6,100.0,standard,25.0,1.0,1.0,
457,10.0,increament,0.6,100.0,standard,25.0,1.0,1.0,
458,10.0,increament,0.6,100.0,standard,25.0,1.0,1.0,
459,10.0,increament,0.6,100.0,standard,25.0,1.0,1.0,
460,10.0,increament,0.6,100.0,standard,25.0,1.0,1.0,
461,10.0,increament,0.6,100.0,standard,25.0,1.0,1.0,
462,10.0,increament,0.72,120.0,oddball,26.0,1.0,0.0,
463,10.0,increament,0.6,100.0,standard,25.0,1.0,1.0,
464,10.0,increament,0.6,100.0,standard,25.0,1.0,1.0,
465,10.0,increament,0.6,100.0,standard,25.0,1.0,0.0,0.5415827999822795
466,10.0,increament,0.6,100.0,standard,25.0,1.0,1.0,
467,10.0,increament,0.96,160.0,oddball,28.0,1.0,1.0,0.799537300132215
468,10.0,increament,0.6,100.0,standard,25.0,1.0,1.0,
469,10.0,increament,0.6,100.0,standard,25.0,1.0,1.0,
470,10.0,increament,0.6,100.0,standard,25.0,1.0,1.0,
471,10.0,increament,0.6,100.0,standard,25.0,1.0,1.0,
472,10.0,increament,0.6,100.0,standard,25.0,1.0,1.0,
473,10.0,increament,0.6,100.0,standard,25.0,1.0,1.0,
474,10.0,increament,0.84,140.0,oddball,27.0,1.0,1.0,0.2649058001115918
475,10.0,increament,0.6,100.0,standard,25.0,1.0,1.0,
476,10.0,increament,0.6,100.0,standard,25.0,1.0,1.0,
477,10.0,increament,0.6,100.0,standard,25.0,1.0,1.0,
478,10.0,increament,0.6,100.0,standard,25.0,1.0,1.0,
479,10.0,increament,0.6,100.0,standard,25.0,1.0,1.0,
480,10.0,decreament,0.6,100.0,standard,21.0,1.0,1.0,
481,10.0,decreament,0.6,100.0,standard,21.0,1.0,1.0,
482,10.0,decreament,0.6,100.0,standard,21.0,1.0,1.0,
483,10.0,decreament,0.6,100.0,standard,21.0,1.0,1.0,
484,10.0,decreament,0.6,100.0,standard,21.0,1.0,1.0,
485,10.0,decreament,0.48,80.0,oddball,24.0,1.0,0.0,
486,10.0,decreament,0.6,100.0,standard,21.0,1.0,1.0,
487,10.0,decreament,0.6,100.0,standard,21.0,1.0,1.0,
488,10.0,decreament,0.6,100.0,standard,21.0,1.0,1.0,
489,10.0,decreament,0.6,100.0,standard,21.0,1.0,1.0,
490,10.0,decreament,0.6,100.0,standard,21.0,1.0,1.0,
491,10.0,decreament,0.6,100.0,standard,21.0,1.0,1.0,
492,10.0,decreament,0.24,40.0,oddball,22.0,1.0,1.0,0.5643611997365952
493,10.0,decreament,0.6,100.0,standard,21.0,1.0,1.0,
494,10.0,decreament,0.6,100.0,standard,21.0,1.0,1.0,
495,10.0,decreament,0.6,100.0,standard,21.0,1.0,1.0,
496,10.0,decreament,0.6,100.0,standard,21.0,1.0,1.0,
497,10.0,decreament,0.6,100.0,standard,21.0,1.0,1.0,
498,10.0,decreament,0.6,100.0,standard,21.0,1.0,1.0,
499,10.0,decreament,0.6,100.0,standard,21.0,1.0,1.0,
500,10.0,decreament,0.6,100.0,standard,21.0,1.0,1.0,
501,10.0,decreament,0.6,100.0,standard,21.0,1.0,1.0,
502,10.0,decreament,0.6,100.0,standard,21.0,1.0,1.0,
503,10.0,decreament,0.6,100.0,standard,21.0,1.0,0.0,0.9792629000730813
504,10.0,decreament,0.6,100.0,standard,21.0,1.0,1.0,
505,10.0,decreament,0.6,100.0,standard,21.0,1.0,1.0,
506,10.0,decreament,0.6,100.0,standard,21.0,1.0,1.0,
507,10.0,decreament,0.36,60.0,oddball,23.0,1.0,1.0,0.7935468000359833
508,10.0,decreament,0.6,100.0,standard,21.0,1.0,1.0,
509,10.0,decreament,0.6,100.0,standard,21.0,1.0,1.0,
510,10.0,increament,0.6,100.0,standard,25.0,1.0,1.0,
511,10.0,increament,0.6,100.0,standard,25.0,1.0,1.0,
512,10.0,increament,0.6,100.0,standard,25.0,1.0,1.0,
513,10.0,increament,0.6,100.0,standard,25.0,1.0,1.0,
514,10.0,increament,0.6,100.0,standard,25.0,1.0,1.0,
515,10.0,increament,0.6,100.0,standard,25.0,1.0,1.0,
516,10.0,increament,0.96,160.0,oddball,28.0,1.0,1.0,0.2934200000017881
517,10.0,increament,0.6,100.0,standard,25.0,1.0,1.0,
518,10.0,increament,0.6,100.0,standard,25.0,1.0,1.0,
519,10.0,increament,0.6,100.0,standard,25.0,1.0,1.0,
520,10.0,increament,0.6,100.0,standard,25.0,1.0,1.0,
521,10.0,increament,0.6,100.0,standard,25.0,1.0,1.0,
522,10.0,increament,0.6,100.0,standard,25.0,1.0,1.0,
523,10.0,increament,0.6,100.0,standard,25.0,1.0,1.0,
524,10.0,increament,0.6,100.0,standard,25.0,1.0,1.0,
525,10.0,increament,0.84,140.0,oddball,27.0,1.0,0.0,
526,10.0,increament,0.6,100.0,standard,25.0,1.0,1.0,
527,10.0,increament,0.6,100.0,standard,25.0,1.0,1.0,
528,10.0,increament,0.6,100.0,standard,25.0,1.0,1.0,
529,10.0,increament,0.6,100.0,standard,25.0,1.0,1.0,
530,10.0,increament,0.6,100.0,standard,25.0,1.0,1.0,
531,10.0,increament,0.6,100.0,standard,25.0,1.0,0.0,0.3825985002331435
532,10.0,increament,0.6,100.0,standard,25.0,1.0,1.0,
533,10.0,increament,0.6,100.0,standard,25.0,1.0,1.0,
534,10.0,increament,0.6,100.0,standard,25.0,1.0,1.0,
535,10.0,increament,0.6,100.0,standard,25.0,1.0,1.0,
536,10.0,increament,0.6,100.0,standard,25.0,1.0,1.0,
537,10.0,increament,0.6,100.0,standard,25.0,1.0,1.0,
538,10.0,increament,0.72,120.0,oddball,26.0,1.0,0.0,
539,10.0,increament,0.6,100.0,standard,25.0,1.0,1.0,
540,10.0,decreament,0.6,100.0,standard,21.0,1.0,1.0,
541,10.0,decreament,0.6,100.0,standard,21.0,1.0,1.0,
542,10.0,decreament,0.6,100.0,standard,21.0,1.0,1.0,
543,10.0,decreament,0.6,100.0,standard,21.0,1.0,1.0,
544,10.0,decreament,0.6,100.0,standard,21.0,1.0,1.0,
545,10.0,decreament,0.6,100.0,standard,21.0,1.0,1.0,
546,10.0,decreament,0.6,100.0,standard,21.0,1.0,1.0,
547,10.0,decreament,0.6,100.0,standard,21.0,1.0,1.0,
548,10.0,decreament,0.6,100.0,standard,21.0,1.0,1.0,
549,10.0,decreament,0.6,100.0,standard,21.0,1.0,1.0,
550,10.0,decreament,0.6,100.0,standard,21.0,1.0,1.0,
551,10.0,decreament,0.6,100.0,standard,21.0,1.0,1.0,
552,10.0,decreament,0.36,60.0,oddball,23.0,1.0,0.0,
553,10.0,decreament,0.6,100.0,standard,21.0,1.0,1.0,
554,10.0,decreament,0.6,100.0,standard,21.0,1.0,1.0,
555,10.0,decreament,0.6,100.0,standard,21.0,1.0,1.0,
556,10.0,decreament,0.6,100.0,standard,21.0,1.0,1.0,
557,10.0,decreament,0.6,100.0,standard,21.0,1.0,1.0,
558,10.0,decreament,0.6,100.0,standard,21.0,1.0,1.0,
559,10.0,decreament,0.24,40.0,oddball,22.0,1.0,0.0,
560,10.0,decreament,0.6,100.0,standard,21.0,1.0,1.0,
561,10.0,decreament,0.6,100.0,standard,21.0,1.0,1.0,
562,10.0,decreament,0.6,100.0,standard,21.0,1.0,1.0,
563,10.0,decreament,0.6,100.0,standard,21.0,1.0,1.0,
564,10.0,decreament,0.6,100.0,standard,21.0,1.0,1.0,
565,10.0,decreament,0.6,100.0,standard,21.0,1.0,1.0,
566,10.0,decreament,0.6,100.0,standard,21.0,1.0,1.0,
567,10.0,decreament,0.6,100.0,standard,21.0,1.0,1.0,
568,10.0,decreament,0.48,80.0,oddball,24.0,1.0,0.0,
569,10.0,decreament,0.6,100.0,standard,21.0,1.0,1.0,
570,10.0,increament,0.6,100.0,standard,25.0,1.0,1.0,
571,10.0,increament,0.6,100.0,standard,25.0,1.0,1.0,
572,10.0,increament,0.6,100.0,standard,25.0,1.0,1.0,
573,10.0,increament,0.6,100.0,standard,25.0,1.0,1.0,
574,10.0,increament,0.6,100.0,standard,25.0,1.0,1.0,
575,10.0,increament,0.6,100.0,standard,25.0,1.0,1.0,
576,10.0,increament,0.6,100.0,standard,25.0,1.0,1.0,
577,10.0,increament,0.6,100.0,standard,25.0,1.0,1.0,
578,10.0,increament,0.6,100.0,standard,25.0,1.0,1.0,
579,10.0,increament,0.6,100.0,standard,25.0,1.0,1.0,
580,10.0,increament,0.6,100.0,standard,25.0,1.0,1.0,
581,10.0,increament,0.6,100.0,standard,25.0,1.0,1.0,
582,10.0,increament,0.6,100.0,standard,25.0,1.0,1.0,
583,10.0,increament,0.84,140.0,oddball,27.0,1.0,1.0,0.3951137997210026
584,10.0,increament,0.6,100.0,standard,25.0,1.0,1.0,
585,10.0,increament,0.6,100.0,standard,25.0,1.0,1.0,
586,10.0,increament,0.6,100.0,standard,25.0,1.0,1.0,
587,10.0,increament,0.6,100.0,standard,25.0,1.0,1.0,
588,10.0,increament,0.6,100.0,standard,25.0,1.0,1.0,
589,10.0,increament,0.72,120.0,oddball,26.0,1.0,1.0,0.9185489001683892
590,10.0,increament,0.6,100.0,standard,25.0,1.0,1.0,
591,10.0,increament,0.6,100.0,standard,25.0,1.0,1.0,
592,10.0,increament,0.6,100.0,standard,25.0,1.0,1.0,
593,10.0,increament,0.6,100.0,standard,25.0,1.0,1.0,
594,10.0,increament,0.6,100.0,standard,25.0,1.0,1.0,
595,10.0,increament,0.6,100.0,standard,25.0,1.0,1.0,
596,10.0,increament,0.6,100.0,standard,25.0,1.0,1.0,
597,10.0,increament,0.6,100.0,standard,25.0,1.0,1.0,
598,10.0,increament,0.6,100.0,standard,25.0,1.0,1.0,
599,10.0,increament,0.96,160.0,oddball,28.0,1.0,1.0,0.3459250000305474
600,0.0,decreament,0.6,100.0,standard,1.0,2.0,1.0,
601,0.0,decreament,0.6,100.0,standard,1.0,2.0,1.0,
602,0.0,decreament,0.6,100.0,standard,1.0,2.0,1.0,
603,0.0,decreament,0.6,100.0,standard,1.0,2.0,1.0,
604,0.0,decreament,0.6,100.0,standard,1.0,2.0,1.0,
605,0.0,decreament,0.6,100.0,standard,1.0,2.0,1.0,
606,0.0,decreament,0.6,100.0,standard,1.0,2.0,1.0,
607,0.0,decreament,0.6,100.0,standard,1.0,2.0,1.0,
608,0.0,decreament,0.6,100.0,standard,1.0,2.0,1.0,
609,0.0,decreament,0.6,100.0,standard,1.0,2.0,1.0,
610,0.0,decreament,0.6,100.0,standard,1.0,2.0,1.0,
611,0.0,decreament,0.6,100.0,standard,1.0,2.0,1.0,
612,0.0,decreament,0.6,100.0,standard,1.0,2.0,1.0,
613,0.0,decreament,0.24,40.0,oddball,2.0,2.0,1.0,0.8347940999083221
614,0.0,decreament,0.6,100.0,standard,1.0,2.0,1.0,
615,0.0,decreament,0.6,100.0,standard,1.0,2.0,1.0,
616,0.0,decreament,0.6,100.0,standard,1.0,2.0,1.0,
617,0.0,decreament,0.48,80.0,oddball,4.0,2.0,0.0,
618,0.0,decreament,0.6,100.0,standard,1.0,2.0,1.0,
619,0.0,decreament,0.6,100.0,standard,1.0,2.0,1.0,
620,0.0,decreament,0.6,100.0,standard,1.0,2.0,1.0,
621,0.0,decreament,0.6,100.0,standard,1.0,2.0,1.0,
622,0.0,decreament,0.6,100.0,standard,1.0,2.0,1.0,
623,0.0,decreament,0.6,100.0,standard,1.0,2.0,1.0,
624,0.0,decreament,0.36,60.0,oddball,3.0,2.0,1.0,0.7484502997249365
625,0.0,decreament,0.6,100.0,standard,1.0,2.0,1.0,
626,0.0,decreament,0.6,100.0,standard,1.0,2.0,1.0,
627,0.0,decreament,0.6,100.0,standard,1.0,2.0,1.0,
628,0.0,decreament,0.6,100.0,standard,1.0,2.0,1.0,
629,0.0,decreament,0.6,100.0,standard,1.0,2.0,1.0,
630,0.0,increament,0.6,100.0,standard,5.0,2.0,1.0,
631,0.0,increament,0.6,100.0,standard,5.0,2.0,1.0,
632,0.0,increament,0.6,100.0,standard,5.0,2.0,1.0,
633,0.0,increament,0.6,100.0,standard,5.0,2.0,1.0,
634,0.0,increament,0.6,100.0,standard,5.0,2.0,1.0,
635,0.0,increament,0.6,100.0,standard,5.0,2.0,1.0,
636,0.0,increament,0.6,100.0,standard,5.0,2.0,1.0,
637,0.0,increament,0.6,100.0,standard,5.0,2.0,1.0,
638,0.0,increament,0.6,100.0,standard,5.0,2.0,1.0,
639,0.0,increament,0.6,100.0,standard,5.0,2.0,1.0,
640,0.0,increament,0.6,100.0,standard,5.0,2.0,1.0,
641,0.0,increament,0.6,100.0,standard,5.0,2.0,1.0,
642,0.0,increament,0.6,100.0,standard,5.0,2.0,1.0,
643,0.0,increament,0.84,140.0,oddball,7.0,2.0,1.0,0.0870960000902414
644,0.0,increament,0.6,100.0,standard,5.0,2.0,1.0,
645,0.0,increament,0.6,100.0,standard,5.0,2.0,1.0,
646,0.0,increament,0.6,100.0,standard,5.0,2.0,1.0,
647,0.0,increament,0.96,160.0,oddball,8.0,2.0,0.0,
648,0.0,increament,0.6,100.0,standard,5.0,2.0,1.0,
649,0.0,increament,0.6,100.0,standard,5.0,2.0,0.0,0.929083799943328
650,0.0,increament,0.6,100.0,standard,5.0,2.0,1.0,
651,0.0,increament,0.6,100.0,standard,5.0,2.0,0.0,0.1765566002577543
652,0.0,increament,0.6,100.0,standard,5.0,2.0,1.0,
653,0.0,increament,0.6,100.0,standard,5.0,2.0,0.0,0.5544567001052201
654,0.0,increament,0.6,100.0,standard,5.0,2.0,1.0,
655,0.0,increament,0.6,100.0,standard,5.0,2.0,1.0,
656,0.0,increament,0.6,100.0,standard,5.0,2.0,0.0,0.2704330999404192
657,0.0,increament,0.72,120.0,oddball,6.0,2.0,1.0,0.5183069999329746
658,0.0,increament,0.6,100.0,standard,5.0,2.0,1.0,
659,0.0,increament,0.6,100.0,standard,5.0,2.0,1.0,
660,0.0,decreament,0.6,100.0,standard,1.0,2.0,1.0,
661,0.0,decreament,0.6,100.0,standard,1.0,2.0,1.0,
662,0.0,decreament,0.6,100.0,standard,1.0,2.0,1.0,
663,0.0,decreament,0.6,100.0,standard,1.0,2.0,1.0,
664,0.0,decreament,0.6,100.0,standard,1.0,2.0,1.0,
665,0.0,decreament,0.24,40.0,oddball,2.0,2.0,1.0,0.6820485000498593
666,0.0,decreament,0.6,100.0,standard,1.0,2.0,1.0,
667,0.0,decreament,0.6,100.0,standard,1.0,2.0,1.0,
668,0.0,decreament,0.6,100.0,standard,1.0,2.0,1.0,
669,0.0,decreament,0.6,100.0,standard,1.0,2.0,1.0,
670,0.0,decreament,0.6,100.0,standard,1.0,2.0,1.0,
671,0.0,decreament,0.6,100.0,standard,1.0,2.0,1.0,
672,0.0,decreament,0.6,100.0,standard,1.0,2.0,1.0,
673,0.0,decreament,0.6,100.0,standard,1.0,2.0,1.0,
674,0.0,decreament,0.36,60.0,oddball,3.0,2.0,1.0,0.5707382000982761
675,0.0,decreament,0.6,100.0,standard,1.0,2.0,1.0,
676,0.0,decreament,0.6,100.0,standard,1.0,2.0,1.0,
677,0.0,decreament,0.6,100.0,standard,1.0,2.0,1.0,
678,0.0,decreament,0.6,100.0,standard,1.0,2.0,1.0,
679,0.0,decreament,0.6,100.0,standard,1.0,2.0,1.0,
680,0.0,decreament,0.6,100.0,standard,1.0,2.0,1.0,
681,0.0,decreament,0.48,80.0,oddball,4.0,2.0,0.0,
682,0.0,decreament,0.6,100.0,standard,1.0,2.0,1.0,
683,0.0,decreament,0.6,100.0,standard,1.0,2.0,1.0,
684,0.0,decreament,0.6,100.0,standard,1.0,2.0,1.0,
685,0.0,decreament,0.6,100.0,standard,1.0,2.0,1.0,
686,0.0,decreament,0.6,100.0,standard,1.0,2.0,1.0,
687,0.0,decreament,0.6,100.0,standard,1.0,2.0,1.0,
688,0.0,decreament,0.6,100.0,standard,1.0,2.0,1.0,
689,0.0,decreament,0.6,100.0,standard,1.0,2.0,1.0,
690,0.0,increament,0.6,100.0,standard,5.0,2.0,1.0,
691,0.0,increament,0.6,100.0,standard,5.0,2.0,1.0,
692,0.0,increament,0.6,100.0,standard,5.0,2.0,1.0,
693,0.0,increament,0.6,100.0,standard,5.0,2.0,1.0,
694,0.0,increament,0.6,100.0,standard,5.0,2.0,1.0,
695,0.0,increament,0.6,100.0,standard,5.0,2.0,1.0,
696,0.0,increament,0.96,160.0,oddball,8.0,2.0,1.0,0.1384775000624358
697,0.0,increament,0.6,100.0,standard,5.0,2.0,1.0,
698,0.0,increament,0.6,100.0,standard,5.0,2.0,1.0,
699,0.0,increament,0.6,100.0,standard,5.0,2.0,1.0,
700,0.0,increament,0.72,120.0,oddball,6.0,2.0,1.0,0.264221899677068
701,0.0,increament,0.6,100.0,standard,5.0,2.0,1.0,
702,0.0,increament,0.6,100.0,standard,5.0,2.0,1.0,
703,0.0,increament,0.6,100.0,standard,5.0,2.0,1.0,
704,0.0,increament,0.6,100.0,standard,5.0,2.0,1.0,
705,0.0,increament,0.84,140.0,oddball,7.0,2.0,1.0,0.2701464998535812
706,0.0,increament,0.6,100.0,standard,5.0,2.0,1.0,
707,0.0,increament,0.6,100.0,standard,5.0,2.0,1.0,
708,0.0,increament,0.6,100.0,standard,5.0,2.0,1.0,
709,0.0,increament,0.6,100.0,standard,5.0,2.0,1.0,
710,0.0,increament,0.6,100.0,standard,5.0,2.0,1.0,
711,0.0,increament,0.6,100.0,standard,5.0,2.0,1.0,
712,0.0,increament,0.6,100.0,standard,5.0,2.0,1.0,
713,0.0,increament,0.6,100.0,standard,5.0,2.0,0.0,0.2761949999257922
714,0.0,increament,0.6,100.0,standard,5.0,2.0,1.0,
715,0.0,increament,0.6,100.0,standard,5.0,2.0,1.0,
716,0.0,increament,0.6,100.0,standard,5.0,2.0,1.0,
717,0.0,increament,0.6,100.0,standard,5.0,2.0,1.0,
718,0.0,increament,0.6,100.0,standard,5.0,2.0,1.0,
719,0.0,increament,0.6,100.0,standard,5.0,2.0,0.0,0.5479314001277089
720,0.0,decreament,0.6,100.0,standard,1.0,2.0,1.0,
721,0.0,decreament,0.6,100.0,standard,1.0,2.0,1.0,
722,0.0,decreament,0.6,100.0,standard,1.0,2.0,1.0,
723,0.0,decreament,0.6,100.0,standard,1.0,2.0,1.0,
724,0.0,decreament,0.6,100.0,standard,1.0,2.0,1.0,
725,0.0,decreament,0.6,100.0,standard,1.0,2.0,1.0,
726,0.0,decreament,0.6,100.0,standard,1.0,2.0,1.0,
727,0.0,decreament,0.6,100.0,standard,1.0,2.0,1.0,
728,0.0,decreament,0.6,100.0,standard,1.0,2.0,1.0,
729,0.0,decreament,0.6,100.0,standard,1.0,2.0,1.0,
730,0.0,decreament,0.6,100.0,standard,1.0,2.0,1.0,
731,0.0,decreament,0.48,80.0,oddball,4.0,2.0,0.0,
732,0.0,decreament,0.6,100.0,standard,1.0,2.0,1.0,
733,0.0,decreament,0.6,100.0,standard,1.0,2.0,1.0,
734,0.0,decreament,0.6,100.0,standard,1.0,2.0,1.0,
735,0.0,decreament,0.6,100.0,standard,1.0,2.0,1.0,
736,0.0,decreament,0.36,60.0,oddball,3.0,2.0,1.0,0.6780631002038717
737,0.0,decreament,0.6,100.0,standard,1.0,2.0,1.0,
738,0.0,decreament,0.6,100.0,standard,1.0,2.0,1.0,
739,0.0,decreament,0.6,100.0,standard,1.0,2.0,1.0,
740,0.0,decreament,0.6,100.0,standard,1.0,2.0,1.0,
741,0.0,decreament,0.24,40.0,oddball,2.0,2.0,1.0,0.4859939003363251
742,0.0,decreament,0.6,100.0,standard,1.0,2.0,1.0,
743,0.0,decreament,0.6,100.0,standard,1.0,2.0,1.0,
744,0.0,decreament,0.6,100.0,standard,1.0,2.0,1.0,
745,0.0,decreament,0.6,100.0,standard,1.0,2.0,1.0,
746,0.0,decreament,0.6,100.0,standard,1.0,2.0,1.0,
747,0.0,decreament,0.6,100.0,standard,1.0,2.0,1.0,
748,0.0,decreament,0.6,100.0,standard,1.0,2.0,1.0,
749,0.0,decreament,0.6,100.0,standard,1.0,2.0,1.0,
750,0.0,increament,0.6,100.0,standard,5.0,2.0,1.0,
751,0.0,increament,0.6,100.0,standard,5.0,2.0,1.0,
752,0.0,increament,0.6,100.0,standard,5.0,2.0,1.0,
753,0.0,increament,0.6,100.0,standard,5.0,2.0,1.0,
754,0.0,increament,0.6,100.0,standard,5.0,2.0,1.0,
755,0.0,increament,0.6,100.0,standard,5.0,2.0,1.0,
756,0.0,increament,0.6,100.0,standard,5.0,2.0,1.0,
757,0.0,increament,0.6,100.0,standard,5.0,2.0,1.0,
758,0.0,increament,0.6,100.0,standard,5.0,2.0,1.0,
759,0.0,increament,0.6,100.0,standard,5.0,2.0,1.0,
760,0.0,increament,0.6,100.0,standard,5.0,2.0,1.0,
761,0.0,increament,0.6,100.0,standard,5.0,2.0,0.0,0.2879766998812556
762,0.0,increament,0.6,100.0,standard,5.0,2.0,1.0,
763,0.0,increament,0.6,100.0,standard,5.0,2.0,1.0,
764,0.0,increament,0.6,100.0,standard,5.0,2.0,1.0,
765,0.0,increament,0.6,100.0,standard,5.0,2.0,1.0,
766,0.0,increament,0.6,100.0,standard,5.0,2.0,1.0,
767,0.0,increament,0.6,100.0,standard,5.0,2.0,1.0,
768,0.0,increament,0.84,140.0,oddball,7.0,2.0,1.0,0.5902844001539052
769,0.0,increament,0.6,100.0,standard,5.0,2.0,1.0,
770,0.0,increament,0.6,100.0,standard,5.0,2.0,1.0,
771,0.0,increament,0.6,100.0,standard,5.0,2.0,1.0,
772,0.0,increament,0.6,100.0,standard,5.0,2.0,1.0,
773,0.0,increament,0.6,100.0,standard,5.0,2.0,1.0,
774,0.0,increament,0.96,160.0,oddball,8.0,2.0,1.0,0.1658885003998875
775,0.0,increament,0.6,100.0,standard,5.0,2.0,1.0,
776,0.0,increament,0.6,100.0,standard,5.0,2.0,1.0,
777,0.0,increament,0.6,100.0,standard,5.0,2.0,1.0,
778,0.0,increament,0.72,120.0,oddball,6.0,2.0,0.0,
779,0.0,increament,0.6,100.0,standard,5.0,2.0,1.0,
780,0.0,decreament,0.6,100.0,standard,1.0,2.0,1.0,
781,0.0,decreament,0.6,100.0,standard,1.0,2.0,1.0,
782,0.0,decreament,0.6,100.0,standard,1.0,2.0,1.0,
783,0.0,decreament,0.6,100.0,standard,1.0,2.0,1.0,
784,0.0,decreament,0.6,100.0,standard,1.0,2.0,1.0,
785,0.0,decreament,0.6,100.0,standard,1.0,2.0,1.0,
786,0.0,decreament,0.48,80.0,oddball,4.0,2.0,0.0,
787,0.0,decreament,0.6,100.0,standard,1.0,2.0,1.0,
788,0.0,decreament,0.6,100.0,standard,1.0,2.0,1.0,
789,0.0,decreament,0.6,100.0,standard,1.0,2.0,1.0,
790,0.0,decreament,0.6,100.0,standard,1.0,2.0,1.0,
791,0.0,decreament,0.6,100.0,standard,1.0,2.0,1.0,
792,0.0,decreament,0.6,100.0,standard,1.0,2.0,1.0,
793,0.0,decreament,0.6,100.0,standard,1.0,2.0,1.0,
794,0.0,decreament,0.6,100.0,standard,1.0,2.0,1.0,
795,0.0,decreament,0.6,100.0,standard,1.0,2.0,1.0,
796,0.0,decreament,0.6,100.0,standard,1.0,2.0,1.0,
797,0.0,decreament,0.6,100.0,standard,1.0,2.0,1.0,
798,0.0,decreament,0.6,100.0,standard,1.0,2.0,1.0,
799,0.0,decreament,0.6,100.0,standard,1.0,2.0,1.0,
800,0.0,decreament,0.6,100.0,standard,1.0,2.0,1.0,
801,0.0,decreament,0.6,100.0,standard,1.0,2.0,1.0,
802,0.0,decreament,0.24,40.0,oddball,2.0,2.0,1.0,0.4545750003308058
803,0.0,decreament,0.6,100.0,standard,1.0,2.0,1.0,
804,0.0,decreament,0.6,100.0,standard,1.0,2.0,1.0,
805,0.0,decreament,0.6,100.0,standard,1.0,2.0,1.0,
806,0.0,decreament,0.6,100.0,standard,1.0,2.0,1.0,
807,0.0,decreament,0.36,60.0,oddball,3.0,2.0,1.0,0.618877099826932
808,0.0,decreament,0.6,100.0,standard,1.0,2.0,1.0,
809,0.0,decreament,0.6,100.0,standard,1.0,2.0,1.0,
810,0.0,increament,0.6,100.0,standard,5.0,2.0,1.0,
811,0.0,increament,0.6,100.0,standard,5.0,2.0,1.0,
812,0.0,increament,0.6,100.0,standard,5.0,2.0,1.0,
813,0.0,increament,0.6,100.0,standard,5.0,2.0,1.0,
814,0.0,increament,0.6,100.0,standard,5.0,2.0,1.0,
815,0.0,increament,0.6,100.0,standard,5.0,2.0,1.0,
816,0.0,increament,0.6,100.0,standard,5.0,2.0,1.0,
817,0.0,increament,0.6,100.0,standard,5.0,2.0,1.0,
818,0.0,increament,0.6,100.0,standard,5.0,2.0,1.0,
819,0.0,increament,0.6,100.0,standard,5.0,2.0,1.0,
820,0.0,increament,0.6,100.0,standard,5.0,2.0,1.0,
821,0.0,increament,0.6,100.0,standard,5.0,2.0,1.0,
822,0.0,increament,0.96,160.0,oddball,8.0,2.0,1.0,0.0070979995653033
823,0.0,increament,0.6,100.0,standard,5.0,2.0,1.0,
824,0.0,increament,0.6,100.0,standard,5.0,2.0,1.0,
825,0.0,increament,0.6,100.0,standard,5.0,2.0,1.0,
826,0.0,increament,0.6,100.0,standard,5.0,2.0,1.0,
827,0.0,increament,0.6,100.0,standard,5.0,2.0,1.0,
828,0.0,increament,0.6,100.0,standard,5.0,2.0,1.0,
829,0.0,increament,0.6,100.0,standard,5.0,2.0,1.0,
830,0.0,increament,0.6,100.0,standard,5.0,2.0,1.0,
831,0.0,increament,0.6,100.0,standard,5.0,2.0,1.0,
832,0.0,increament,0.6,100.0,standard,5.0,2.0,1.0,
833,0.0,increament,0.84,140.0,oddball,7.0,2.0,1.0,0.166213700082153
834,0.0,increament,0.6,100.0,standard,5.0,2.0,1.0,
835,0.0,increament,0.6,100.0,standard,5.0,2.0,1.0,
836,0.0,increament,0.6,100.0,standard,5.0,2.0,1.0,
837,0.0,increament,0.6,100.0,standard,5.0,2.0,1.0,
838,0.0,increament,0.72,120.0,oddball,6.0,2.0,0.0,
839,0.0,increament,0.6,100.0,standard,5.0,2.0,1.0,
840,0.0,decreament,0.6,100.0,standard,1.0,2.0,1.0,
841,0.0,decreament,0.6,100.0,standard,1.0,2.0,1.0,
842,0.0,decreament,0.6,100.0,standard,1.0,2.0,1.0,
843,0.0,decreament,0.6,100.0,standard,1.0,2.0,1.0,
844,0.0,decreament,0.6,100.0,standard,1.0,2.0,1.0,
845,0.0,decreament,0.6,100.0,standard,1.0,2.0,1.0,
846,0.0,decreament,0.6,100.0,standard,1.0,2.0,1.0,
847,0.0,decreament,0.6,100.0,standard,1.0,2.0,1.0,
848,0.0,decreament,0.6,100.0,standard,1.0,2.0,1.0,
849,0.0,decreament,0.6,100.0,standard,1.0,2.0,1.0,
850,0.0,decreament,0.6,100.0,standard,1.0,2.0,1.0,
851,0.0,decreament,0.6,100.0,standard,1.0,2.0,1.0,
852,0.0,decreament,0.6,100.0,standard,1.0,2.0,1.0,
853,0.0,decreament,0.6,100.0,standard,1.0,2.0,1.0,
854,0.0,decreament,0.36,60.0,oddball,3.0,2.0,1.0,0.539488899987191
855,0.0,decreament,0.6,100.0,standard,1.0,2.0,1.0,
856,0.0,decreament,0.6,100.0,standard,1.0,2.0,1.0,
857,0.0,decreament,0.6,100.0,standard,1.0,2.0,1.0,
858,0.0,decreament,0.6,100.0,standard,1.0,2.0,1.0,
859,0.0,decreament,0.6,100.0,standard,1.0,2.0,1.0,
860,0.0,decreament,0.6,100.0,standard,1.0,2.0,1.0,
861,0.0,decreament,0.24,40.0,oddball,2.0,2.0,1.0,0.4720634999684989
862,0.0,decreament,0.6,100.0,standard,1.0,2.0,1.0,
863,0.0,decreament,0.6,100.0,standard,1.0,2.0,1.0,
864,0.0,decreament,0.6,100.0,standard,1.0,2.0,1.0,
865,0.0,decreament,0.6,100.0,standard,1.0,2.0,1.0,
866,0.0,decreament,0.6,100.0,standard,1.0,2.0,1.0,
867,0.0,decreament,0.48,80.0,oddball,4.0,2.0,0.0,
868,0.0,decreament,0.6,100.0,standard,1.0,2.0,1.0,
869,0.0,decreament,0.6,100.0,standard,1.0,2.0,1.0,
870,0.0,increament,0.6,100.0,standard,5.0,2.0,1.0,
871,0.0,increament,0.6,100.0,standard,5.0,2.0,1.0,
872,0.0,increament,0.6,100.0,standard,5.0,2.0,1.0,
873,0.0,increament,0.6,100.0,standard,5.0,2.0,1.0,
874,0.0,increament,0.6,100.0,standard,5.0,2.0,1.0,
875,0.0,increament,0.6,100.0,standard,5.0,2.0,1.0,
876,0.0,increament,0.96,160.0,oddball,8.0,2.0,1.0,1.0223232000134883
877,0.0,increament,0.6,100.0,standard,5.0,2.0,1.0,
878,0.0,increament,0.6,100.0,standard,5.0,2.0,1.0,
879,0.0,increament,0.6,100.0,standard,5.0,2.0,1.0,
880,0.0,increament,0.6,100.0,standard,5.0,2.0,1.0,
881,0.0,increament,0.6,100.0,standard,5.0,2.0,1.0,
882,0.0,increament,0.72,120.0,oddball,6.0,2.0,1.0,0.3017068998888135
883,0.0,increament,0.6,100.0,standard,5.0,2.0,1.0,
884,0.0,increament,0.6,100.0,standard,5.0,2.0,1.0,
885,0.0,increament,0.6,100.0,standard,5.0,2.0,1.0,
886,0.0,increament,0.6,100.0,standard,5.0,2.0,1.0,
887,0.0,increament,0.6,100.0,standard,5.0,2.0,1.0,
888,0.0,increament,0.84,140.0,oddball,7.0,2.0,0.0,
889,0.0,increament,0.6,100.0,standard,5.0,2.0,1.0,
890,0.0,increament,0.6,100.0,standard,5.0,2.0,1.0,
891,0.0,increament,0.6,100.0,standard,5.0,2.0,1.0,
892,0.0,increament,0.6,100.0,standard,5.0,2.0,1.0,
893,0.0,increament,0.6,100.0,standard,5.0,2.0,1.0,
894,0.0,increament,0.6,100.0,standard,5.0,2.0,1.0,
895,0.0,increament,0.6,100.0,standard,5.0,2.0,1.0,
896,0.0,increament,0.6,100.0,standard,5.0,2.0,1.0,
897,0.0,increament,0.6,100.0,standard,5.0,2.0,1.0,
898,0.0,increament,0.6,100.0,standard,5.0,2.0,1.0,
899,0.0,increament,0.6,100.0,standard,5.0,2.0,1.0,
900,5.0,decreament,0.6,100.0,standard,11.0,3.0,1.0,
901,5.0,decreament,0.6,100.0,standard,11.0,3.0,1.0,
902,5.0,decreament,0.6,100.0,standard,11.0,3.0,1.0,
903,5.0,decreament,0.6,100.0,standard,11.0,3.0,1.0,
904,5.0,decreament,0.6,100.0,standard,11.0,3.0,1.0,
905,5.0,decreament,0.6,100.0,standard,11.0,3.0,1.0,
906,5.0,decreament,0.6,100.0,standard,11.0,3.0,0.0,0.7559750000946224
907,5.0,decreament,0.6,100.0,standard,11.0,3.0,1.0,
908,5.0,decreament,0.6,100.0,standard,11.0,3.0,1.0,
909,5.0,decreament,0.6,100.0,standard,11.0,3.0,1.0,
910,5.0,decreament,0.6,100.0,standard,11.0,3.0,1.0,
911,5.0,decreament,0.6,100.0,standard,11.0,3.0,1.0,
912,5.0,decreament,0.6,100.0,standard,11.0,3.0,1.0,
913,5.0,decreament,0.6,100.0,standard,11.0,3.0,1.0,
914,5.0,decreament,0.6,100.0,standard,11.0,3.0,1.0,
915,5.0,decreament,0.6,100.0,standard,11.0,3.0,1.0,
916,5.0,decreament,0.6,100.0,standard,11.0,3.0,1.0,
917,5.0,decreament,0.36,60.0,oddball,13.0,3.0,1.0,0.5717152999714017
918,5.0,decreament,0.6,100.0,standard,11.0,3.0,1.0,
919,5.0,decreament,0.6,100.0,standard,11.0,3.0,1.0,
920,5.0,decreament,0.6,100.0,standard,11.0,3.0,1.0,
921,5.0,decreament,0.48,80.0,oddball,14.0,3.0,0.0,
922,5.0,decreament,0.6,100.0,standard,11.0,3.0,1.0,
923,5.0,decreament,0.6,100.0,standard,11.0,3.0,1.0,
924,5.0,decreament,0.6,100.0,standard,11.0,3.0,1.0,
925,5.0,decreament,0.6,100.0,standard,11.0,3.0,1.0,
926,5.0,decreament,0.24,40.0,oddball,12.0,3.0,1.0,0.6057081003673375
927,5.0,decreament,0.6,100.0,standard,11.0,3.0,1.0,
928,5.0,decreament,0.6,100.0,standard,11.0,3.0,1.0,
929,5.0,decreament,0.6,100.0,standard,11.0,3.0,1.0,
930,5.0,increament,0.6,100.0,standard,15.0,3.0,1.0,
931,5.0,increament,0.6,100.0,standard,15.0,3.0,1.0,
932,5.0,increament,0.6,100.0,standard,15.0,3.0,1.0,
933,5.0,increament,0.6,100.0,standard,15.0,3.0,1.0,
934,5.0,increament,0.6,100.0,standard,15.0,3.0,1.0,
935,5.0,increament,0.6,100.0,standard,15.0,3.0,1.0,
936,5.0,increament,0.96,160.0,oddball,18.0,3.0,1.0,0.1689680996350944
937,5.0,increament,0.6,100.0,standard,15.0,3.0,1.0,
938,5.0,increament,0.6,100.0,standard,15.0,3.0,1.0,
939,5.0,increament,0.6,100.0,standard,15.0,3.0,1.0,
940,5.0,increament,0.6,100.0,standard,15.0,3.0,1.0,
941,5.0,increament,0.72,120.0,oddball,16.0,3.0,1.0,0.5675641000270844
942,5.0,increament,0.6,100.0,standard,15.0,3.0,1.0,
943,5.0,increament,0.6,100.0,standard,15.0,3.0,1.0,
944,5.0,increament,0.6,100.0,standard,15.0,3.0,1.0,
945,5.0,increament,0.6,100.0,standard,15.0,3.0,1.0,
946,5.0,increament,0.84,140.0,oddball,17.0,3.0,1.0,1.411260399967432
947,5.0,increament,0.6,100.0,standard,15.0,3.0,1.0,
948,5.0,increament,0.6,100.0,standard,15.0,3.0,1.0,
949,5.0,increament,0.6,100.0,standard,15.0,3.0,1.0,
950,5.0,increament,0.6,100.0,standard,15.0,3.0,1.0,
951,5.0,increament,0.6,100.0,standard,15.0,3.0,1.0,
952,5.0,increament,0.6,100.0,standard,15.0,3.0,1.0,
953,5.0,increament,0.6,100.0,standard,15.0,3.0,1.0,
954,5.0,increament,0.6,100.0,standard,15.0,3.0,1.0,
955,5.0,increament,0.6,100.0,standard,15.0,3.0,1.0,
956,5.0,increament,0.6,100.0,standard,15.0,3.0,1.0,
957,5.0,increament,0.6,100.0,standard,15.0,3.0,1.0,
958,5.0,increament,0.6,100.0,standard,15.0,3.0,1.0,
959,5.0,increament,0.6,100.0,standard,15.0,3.0,1.0,
960,5.0,decreament,0.6,100.0,standard,11.0,3.0,1.0,
961,5.0,decreament,0.6,100.0,standard,11.0,3.0,1.0,
962,5.0,decreament,0.6,100.0,standard,11.0,3.0,1.0,
963,5.0,decreament,0.6,100.0,standard,11.0,3.0,1.0,
964,5.0,decreament,0.6,100.0,standard,11.0,3.0,1.0,
965,5.0,decreament,0.6,100.0,standard,11.0,3.0,1.0,
966,5.0,decreament,0.48,80.0,oddball,14.0,3.0,0.0,
967,5.0,decreament,0.6,100.0,standard,11.0,3.0,1.0,
968,5.0,decreament,0.6,100.0,standard,11.0,3.0,1.0,
969,5.0,decreament,0.6,100.0,standard,11.0,3.0,1.0,
970,5.0,decreament,0.6,100.0,standard,11.0,3.0,1.0,
971,5.0,decreament,0.6,100.0,standard,11.0,3.0,1.0,
972,5.0,decreament,0.6,100.0,standard,11.0,3.0,1.0,
973,5.0,decreament,0.6,100.0,standard,11.0,3.0,1.0,
974,5.0,decreament,0.6,100.0,standard,11.0,3.0,1.0,
975,5.0,decreament,0.6,100.0,standard,11.0,3.0,1.0,
976,5.0,decreament,0.6,100.0,standard,11.0,3.0,1.0,
977,5.0,decreament,0.36,60.0,oddball,13.0,3.0,1.0,0.6212216997519135
978,5.0,decreament,0.6,100.0,standard,11.0,3.0,1.0,
979,5.0,decreament,0.6,100.0,standard,11.0,3.0,1.0,
980,5.0,decreament,0.6,100.0,standard,11.0,3.0,1.0,
981,5.0,decreament,0.6,100.0,standard,11.0,3.0,1.0,
982,5.0,decreament,0.6,100.0,standard,11.0,3.0,1.0,
983,5.0,decreament,0.6,100.0,standard,11.0,3.0,1.0,
984,5.0,decreament,0.24,40.0,oddball,12.0,3.0,1.0,0.5548419998958707
985,5.0,decreament,0.6,100.0,standard,11.0,3.0,1.0,
986,5.0,decreament,0.6,100.0,standard,11.0,3.0,1.0,
987,5.0,decreament,0.6,100.0,standard,11.0,3.0,1.0,
988,5.0,decreament,0.6,100.0,standard,11.0,3.0,0.0,0.9424781003035604
989,5.0,decreament,0.6,100.0,standard,11.0,3.0,1.0,
990,5.0,increament,0.6,100.0,standard,15.0,3.0,1.0,
991,5.0,increament,0.6,100.0,standard,15.0,3.0,1.0,
992,5.0,increament,0.6,100.0,standard,15.0,3.0,1.0,
993,5.0,increament,0.6,100.0,standard,15.0,3.0,1.0,
994,5.0,increament,0.6,100.0,standard,15.0,3.0,1.0,
995,5.0,increament,0.6,100.0,standard,15.0,3.0,1.0,
996,5.0,increament,0.6,100.0,standard,15.0,3.0,1.0,
997,5.0,increament,0.6,100.0,standard,15.0,3.0,1.0,
998,5.0,increament,0.6,100.0,standard,15.0,3.0,1.0,
999,5.0,increament,0.6,100.0,standard,15.0,3.0,1.0,
1000,5.0,increament,0.6,100.0,standard,15.0,3.0,1.0,
1001,5.0,increament,0.6,100.0,standard,15.0,3.0,1.0,
1002,5.0,increament,0.72,120.0,oddball,16.0,3.0,0.0,
1003,5.0,increament,0.6,100.0,standard,15.0,3.0,1.0,
1004,5.0,increament,0.6,100.0,standard,15.0,3.0,0.0,0.6617274996824563
1005,5.0,increament,0.6,100.0,standard,15.0,3.0,1.0,
1006,5.0,increament,0.6,100.0,standard,15.0,3.0,1.0,
1007,5.0,increament,0.6,100.0,standard,15.0,3.0,1.0,
1008,5.0,increament,0.6,100.0,standard,15.0,3.0,1.0,
1009,5.0,increament,0.6,100.0,standard,15.0,3.0,1.0,
1010,5.0,increament,0.96,160.0,oddball,18.0,3.0,1.0,0.1590509000234305
1011,5.0,increament,0.6,100.0,standard,15.0,3.0,1.0,
1012,5.0,increament,0.6,100.0,standard,15.0,3.0,1.0,
1013,5.0,increament,0.6,100.0,standard,15.0,3.0,1.0,
1014,5.0,increament,0.6,100.0,standard,15.0,3.0,1.0,
1015,5.0,increament,0.84,140.0,oddball,17.0,3.0,1.0,0.2681541997008025
1016,5.0,increament,0.6,100.0,standard,15.0,3.0,1.0,
1017,5.0,increament,0.6,100.0,standard,15.0,3.0,1.0,
1018,5.0,increament,0.6,100.0,standard,15.0,3.0,1.0,
1019,5.0,increament,0.6,100.0,standard,15.0,3.0,1.0,
1020,5.0,decreament,0.6,100.0,standard,11.0,3.0,1.0,
1021,5.0,decreament,0.6,100.0,standard,11.0,3.0,1.0,
1022,5.0,decreament,0.6,100.0,standard,11.0,3.0,1.0,
1023,5.0,decreament,0.6,100.0,standard,11.0,3.0,1.0,
1024,5.0,decreament,0.6,100.0,standard,11.0,3.0,1.0,
1025,5.0,decreament,0.6,100.0,standard,11.0,3.0,1.0,
1026,5.0,decreament,0.6,100.0,standard,11.0,3.0,1.0,
1027,5.0,decreament,0.6,100.0,standard,11.0,3.0,1.0,
1028,5.0,decreament,0.24,40.0,oddball,12.0,3.0,1.0,0.8502358999103308
1029,5.0,decreament,0.6,100.0,standard,11.0,3.0,1.0,
1030,5.0,decreament,0.6,100.0,standard,11.0,3.0,1.0,
1031,5.0,decreament,0.6,100.0,standard,11.0,3.0,1.0,
1032,5.0,decreament,0.6,100.0,standard,11.0,3.0,1.0,
1033,5.0,decreament,0.6,100.0,standard,11.0,3.0,1.0,
1034,5.0,decreament,0.6,100.0,standard,11.0,3.0,1.0,
1035,5.0,decreament,0.6,100.0,standard,11.0,3.0,1.0,
1036,5.0,decreament,0.6,100.0,standard,11.0,3.0,1.0,
1037,5.0,decreament,0.6,100.0,standard,11.0,3.0,1.0,
1038,5.0,decreament,0.6,100.0,standard,11.0,3.0,1.0,
1039,5.0,decreament,0.6,100.0,standard,11.0,3.0,1.0,
1040,5.0,decreament,0.6,100.0,standard,11.0,3.0,1.0,
1041,5.0,decreament,0.48,80.0,oddball,14.0,3.0,0.0,
1042,5.0,decreament,0.6,100.0,standard,11.0,3.0,1.0,
1043,5.0,decreament,0.6,100.0,standard,11.0,3.0,1.0,
1044,5.0,decreament,0.6,100.0,standard,11.0,3.0,1.0,
1045,5.0,decreament,0.6,100.0,standard,11.0,3.0,1.0,
1046,5.0,decreament,0.6,100.0,standard,11.0,3.0,1.0,
1047,5.0,decreament,0.36,60.0,oddball,13.0,3.0,1.0,0.6366373999044299
1048,5.0,decreament,0.6,100.0,standard,11.0,3.0,1.0,
1049,5.0,decreament,0.6,100.0,standard,11.0,3.0,1.0,
1050,5.0,increament,0.6,100.0,standard,15.0,3.0,1.0,
1051,5.0,increament,0.6,100.0,standard,15.0,3.0,1.0,
1052,5.0,increament,0.6,100.0,standard,15.0,3.0,1.0,
1053,5.0,increament,0.6,100.0,standard,15.0,3.0,1.0,
1054,5.0,increament,0.6,100.0,standard,15.0,3.0,1.0,
1055,5.0,increament,0.6,100.0,standard,15.0,3.0,1.0,
1056,5.0,increament,0.6,100.0,standard,15.0,3.0,1.0,
1057,5.0,increament,0.6,100.0,standard,15.0,3.0,1.0,
1058,5.0,increament,0.6,100.0,standard,15.0,3.0,1.0,
1059,5.0,increament,0.6,100.0,standard,15.0,3.0,1.0,
1060,5.0,increament,0.6,100.0,standard,15.0,3.0,1.0,
1061,5.0,increament,0.96,160.0,oddball,18.0,3.0,1.0,0.1082656998187303
1062,5.0,increament,0.6,100.0,standard,15.0,3.0,1.0,
1063,5.0,increament,0.6,100.0,standard,15.0,3.0,1.0,
1064,5.0,increament,0.6,100.0,standard,15.0,3.0,1.0,
1065,5.0,increament,0.72,120.0,oddball,16.0,3.0,0.0,
1066,5.0,increament,0.6,100.0,standard,15.0,3.0,1.0,
1067,5.0,increament,0.6,100.0,standard,15.0,3.0,1.0,
1068,5.0,increament,0.6,100.0,standard,15.0,3.0,1.0,
1069,5.0,increament,0.6,100.0,standard,15.0,3.0,1.0,
1070,5.0,increament,0.6,100.0,standard,15.0,3.0,1.0,
1071,5.0,increament,0.6,100.0,standard,15.0,3.0,1.0,
1072,5.0,increament,0.6,100.0,standard,15.0,3.0,1.0,
1073,5.0,increament,0.6,100.0,standard,15.0,3.0,1.0,
1074,5.0,increament,0.6,100.0,standard,15.0,3.0,1.0,
1075,5.0,increament,0.6,100.0,standard,15.0,3.0,1.0,
1076,5.0,increament,0.6,100.0,standard,15.0,3.0,1.0,
1077,5.0,increament,0.6,100.0,standard,15.0,3.0,1.0,
1078,5.0,increament,0.84,140.0,oddball,17.0,3.0,1.0,0.1413155002519488
1079,5.0,increament,0.6,100.0,standard,15.0,3.0,1.0,
1080,5.0,decreament,0.6,100.0,standard,11.0,3.0,1.0,
1081,5.0,decreament,0.6,100.0,standard,11.0,3.0,1.0,
1082,5.0,decreament,0.6,100.0,standard,11.0,3.0,1.0,
1083,5.0,decreament,0.6,100.0,standard,11.0,3.0,1.0,
1084,5.0,decreament,0.6,100.0,standard,11.0,3.0,1.0,
1085,5.0,decreament,0.6,100.0,standard,11.0,3.0,1.0,
1086,5.0,decreament,0.6,100.0,standard,11.0,3.0,1.0,
1087,5.0,decreament,0.48,80.0,oddball,14.0,3.0,0.0,
1088,5.0,decreament,0.6,100.0,standard,11.0,3.0,1.0,
1089,5.0,decreament,0.6,100.0,standard,11.0,3.0,1.0,
1090,5.0,decreament,0.6,100.0,standard,11.0,3.0,1.0,
1091,5.0,decreament,0.6,100.0,standard,11.0,3.0,1.0,
1092,5.0,decreament,0.6,100.0,standard,11.0,3.0,1.0,
1093,5.0,decreament,0.6,100.0,standard,11.0,3.0,1.0,
1094,5.0,decreament,0.6,100.0,standard,11.0,3.0,1.0,
1095,5.0,decreament,0.6,100.0,standard,11.0,3.0,1.0,
1096,5.0,decreament,0.6,100.0,standard,11.0,3.0,1.0,
1097,5.0,decreament,0.6,100.0,standard,11.0,3.0,0.0,0.2941100001335144
1098,5.0,decreament,0.6,100.0,standard,11.0,3.0,1.0,
1099,5.0,decreament,0.36,60.0,oddball,13.0,3.0,1.0,0.6758880000561476
1100,5.0,decreament,0.6,100.0,standard,11.0,3.0,1.0,
1101,5.0,decreament,0.6,100.0,standard,11.0,3.0,1.0,
1102,5.0,decreament,0.6,100.0,standard,11.0,3.0,1.0,
1103,5.0,decreament,0.6,100.0,standard,11.0,3.0,1.0,
1104,5.0,decreament,0.6,100.0,standard,11.0,3.0,1.0,
1105,5.0,decreament,0.6,100.0,standard,11.0,3.0,1.0,
1106,5.0,decreament,0.6,100.0,standard,11.0,3.0,1.0,
1107,5.0,decreament,0.6,100.0,standard,11.0,3.0,1.0,
1108,5.0,decreament,0.6,100.0,standard,11.0,3.0,1.0,
1109,5.0,decreament,0.24,40.0,oddball,12.0,3.0,1.0,0.5182917001657188
1110,5.0,increament,0.6,100.0,standard,15.0,3.0,1.0,
1111,5.0,increament,0.6,100.0,standard,15.0,3.0,1.0,
1112,5.0,increament,0.6,100.0,standard,15.0,3.0,1.0,
1113,5.0,increament,0.6,100.0,standard,15.0,3.0,1.0,
1114,5.0,increament,0.6,100.0,standard,15.0,3.0,1.0,
1115,5.0,increament,0.6,100.0,standard,15.0,3.0,1.0,
1116,5.0,increament,0.6,100.0,standard,15.0,3.0,1.0,
1117,5.0,increament,0.84,140.0,oddball,17.0,3.0,1.0,0.1462384001351893
1118,5.0,increament,0.6,100.0,standard,15.0,3.0,1.0,
1119,5.0,increament,0.6,100.0,standard,15.0,3.0,1.0,
1120,5.0,increament,0.6,100.0,standard,15.0,3.0,1.0,
1121,5.0,increament,0.6,100.0,standard,15.0,3.0,1.0,
1122,5.0,increament,0.6,100.0,standard,15.0,3.0,1.0,
1123,5.0,increament,0.6,100.0,standard,15.0,3.0,1.0,
1124,5.0,increament,0.96,160.0,oddball,18.0,3.0,1.0,0.036086699925363
1125,5.0,increament,0.6,100.0,standard,15.0,3.0,1.0,
1126,5.0,increament,0.6,100.0,standard,15.0,3.0,1.0,
1127,5.0,increament,0.6,100.0,standard,15.0,3.0,1.0,
1128,5.0,increament,0.6,100.0,standard,15.0,3.0,1.0,
1129,5.0,increament,0.6,100.0,standard,15.0,3.0,1.0,
1130,5.0,increament,0.6,100.0,standard,15.0,3.0,1.0,
1131,5.0,increament,0.6,100.0,standard,15.0,3.0,1.0,
1132,5.0,increament,0.6,100.0,standard,15.0,3.0,1.0,
1133,5.0,increament,0.6,100.0,standard,15.0,3.0,1.0,
1134,5.0,increament,0.6,100.0,standard,15.0,3.0,1.0,
1135,5.0,increament,0.72,120.0,oddball,16.0,3.0,1.0,0.3170152003876865
1136,5.0,increament,0.6,100.0,standard,15.0,3.0,1.0,
1137,5.0,increament,0.6,100.0,standard,15.0,3.0,1.0,
1138,5.0,increament,0.6,100.0,standard,15.0,3.0,1.0,
1139,5.0,increament,0.6,100.0,standard,15.0,3.0,1.0,
1140,5.0,decreament,0.6,100.0,standard,11.0,3.0,1.0,
1141,5.0,decreament,0.6,100.0,standard,11.0,3.0,1.0,
1142,5.0,decreament,0.6,100.0,standard,11.0,3.0,1.0,
1143,5.0,decreament,0.6,100.0,standard,11.0,3.0,1.0,
1144,5.0,decreament,0.6,100.0,standard,11.0,3.0,1.0,
1145,5.0,decreament,0.6,100.0,standard,11.0,3.0,1.0,
1146,5.0,decreament,0.6,100.0,standard,11.0,3.0,1.0,
1147,5.0,decreament,0.6,100.0,standard,11.0,3.0,1.0,
1148,5.0,decreament,0.36,60.0,oddball,13.0,3.0,1.0,0.7116179997101426
1149,5.0,decreament,0.6,100.0,standard,11.0,3.0,1.0,
1150,5.0,decreament,0.6,100.0,standard,11.0,3.0,1.0,
1151,5.0,decreament,0.6,100.0,standard,11.0,3.0,1.0,
1152,5.0,decreament,0.6,100.0,standard,11.0,3.0,1.0,
1153,5.0,decreament,0.6,100.0,standard,11.0,3.0,1.0,
1154,5.0,decreament,0.6,100.0,standard,11.0,3.0,1.0,
1155,5.0,decreament,0.6,100.0,standard,11.0,3.0,1.0,
1156,5.0,decreament,0.6,100.0,standard,11.0,3.0,1.0,
1157,5.0,decreament,0.6,100.0,standard,11.0,3.0,1.0,
1158,5.0,decreament,0.6,100.0,standard,11.0,3.0,1.0,
1159,5.0,decreament,0.6,100.0,standard,11.0,3.0,1.0,
1160,5.0,decreament,0.6,100.0,standard,11.0,3.0,1.0,
1161,5.0,decreament,0.6,100.0,standard,11.0,3.0,1.0,
1162,5.0,decreament,0.6,100.0,standard,11.0,3.0,1.0,
1163,5.0,decreament,0.24,40.0,oddball,12.0,3.0,1.0,0.5549658997915685
1164,5.0,decreament,0.6,100.0,standard,11.0,3.0,1.0,
1165,5.0,decreament,0.6,100.0,standard,11.0,3.0,1.0,
1166,5.0,decreament,0.6,100.0,standard,11.0,3.0,1.0,
1167,5.0,decreament,0.6,100.0,standard,11.0,3.0,1.0,
1168,5.0,decreament,0.48,80.0,oddball,14.0,3.0,0.0,
1169,5.0,decreament,0.6,100.0,standard,11.0,3.0,1.0,
1170,5.0,increament,0.6,100.0,standard,15.0,3.0,1.0,
1171,5.0,increament,0.6,100.0,standard,15.0,3.0,1.0,
1172,5.0,increament,0.6,100.0,standard,15.0,3.0,1.0,
1173,5.0,increament,0.6,100.0,standard,15.0,3.0,1.0,
1174,5.0,increament,0.6,100.0,standard,15.0,3.0,1.0,
1175,5.0,increament,0.6,100.0,standard,15.0,3.0,1.0,
1176,5.0,increament,0.6,100.0,standard,15.0,3.0,1.0,
1177,5.0,increament,0.6,100.0,standard,15.0,3.0,1.0,
1178,5.0,increament,0.6,100.0,standard,15.0,3.0,1.0,
1179,5.0,increament,0.6,100.0,standard,15.0,3.0,1.0,
1180,5.0,increament,0.6,100.0,standard,15.0,3.0,1.0,
1181,5.0,increament,0.6,100.0,standard,15.0,3.0,1.0,
1182,5.0,increament,0.6,100.0,standard,15.0,3.0,1.0,
1183,5.0,increament,0.6,100.0,standard,15.0,3.0,1.0,
1184,5.0,increament,0.6,100.0,standard,15.0,3.0,1.0,
1185,5.0,increament,0.6,100.0,standard,15.0,3.0,1.0,
1186,5.0,increament,0.6,100.0,standard,15.0,3.0,0.0,0.2715611001476645
1187,5.0,increament,0.96,160.0,oddball,18.0,3.0,1.0,0.2407804001122713
1188,5.0,increament,0.6,100.0,standard,15.0,3.0,1.0,
1189,5.0,increament,0.6,100.0,standard,15.0,3.0,1.0,
1190,5.0,increament,0.6,100.0,standard,15.0,3.0,1.0,
1191,5.0,increament,0.84,140.0,oddball,17.0,3.0,0.0,
1192,5.0,increament,0.6,100.0,standard,15.0,3.0,1.0,
1193,5.0,increament,0.6,100.0,standard,15.0,3.0,1.0,
1194,5.0,increament,0.6,100.0,standard,15.0,3.0,1.0,
1195,5.0,increament,0.6,100.0,standard,15.0,3.0,1.0,
1196,5.0,increament,0.6,100.0,standard,15.0,3.0,1.0,
1197,5.0,increament,0.72,120.0,oddball,16.0,3.0,0.0,
1198,5.0,increament,0.6,100.0,standard,15.0,3.0,1.0,
1199,5.0,increament,0.6,100.0,standard,15.0,3.0,1.0,
