,grating_freq,direction,duration,scaling,stim_type,trigger,blocks.thisN,resp.corr,resp.rt
0,5.0,decreament,0.6,100.0,standard,11.0,0.0,1.0,
1,5.0,decreament,0.6,100.0,standard,11.0,0.0,1.0,
2,5.0,decreament,0.6,100.0,standard,11.0,0.0,1.0,
3,5.0,decreament,0.6,100.0,standard,11.0,0.0,1.0,
4,5.0,decreament,0.6,100.0,standard,11.0,0.0,1.0,
5,5.0,decreament,0.24,40.0,oddball,12.0,0.0,1.0,0.6322578997351229
6,5.0,decreament,0.6,100.0,standard,11.0,0.0,1.0,
7,5.0,decreament,0.6,100.0,standard,11.0,0.0,1.0,
8,5.0,decreament,0.6,100.0,standard,11.0,0.0,1.0,
9,5.0,decreament,0.6,100.0,standard,11.0,0.0,1.0,
10,5.0,decreament,0.6,100.0,standard,11.0,0.0,1.0,
11,5.0,decreament,0.6,100.0,standard,11.0,0.0,1.0,
12,5.0,decreament,0.48,80.0,oddball,14.0,0.0,1.0,0.9561244999058544
13,5.0,decreament,0.6,100.0,standard,11.0,0.0,1.0,
14,5.0,decreament,0.6,100.0,standard,11.0,0.0,1.0,
15,5.0,decreament,0.6,100.0,standard,11.0,0.0,1.0,
16,5.0,decreament,0.6,100.0,standard,11.0,0.0,1.0,
17,5.0,decreament,0.6,100.0,standard,11.0,0.0,1.0,
18,5.0,decreament,0.6,100.0,standard,11.0,0.0,1.0,
19,5.0,decreament,0.6,100.0,standard,11.0,0.0,1.0,
20,5.0,decreament,0.6,100.0,standard,11.0,0.0,1.0,
21,5.0,decreament,0.6,100.0,standard,11.0,0.0,1.0,
22,5.0,decreament,0.6,100.0,standard,11.0,0.0,0.0,1.357728399801999
23,5.0,decreament,0.6,100.0,standard,11.0,0.0,1.0,
24,5.0,decreament,0.6,100.0,standard,11.0,0.0,1.0,
25,5.0,decreament,0.6,100.0,standard,11.0,0.0,1.0,
26,5.0,decreament,0.36,60.0,oddball,13.0,0.0,1.0,0.5151478000916541
27,5.0,decreament,0.6,100.0,standard,11.0,0.0,1.0,
28,5.0,decreament,0.6,100.0,standard,11.0,0.0,1.0,
29,5.0,decreament,0.6,100.0,standard,11.0,0.0,1.0,
30,5.0,increament,0.6,100.0,standard,15.0,0.0,1.0,
31,5.0,increament,0.6,100.0,standard,15.0,0.0,1.0,
32,5.0,increament,0.6,100.0,standard,15.0,0.0,1.0,
33,5.0,increament,0.6,100.0,standard,15.0,0.0,1.0,
34,5.0,increament,0.6,100.0,standard,15.0,0.0,1.0,
35,5.0,increament,0.72,120.0,oddball,16.0,0.0,0.0,
36,5.0,increament,0.6,100.0,standard,15.0,0.0,1.0,
37,5.0,increament,0.6,100.0,standard,15.0,0.0,1.0,
38,5.0,increament,0.6,100.0,standard,15.0,0.0,1.0,
39,5.0,increament,0.6,100.0,standard,15.0,0.0,1.0,
40,5.0,increament,0.6,100.0,standard,15.0,0.0,1.0,
41,5.0,increament,0.6,100.0,standard,15.0,0.0,0.0,0.7266573999077082
42,5.0,increament,0.6,100.0,standard,15.0,0.0,1.0,
43,5.0,increament,0.6,100.0,standard,15.0,0.0,1.0,
44,5.0,increament,0.6,100.0,standard,15.0,0.0,1.0,
45,5.0,increament,0.6,100.0,standard,15.0,0.0,1.0,
46,5.0,increament,0.6,100.0,standard,15.0,0.0,1.0,
47,5.0,increament,0.6,100.0,standard,15.0,0.0,1.0,
48,5.0,increament,0.96,160.0,oddball,18.0,0.0,1.0,0.4090050999075174
49,5.0,increament,0.6,100.0,standard,15.0,0.0,1.0,
50,5.0,increament,0.6,100.0,standard,15.0,0.0,1.0,
51,5.0,increament,0.6,100.0,standard,15.0,0.0,1.0,
52,5.0,increament,0.6,100.0,standard,15.0,0.0,1.0,
53,5.0,increament,0.6,100.0,standard,15.0,0.0,1.0,
54,5.0,increament,0.6,100.0,standard,15.0,0.0,1.0,
55,5.0,increament,0.6,100.0,standard,15.0,0.0,1.0,
56,5.0,increament,0.6,100.0,standard,15.0,0.0,1.0,
57,5.0,increament,0.6,100.0,standard,15.0,0.0,1.0,
58,5.0,increament,0.84,140.0,oddball,17.0,0.0,1.0,0.7249011998064816
59,5.0,increament,0.6,100.0,standard,15.0,0.0,1.0,
60,5.0,decreament,0.6,100.0,standard,11.0,0.0,1.0,
61,5.0,decreament,0.6,100.0,standard,11.0,0.0,1.0,
62,5.0,decreament,0.6,100.0,standard,11.0,0.0,1.0,
63,5.0,decreament,0.6,100.0,standard,11.0,0.0,1.0,
64,5.0,decreament,0.6,100.0,standard,11.0,0.0,1.0,
65,5.0,decreament,0.6,100.0,standard,11.0,0.0,1.0,
66,5.0,decreament,0.6,100.0,standard,11.0,0.0,1.0,
67,5.0,decreament,0.6,100.0,standard,11.0,0.0,1.0,
68,5.0,decreament,0.24,40.0,oddball,12.0,0.0,1.0,0.5239752000197768
69,5.0,decreament,0.6,100.0,standard,11.0,0.0,1.0,
70,5.0,decreament,0.6,100.0,standard,11.0,0.0,1.0,
71,5.0,decreament,0.6,100.0,standard,11.0,0.0,1.0,
72,5.0,decreament,0.6,100.0,standard,11.0,0.0,1.0,
73,5.0,decreament,0.6,100.0,standard,11.0,0.0,0.0,0.6307687996886671
74,5.0,decreament,0.6,100.0,standard,11.0,0.0,1.0,
75,5.0,decreament,0.36,60.0,oddball,13.0,0.0,1.0,1.0466988999396565
76,5.0,decreament,0.6,100.0,standard,11.0,0.0,1.0,
77,5.0,decreament,0.6,100.0,standard,11.0,0.0,1.0,
78,5.0,decreament,0.6,100.0,standard,11.0,0.0,1.0,
79,5.0,decreament,0.6,100.0,standard,11.0,0.0,1.0,
80,5.0,decreament,0.6,100.0,standard,11.0,0.0,1.0,
81,5.0,decreament,0.6,100.0,standard,11.0,0.0,1.0,
82,5.0,decreament,0.6,100.0,standard,11.0,0.0,1.0,
83,5.0,decreament,0.6,100.0,standard,11.0,0.0,1.0,
84,5.0,decreament,0.6,100.0,standard,11.0,0.0,1.0,
85,5.0,decreament,0.6,100.0,standard,11.0,0.0,1.0,
86,5.0,decreament,0.48,80.0,oddball,14.0,0.0,0.0,
87,5.0,decreament,0.6,100.0,standard,11.0,0.0,1.0,
88,5.0,decreament,0.6,100.0,standard,11.0,0.0,1.0,
89,5.0,decreament,0.6,100.0,standard,11.0,0.0,1.0,
90,5.0,increament,0.6,100.0,standard,15.0,0.0,1.0,
91,5.0,increament,0.6,100.0,standard,15.0,0.0,1.0,
92,5.0,increament,0.6,100.0,standard,15.0,0.0,1.0,
93,5.0,increament,0.6,100.0,standard,15.0,0.0,1.0,
94,5.0,increament,0.6,100.0,standard,15.0,0.0,1.0,
95,5.0,increament,0.72,120.0,oddball,16.0,0.0,0.0,
96,5.0,increament,0.6,100.0,standard,15.0,0.0,1.0,
97,5.0,increament,0.6,100.0,standard,15.0,0.0,1.0,
98,5.0,increament,0.6,100.0,standard,15.0,0.0,1.0,
99,5.0,increament,0.6,100.0,standard,15.0,0.0,1.0,
100,5.0,increament,0.6,100.0,standard,15.0,0.0,1.0,
101,5.0,increament,0.6,100.0,standard,15.0,0.0,1.0,
102,5.0,increament,0.6,100.0,standard,15.0,0.0,1.0,
103,5.0,increament,0.6,100.0,standard,15.0,0.0,0.0,0.8143688999116421
104,5.0,increament,0.6,100.0,standard,15.0,0.0,1.0,
105,5.0,increament,0.6,100.0,standard,15.0,0.0,1.0,
106,5.0,increament,0.6,100.0,standard,15.0,0.0,1.0,
107,5.0,increament,0.6,100.0,standard,15.0,0.0,1.0,
108,5.0,increament,0.6,100.0,standard,15.0,0.0,1.0,
109,5.0,increament,0.6,100.0,standard,15.0,0.0,1.0,
110,5.0,increament,0.6,100.0,standard,15.0,0.0,1.0,
111,5.0,increament,0.6,100.0,standard,15.0,0.0,1.0,
112,5.0,increament,0.6,100.0,standard,15.0,0.0,1.0,
113,5.0,increament,0.84,140.0,oddball,17.0,0.0,0.0,
114,5.0,increament,0.6,100.0,standard,15.0,0.0,1.0,
115,5.0,increament,0.6,100.0,standard,15.0,0.0,1.0,
116,5.0,increament,0.6,100.0,standard,15.0,0.0,1.0,
117,5.0,increament,0.6,100.0,standard,15.0,0.0,1.0,
118,5.0,increament,0.6,100.0,standard,15.0,0.0,1.0,
119,5.0,increament,0.96,160.0,oddball,18.0,0.0,0.0,
120,5.0,decreament,0.6,100.0,standard,11.0,0.0,1.0,
121,5.0,decreament,0.6,100.0,standard,11.0,0.0,1.0,
122,5.0,decreament,0.6,100.0,standard,11.0,0.0,1.0,
123,5.0,decreament,0.6,100.0,standard,11.0,0.0,1.0,
124,5.0,decreament,0.6,100.0,standard,11.0,0.0,1.0,
125,5.0,decreament,0.6,100.0,standard,11.0,0.0,1.0,
126,5.0,decreament,0.6,100.0,standard,11.0,0.0,1.0,
127,5.0,decreament,0.6,100.0,standard,11.0,0.0,1.0,
128,5.0,decreament,0.6,100.0,standard,11.0,0.0,0.0,1.2140371999703348
129,5.0,decreament,0.6,100.0,standard,11.0,0.0,1.0,
130,5.0,decreament,0.6,100.0,standard,11.0,0.0,1.0,
131,5.0,decreament,0.6,100.0,standard,11.0,0.0,1.0,
132,5.0,decreament,0.6,100.0,standard,11.0,0.0,1.0,
133,5.0,decreament,0.6,100.0,standard,11.0,0.0,1.0,
134,5.0,decreament,0.48,80.0,oddball,14.0,0.0,0.0,
135,5.0,decreament,0.6,100.0,standard,11.0,0.0,1.0,
136,5.0,decreament,0.6,100.0,standard,11.0,0.0,1.0,
137,5.0,decreament,0.6,100.0,standard,11.0,0.0,1.0,
138,5.0,decreament,0.6,100.0,standard,11.0,0.0,1.0,
139,5.0,decreament,0.6,100.0,standard,11.0,0.0,1.0,
140,5.0,decreament,0.6,100.0,standard,11.0,0.0,1.0,
141,5.0,decreament,0.6,100.0,standard,11.0,0.0,1.0,
142,5.0,decreament,0.36,60.0,oddball,13.0,0.0,1.0,0.6537953000515699
143,5.0,decreament,0.6,100.0,standard,11.0,0.0,1.0,
144,5.0,decreament,0.6,100.0,standard,11.0,0.0,1.0,
145,5.0,decreament,0.6,100.0,standard,11.0,0.0,1.0,
146,5.0,decreament,0.6,100.0,standard,11.0,0.0,1.0,
147,5.0,decreament,0.24,40.0,oddball,12.0,0.0,1.0,0.7345520001836121
148,5.0,decreament,0.6,100.0,standard,11.0,0.0,1.0,
149,5.0,decreament,0.6,100.0,standard,11.0,0.0,1.0,
150,5.0,increament,0.6,100.0,standard,15.0,0.0,1.0,
151,5.0,increament,0.6,100.0,standard,15.0,0.0,1.0,
152,5.0,increament,0.6,100.0,standard,15.0,0.0,1.0,
153,5.0,increament,0.6,100.0,standard,15.0,0.0,1.0,
154,5.0,increament,0.6,100.0,standard,15.0,0.0,1.0,
155,5.0,increament,0.72,120.0,oddball,16.0,0.0,0.0,
156,5.0,increament,0.6,100.0,standard,15.0,0.0,1.0,
157,5.0,increament,0.6,100.0,standard,15.0,0.0,1.0,
158,5.0,increament,0.6,100.0,standard,15.0,0.0,1.0,
159,5.0,increament,0.6,100.0,standard,15.0,0.0,1.0,
160,5.0,increament,0.6,100.0,standard,15.0,0.0,1.0,
161,5.0,increament,0.6,100.0,standard,15.0,0.0,1.0,
162,5.0,increament,0.6,100.0,standard,15.0,0.0,1.0,
163,5.0,increament,0.96,160.0,oddball,18.0,0.0,0.0,
164,5.0,increament,0.6,100.0,standard,15.0,0.0,1.0,
165,5.0,increament,0.6,100.0,standard,15.0,0.0,1.0,
166,5.0,increament,0.6,100.0,standard,15.0,0.0,1.0,
167,5.0,increament,0.6,100.0,standard,15.0,0.0,1.0,
168,5.0,increament,0.6,100.0,standard,15.0,0.0,1.0,
169,5.0,increament,0.6,100.0,standard,15.0,0.0,1.0,
170,5.0,increament,0.6,100.0,standard,15.0,0.0,1.0,
171,5.0,increament,0.84,140.0,oddball,17.0,0.0,1.0,0.648547699674964
172,5.0,increament,0.6,100.0,standard,15.0,0.0,1.0,
173,5.0,increament,0.6,100.0,standard,15.0,0.0,1.0,
174,5.0,increament,0.6,100.0,standard,15.0,0.0,1.0,
175,5.0,increament,0.6,100.0,standard,15.0,0.0,1.0,
176,5.0,increament,0.6,100.0,standard,15.0,0.0,1.0,
177,5.0,increament,0.6,100.0,standard,15.0,0.0,1.0,
178,5.0,increament,0.6,100.0,standard,15.0,0.0,1.0,
179,5.0,increament,0.6,100.0,standard,15.0,0.0,1.0,
180,5.0,decreament,0.6,100.0,standard,11.0,0.0,1.0,
181,5.0,decreament,0.6,100.0,standard,11.0,0.0,1.0,
182,5.0,decreament,0.6,100.0,standard,11.0,0.0,1.0,
183,5.0,decreament,0.6,100.0,standard,11.0,0.0,1.0,
184,5.0,decreament,0.6,100.0,standard,11.0,0.0,1.0,
185,5.0,decreament,0.6,100.0,standard,11.0,0.0,1.0,
186,5.0,decreament,0.6,100.0,standard,11.0,0.0,1.0,
187,5.0,decreament,0.6,100.0,standard,11.0,0.0,1.0,
188,5.0,decreament,0.6,100.0,standard,11.0,0.0,1.0,
189,5.0,decreament,0.6,100.0,standard,11.0,0.0,1.0,
190,5.0,decreament,0.6,100.0,standard,11.0,0.0,1.0,
191,5.0,decreament,0.36,60.0,oddball,13.0,0.0,1.0,0.6113231000490487
192,5.0,decreament,0.6,100.0,standard,11.0,0.0,1.0,
193,5.0,decreament,0.6,100.0,standard,11.0,0.0,1.0,
194,5.0,decreament,0.6,100.0,standard,11.0,0.0,1.0,
195,5.0,decreament,0.6,100.0,standard,11.0,0.0,1.0,
196,5.0,decreament,0.6,100.0,standard,11.0,0.0,1.0,
197,5.0,decreament,0.24,40.0,oddball,12.0,0.0,1.0,0.8249518000520766
198,5.0,decreament,0.6,100.0,standard,11.0,0.0,1.0,
199,5.0,decreament,0.6,100.0,standard,11.0,0.0,1.0,
200,5.0,decreament,0.6,100.0,standard,11.0,0.0,1.0,
201,5.0,decreament,0.6,100.0,standard,11.0,0.0,1.0,
202,5.0,decreament,0.6,100.0,standard,11.0,0.0,1.0,
203,5.0,decreament,0.6,100.0,standard,11.0,0.0,1.0,
204,5.0,decreament,0.6,100.0,standard,11.0,0.0,1.0,
205,5.0,decreament,0.6,100.0,standard,11.0,0.0,1.0,
206,5.0,decreament,0.6,100.0,standard,11.0,0.0,1.0,
207,5.0,decreament,0.48,80.0,oddball,14.0,0.0,0.0,
208,5.0,decreament,0.6,100.0,standard,11.0,0.0,1.0,
209,5.0,decreament,0.6,100.0,standard,11.0,0.0,1.0,
210,5.0,increament,0.6,100.0,standard,15.0,0.0,1.0,
211,5.0,increament,0.6,100.0,standard,15.0,0.0,1.0,
212,5.0,increament,0.6,100.0,standard,15.0,0.0,1.0,
213,5.0,increament,0.6,100.0,standard,15.0,0.0,1.0,
214,5.0,increament,0.6,100.0,standard,15.0,0.0,1.0,
215,5.0,increament,0.6,100.0,standard,15.0,0.0,1.0,
216,5.0,increament,0.6,100.0,standard,15.0,0.0,1.0,
217,5.0,increament,0.6,100.0,standard,15.0,0.0,1.0,
218,5.0,increament,0.6,100.0,standard,15.0,0.0,1.0,
219,5.0,increament,0.6,100.0,standard,15.0,0.0,1.0,
220,5.0,increament,0.72,120.0,oddball,16.0,0.0,1.0,0.5389061998575926
221,5.0,increament,0.6,100.0,standard,15.0,0.0,1.0,
222,5.0,increament,0.6,100.0,standard,15.0,0.0,1.0,
223,5.0,increament,0.6,100.0,standard,15.0,0.0,1.0,
224,5.0,increament,0.96,160.0,oddball,18.0,0.0,0.0,
225,5.0,increament,0.6,100.0,standard,15.0,0.0,1.0,
226,5.0,increament,0.6,100.0,standard,15.0,0.0,1.0,
227,5.0,increament,0.6,100.0,standard,15.0,0.0,1.0,
228,5.0,increament,0.6,100.0,standard,15.0,0.0,1.0,
229,5.0,increament,0.6,100.0,standard,15.0,0.0,1.0,
230,5.0,increament,0.6,100.0,standard,15.0,0.0,1.0,
231,5.0,increament,0.6,100.0,standard,15.0,0.0,1.0,
232,5.0,increament,0.6,100.0,standard,15.0,0.0,1.0,
233,5.0,increament,0.6,100.0,standard,15.0,0.0,1.0,
234,5.0,increament,0.6,100.0,standard,15.0,0.0,1.0,
235,5.0,increament,0.6,100.0,standard,15.0,0.0,1.0,
236,5.0,increament,0.6,100.0,standard,15.0,0.0,1.0,
237,5.0,increament,0.84,140.0,oddball,17.0,0.0,0.0,
238,5.0,increament,0.6,100.0,standard,15.0,0.0,1.0,
239,5.0,increament,0.6,100.0,standard,15.0,0.0,0.0,0.9024575003422796
240,5.0,decreament,0.6,100.0,standard,11.0,0.0,1.0,
241,5.0,decreament,0.6,100.0,standard,11.0,0.0,1.0,
242,5.0,decreament,0.6,100.0,standard,11.0,0.0,1.0,
243,5.0,decreament,0.6,100.0,standard,11.0,0.0,1.0,
244,5.0,decreament,0.6,100.0,standard,11.0,0.0,1.0,
245,5.0,decreament,0.6,100.0,standard,11.0,0.0,1.0,
246,5.0,decreament,0.6,100.0,standard,11.0,0.0,1.0,
247,5.0,decreament,0.6,100.0,standard,11.0,0.0,1.0,
248,5.0,decreament,0.6,100.0,standard,11.0,0.0,1.0,
249,5.0,decreament,0.48,80.0,oddball,14.0,0.0,0.0,
250,5.0,decreament,0.6,100.0,standard,11.0,0.0,1.0,
251,5.0,decreament,0.6,100.0,standard,11.0,0.0,1.0,
252,5.0,decreament,0.6,100.0,standard,11.0,0.0,1.0,
253,5.0,decreament,0.6,100.0,standard,11.0,0.0,1.0,
254,5.0,decreament,0.6,100.0,standard,11.0,0.0,0.0,1.0291371997445822
255,5.0,decreament,0.6,100.0,standard,11.0,0.0,1.0,
256,5.0,decreament,0.6,100.0,standard,11.0,0.0,0.0,0.9561093999072908
257,5.0,decreament,0.6,100.0,standard,11.0,0.0,1.0,
258,5.0,decreament,0.6,100.0,standard,11.0,0.0,1.0,
259,5.0,decreament,0.6,100.0,standard,11.0,0.0,1.0,
260,5.0,decreament,0.6,100.0,standard,11.0,0.0,1.0,
261,5.0,decreament,0.24,40.0,oddball,12.0,0.0,0.0,
262,5.0,decreament,0.6,100.0,standard,11.0,0.0,1.0,
263,5.0,decreament,0.6,100.0,standard,11.0,0.0,1.0,
264,5.0,decreament,0.6,100.0,standard,11.0,0.0,1.0,
265,5.0,decreament,0.6,100.0,standard,11.0,0.0,1.0,
266,5.0,decreament,0.6,100.0,standard,11.0,0.0,1.0,
267,5.0,decreament,0.6,100.0,standard,11.0,0.0,1.0,
268,5.0,decreament,0.6,100.0,standard,11.0,0.0,1.0,
269,5.0,decreament,0.36,60.0,oddball,13.0,0.0,1.0,0.8403002000413835
270,5.0,increament,0.6,100.0,standard,15.0,0.0,1.0,
271,5.0,increament,0.6,100.0,standard,15.0,0.0,1.0,
272,5.0,increament,0.6,100.0,standard,15.0,0.0,1.0,
273,5.0,increament,0.6,100.0,standard,15.0,0.0,1.0,
274,5.0,increament,0.6,100.0,standard,15.0,0.0,1.0,
275,5.0,increament,0.84,140.0,oddball,17.0,0.0,1.0,0.7451701001264155
276,5.0,increament,0.6,100.0,standard,15.0,0.0,1.0,
277,5.0,increament,0.6,100.0,standard,15.0,0.0,1.0,
278,5.0,increament,0.6,100.0,standard,15.0,0.0,1.0,
279,5.0,increament,0.6,100.0,standard,15.0,0.0,1.0,
280,5.0,increament,0.6,100.0,standard,15.0,0.0,0.0,1.1469939001835885
281,5.0,increament,0.96,160.0,oddball,18.0,0.0,1.0,0.642170799896121
282,5.0,increament,0.6,100.0,standard,15.0,0.0,1.0,
283,5.0,increament,0.6,100.0,standard,15.0,0.0,1.0,
284,5.0,increament,0.6,100.0,standard,15.0,0.0,1.0,
285,5.0,increament,0.6,100.0,standard,15.0,0.0,1.0,
286,5.0,increament,0.6,100.0,standard,15.0,0.0,1.0,
287,5.0,increament,0.6,100.0,standard,15.0,0.0,1.0,
288,5.0,increament,0.6,100.0,standard,15.0,0.0,1.0,
289,5.0,increament,0.6,100.0,standard,15.0,0.0,1.0,
290,5.0,increament,0.6,100.0,standard,15.0,0.0,1.0,
291,5.0,increament,0.6,100.0,standard,15.0,0.0,1.0,
292,5.0,increament,0.6,100.0,standard,15.0,0.0,1.0,
293,5.0,increament,0.6,100.0,standard,15.0,0.0,1.0,
294,5.0,increament,0.6,100.0,standard,15.0,0.0,1.0,
295,5.0,increament,0.6,100.0,standard,15.0,0.0,1.0,
296,5.0,increament,0.6,100.0,standard,15.0,0.0,1.0,
297,5.0,increament,0.6,100.0,standard,15.0,0.0,1.0,
298,5.0,increament,0.6,100.0,standard,15.0,0.0,1.0,
299,5.0,increament,0.72,120.0,oddball,16.0,0.0,0.0,
300,10.0,decreament,0.6,100.0,standard,21.0,1.0,1.0,
301,10.0,decreament,0.6,100.0,standard,21.0,1.0,1.0,
302,10.0,decreament,0.6,100.0,standard,21.0,1.0,1.0,
303,10.0,decreament,0.6,100.0,standard,21.0,1.0,1.0,
304,10.0,decreament,0.6,100.0,standard,21.0,1.0,1.0,
305,10.0,decreament,0.6,100.0,standard,21.0,1.0,1.0,
306,10.0,decreament,0.6,100.0,standard,21.0,1.0,1.0,
307,10.0,decreament,0.24,40.0,oddball,22.0,1.0,1.0,0.7261393000371754
308,10.0,decreament,0.6,100.0,standard,21.0,1.0,1.0,
309,10.0,decreament,0.6,100.0,standard,21.0,1.0,1.0,
310,10.0,decreament,0.6,100.0,standard,21.0,1.0,1.0,
311,10.0,decreament,0.6,100.0,standard,21.0,1.0,0.0,0.5307010998949409
312,10.0,decreament,0.6,100.0,standard,21.0,1.0,1.0,
313,10.0,decreament,0.6,100.0,standard,21.0,1.0,1.0,
314,10.0,decreament,0.6,100.0,standard,21.0,1.0,1.0,
315,10.0,decreament,0.6,100.0,standard,21.0,1.0,1.0,
316,10.0,decreament,0.6,100.0,standard,21.0,1.0,0.0,0.579258699901402
317,10.0,decreament,0.6,100.0,standard,21.0,1.0,1.0,
318,10.0,decreament,0.6,100.0,standard,21.0,1.0,1.0,
319,10.0,decreament,0.6,100.0,standard,21.0,1.0,1.0,
320,10.0,decreament,0.6,100.0,standard,21.0,1.0,1.0,
321,10.0,decreament,0.6,100.0,standard,21.0,1.0,1.0,
322,10.0,decreament,0.6,100.0,standard,21.0,1.0,1.0,
323,10.0,decreament,0.48,80.0,oddball,24.0,1.0,0.0,
324,10.0,decreament,0.6,100.0,standard,21.0,1.0,1.0,
325,10.0,decreament,0.6,100.0,standard,21.0,1.0,1.0,
326,10.0,decreament,0.6,100.0,standard,21.0,1.0,0.0,0.5773154003545642
327,10.0,decreament,0.6,100.0,standard,21.0,1.0,0.0,0.6743534002453089
328,10.0,decreament,0.36,60.0,oddball,23.0,1.0,0.0,
329,10.0,decreament,0.6,100.0,standard,21.0,1.0,1.0,
330,10.0,increament,0.6,100.0,standard,25.0,1.0,1.0,
331,10.0,increament,0.6,100.0,standard,25.0,1.0,1.0,
332,10.0,increament,0.6,100.0,standard,25.0,1.0,1.0,
333,10.0,increament,0.6,100.0,standard,25.0,1.0,1.0,
334,10.0,increament,0.6,100.0,standard,25.0,1.0,1.0,
335,10.0,increament,0.6,100.0,standard,25.0,1.0,1.0,
336,10.0,increament,0.6,100.0,standard,25.0,1.0,1.0,
337,10.0,increament,0.6,100.0,standard,25.0,1.0,1.0,
338,10.0,increament,0.6,100.0,standard,25.0,1.0,1.0,
339,10.0,increament,0.84,140.0,oddball,27.0,1.0,1.0,0.5932247997261584
340,10.0,increament,0.6,100.0,standard,25.0,1.0,1.0,
341,10.0,increament,0.6,100.0,standard,25.0,1.0,1.0,
342,10.0,increament,0.6,100.0,standard,25.0,1.0,1.0,
343,10.0,increament,0.6,100.0,standard,25.0,1.0,0.0,1.3660476999357345
344,10.0,increament,0.6,100.0,standard,25.0,1.0,1.0,
345,10.0,increament,0.6,100.0,standard,25.0,1.0,1.0,
346,10.0,increament,0.6,100.0,standard,25.0,1.0,1.0,
347,10.0,increament,0.6,100.0,standard,25.0,1.0,1.0,
348,10.0,increament,0.6,100.0,standard,25.0,1.0,1.0,
349,10.0,increament,0.6,100.0,standard,25.0,1.0,1.0,
350,10.0,increament,0.6,100.0,standard,25.0,1.0,0.0,0.7867799997329712
351,10.0,increament,0.72,120.0,oddball,26.0,1.0,1.0,0.4896900998428464
352,10.0,increament,0.6,100.0,standard,25.0,1.0,1.0,
353,10.0,increament,0.6,100.0,standard,25.0,1.0,1.0,
354,10.0,increament,0.6,100.0,standard,25.0,1.0,1.0,
355,10.0,increament,0.6,100.0,standard,25.0,1.0,1.0,
356,10.0,increament,0.6,100.0,standard,25.0,1.0,1.0,
357,10.0,increament,0.6,100.0,standard,25.0,1.0,1.0,
358,10.0,increament,0.96,160.0,oddball,28.0,1.0,0.0,
359,10.0,increament,0.6,100.0,standard,25.0,1.0,1.0,
360,10.0,decreament,0.6,100.0,standard,21.0,1.0,1.0,
361,10.0,decreament,0.6,100.0,standard,21.0,1.0,1.0,
362,10.0,decreament,0.6,100.0,standard,21.0,1.0,1.0,
363,10.0,decreament,0.6,100.0,standard,21.0,1.0,1.0,
364,10.0,decreament,0.6,100.0,standard,21.0,1.0,1.0,
365,10.0,decreament,0.6,100.0,standard,21.0,1.0,1.0,
366,10.0,decreament,0.6,100.0,standard,21.0,1.0,1.0,
367,10.0,decreament,0.6,100.0,standard,21.0,1.0,1.0,
368,10.0,decreament,0.24,40.0,oddball,22.0,1.0,1.0,0.574664399959147
369,10.0,decreament,0.6,100.0,standard,21.0,1.0,1.0,
370,10.0,decreament,0.6,100.0,standard,21.0,1.0,1.0,
371,10.0,decreament,0.6,100.0,standard,21.0,1.0,1.0,
372,10.0,decreament,0.6,100.0,standard,21.0,1.0,1.0,
373,10.0,decreament,0.6,100.0,standard,21.0,1.0,1.0,
374,10.0,decreament,0.6,100.0,standard,21.0,1.0,1.0,
375,10.0,decreament,0.6,100.0,standard,21.0,1.0,1.0,
376,10.0,decreament,0.6,100.0,standard,21.0,1.0,1.0,
377,10.0,decreament,0.6,100.0,standard,21.0,1.0,1.0,
378,10.0,decreament,0.48,80.0,oddball,24.0,1.0,0.0,
379,10.0,decreament,0.6,100.0,standard,21.0,1.0,1.0,
380,10.0,decreament,0.6,100.0,standard,21.0,1.0,1.0,
381,10.0,decreament,0.6,100.0,standard,21.0,1.0,1.0,
382,10.0,decreament,0.36,60.0,oddball,23.0,1.0,0.0,
383,10.0,decreament,0.6,100.0,standard,21.0,1.0,1.0,
384,10.0,decreament,0.6,100.0,standard,21.0,1.0,0.0,1.0282029998488724
385,10.0,decreament,0.6,100.0,standard,21.0,1.0,0.0,0.5210686000064015
386,10.0,decreament,0.6,100.0,standard,21.0,1.0,1.0,
387,10.0,decreament,0.6,100.0,standard,21.0,1.0,1.0,
388,10.0,decreament,0.6,100.0,standard,21.0,1.0,1.0,
389,10.0,decreament,0.6,100.0,standard,21.0,1.0,1.0,
390,10.0,increament,0.6,100.0,standard,25.0,1.0,1.0,
391,10.0,increament,0.6,100.0,standard,25.0,1.0,1.0,
392,10.0,increament,0.6,100.0,standard,25.0,1.0,1.0,
393,10.0,increament,0.6,100.0,standard,25.0,1.0,1.0,
394,10.0,increament,0.6,100.0,standard,25.0,1.0,1.0,
395,10.0,increament,0.6,100.0,standard,25.0,1.0,1.0,
396,10.0,increament,0.6,100.0,standard,25.0,1.0,1.0,
397,10.0,increament,0.6,100.0,standard,25.0,1.0,0.0,0.8286667000502348
398,10.0,increament,0.6,100.0,standard,25.0,1.0,1.0,
399,10.0,increament,0.6,100.0,standard,25.0,1.0,1.0,
400,10.0,increament,0.6,100.0,standard,25.0,1.0,1.0,
401,10.0,increament,0.6,100.0,standard,25.0,1.0,1.0,
402,10.0,increament,0.6,100.0,standard,25.0,1.0,1.0,
403,10.0,increament,0.84,140.0,oddball,27.0,1.0,1.0,0.3564490000717342
404,10.0,increament,0.6,100.0,standard,25.0,1.0,1.0,
405,10.0,increament,0.6,100.0,standard,25.0,1.0,1.0,
406,10.0,increament,0.6,100.0,standard,25.0,1.0,1.0,
407,10.0,increament,0.6,100.0,standard,25.0,1.0,1.0,
408,10.0,increament,0.6,100.0,standard,25.0,1.0,1.0,
409,10.0,increament,0.72,120.0,oddball,26.0,1.0,0.0,
410,10.0,increament,0.6,100.0,standard,25.0,1.0,1.0,
411,10.0,increament,0.6,100.0,standard,25.0,1.0,1.0,
412,10.0,increament,0.6,100.0,standard,25.0,1.0,1.0,
413,10.0,increament,0.6,100.0,standard,25.0,1.0,1.0,
414,10.0,increament,0.96,160.0,oddball,28.0,1.0,0.0,
415,10.0,increament,0.6,100.0,standard,25.0,1.0,1.0,
416,10.0,increament,0.6,100.0,standard,25.0,1.0,1.0,
417,10.0,increament,0.6,100.0,standard,25.0,1.0,1.0,
418,10.0,increament,0.6,100.0,standard,25.0,1.0,1.0,
419,10.0,increament,0.6,100.0,standard,25.0,1.0,1.0,
420,10.0,decreament,0.6,100.0,standard,21.0,1.0,1.0,
421,10.0,decreament,0.6,100.0,standard,21.0,1.0,1.0,
422,10.0,decreament,0.6,100.0,standard,21.0,1.0,1.0,
423,10.0,decreament,0.6,100.0,standard,21.0,1.0,1.0,
424,10.0,decreament,0.6,100.0,standard,21.0,1.0,1.0,
425,10.0,decreament,0.6,100.0,standard,21.0,1.0,1.0,
426,10.0,decreament,0.36,60.0,oddball,23.0,1.0,1.0,1.1664272001944482
427,10.0,decreament,0.6,100.0,standard,21.0,1.0,1.0,
428,10.0,decreament,0.6,100.0,standard,21.0,1.0,1.0,
429,10.0,decreament,0.6,100.0,standard,21.0,1.0,1.0,
430,10.0,decreament,0.6,100.0,standard,21.0,1.0,1.0,
431,10.0,decreament,0.6,100.0,standard,21.0,1.0,1.0,
432,10.0,decreament,0.6,100.0,standard,21.0,1.0,1.0,
433,10.0,decreament,0.6,100.0,standard,21.0,1.0,1.0,
434,10.0,decreament,0.6,100.0,standard,21.0,1.0,1.0,
435,10.0,decreament,0.6,100.0,standard,21.0,1.0,1.0,
436,10.0,decreament,0.6,100.0,standard,21.0,1.0,1.0,
437,10.0,decreament,0.6,100.0,standard,21.0,1.0,1.0,
438,10.0,decreament,0.6,100.0,standard,21.0,1.0,1.0,
439,10.0,decreament,0.6,100.0,standard,21.0,1.0,1.0,
440,10.0,decreament,0.6,100.0,standard,21.0,1.0,1.0,
441,10.0,decreament,0.48,80.0,oddball,24.0,1.0,0.0,
442,10.0,decreament,0.6,100.0,standard,21.0,1.0,1.0,
443,10.0,decreament,0.6,100.0,standard,21.0,1.0,1.0,
444,10.0,decreament,0.6,100.0,standard,21.0,1.0,1.0,
445,10.0,decreament,0.24,40.0,oddball,22.0,1.0,0.0,
446,10.0,decreament,0.6,100.0,standard,21.0,1.0,1.0,
447,10.0,decreament,0.6,100.0,standard,21.0,1.0,1.0,
448,10.0,decreament,0.6,100.0,standard,21.0,1.0,1.0,
449,10.0,decreament,0.6,100.0,standard,21.0,1.0,1.0,
450,10.0,increament,0.6,100.0,standard,25.0,1.0,1.0,
451,10.0,increament,0.6,100.0,standard,25.0,1.0,1.0,
452,10.0,increament,0.6,100.0,standard,25.0,1.0,1.0,
453,10.0,increament,0.6,100.0,standard,25.0,1.0,1.0,
454,10.0,increament,0.6,100.0,standard,25.0,1.0,1.0,
455,10.0,increament,0.6,100.0,standard,25.0,1.0,1.0,
456,10.0,increament,0.6,100.0,standard,25.0,1.0,1.0,
457,10.0,increament,0.6,100.0,standard,25.0,1.0,1.0,
458,10.0,increament,0.6,100.0,standard,25.0,1.0,1.0,
459,10.0,increament,0.6,100.0,standard,25.0,1.0,1.0,
460,10.0,increament,0.6,100.0,standard,25.0,1.0,1.0,
461,10.0,increament,0.6,100.0,standard,25.0,1.0,1.0,
462,10.0,increament,0.6,100.0,standard,25.0,1.0,1.0,
463,10.0,increament,0.72,120.0,oddball,26.0,1.0,0.0,
464,10.0,increament,0.6,100.0,standard,25.0,1.0,1.0,
465,10.0,increament,0.6,100.0,standard,25.0,1.0,1.0,
466,10.0,increament,0.6,100.0,standard,25.0,1.0,1.0,
467,10.0,increament,0.6,100.0,standard,25.0,1.0,1.0,
468,10.0,increament,0.6,100.0,standard,25.0,1.0,1.0,
469,10.0,increament,0.6,100.0,standard,25.0,1.0,1.0,
470,10.0,increament,0.6,100.0,standard,25.0,1.0,1.0,
471,10.0,increament,0.6,100.0,standard,25.0,1.0,1.0,
472,10.0,increament,0.96,160.0,oddball,28.0,1.0,0.0,
473,10.0,increament,0.6,100.0,standard,25.0,1.0,1.0,
474,10.0,increament,0.6,100.0,standard,25.0,1.0,1.0,
475,10.0,increament,0.6,100.0,standard,25.0,1.0,1.0,
476,10.0,increament,0.6,100.0,standard,25.0,1.0,1.0,
477,10.0,increament,0.6,100.0,standard,25.0,1.0,1.0,
478,10.0,increament,0.6,100.0,standard,25.0,1.0,1.0,
479,10.0,increament,0.84,140.0,oddball,27.0,1.0,1.0,0.4356668996624648
480,10.0,decreament,0.6,100.0,standard,21.0,1.0,1.0,
481,10.0,decreament,0.6,100.0,standard,21.0,1.0,1.0,
482,10.0,decreament,0.6,100.0,standard,21.0,1.0,1.0,
483,10.0,decreament,0.6,100.0,standard,21.0,1.0,1.0,
484,10.0,decreament,0.6,100.0,standard,21.0,1.0,1.0,
485,10.0,decreament,0.6,100.0,standard,21.0,1.0,1.0,
486,10.0,decreament,0.6,100.0,standard,21.0,1.0,1.0,
487,10.0,decreament,0.6,100.0,standard,21.0,1.0,1.0,
488,10.0,decreament,0.6,100.0,standard,21.0,1.0,0.0,1.0743270996026697
489,10.0,decreament,0.48,80.0,oddball,24.0,1.0,1.0,0.4664226002059877
490,10.0,decreament,0.6,100.0,standard,21.0,1.0,1.0,
491,10.0,decreament,0.6,100.0,standard,21.0,1.0,1.0,
492,10.0,decreament,0.6,100.0,standard,21.0,1.0,1.0,
493,10.0,decreament,0.6,100.0,standard,21.0,1.0,1.0,
494,10.0,decreament,0.6,100.0,standard,21.0,1.0,1.0,
495,10.0,decreament,0.6,100.0,standard,21.0,1.0,1.0,
496,10.0,decreament,0.6,100.0,standard,21.0,1.0,1.0,
497,10.0,decreament,0.6,100.0,standard,21.0,1.0,1.0,
498,10.0,decreament,0.6,100.0,standard,21.0,1.0,1.0,
499,10.0,decreament,0.6,100.0,standard,21.0,1.0,1.0,
500,10.0,decreament,0.36,60.0,oddball,23.0,1.0,0.0,
501,10.0,decreament,0.6,100.0,standard,21.0,1.0,1.0,
502,10.0,decreament,0.6,100.0,standard,21.0,1.0,1.0,
503,10.0,decreament,0.6,100.0,standard,21.0,1.0,1.0,
504,10.0,decreament,0.6,100.0,standard,21.0,1.0,1.0,
505,10.0,decreament,0.6,100.0,standard,21.0,1.0,1.0,
506,10.0,decreament,0.6,100.0,standard,21.0,1.0,1.0,
507,10.0,decreament,0.6,100.0,standard,21.0,1.0,1.0,
508,10.0,decreament,0.6,100.0,standard,21.0,1.0,1.0,
509,10.0,decreament,0.24,40.0,oddball,22.0,1.0,0.0,
510,10.0,increament,0.6,100.0,standard,25.0,1.0,1.0,
511,10.0,increament,0.6,100.0,standard,25.0,1.0,1.0,
512,10.0,increament,0.6,100.0,standard,25.0,1.0,1.0,
513,10.0,increament,0.6,100.0,standard,25.0,1.0,1.0,
514,10.0,increament,0.6,100.0,standard,25.0,1.0,1.0,
515,10.0,increament,0.6,100.0,standard,25.0,1.0,1.0,
516,10.0,increament,0.6,100.0,standard,25.0,1.0,1.0,
517,10.0,increament,0.6,100.0,standard,25.0,1.0,1.0,
518,10.0,increament,0.6,100.0,standard,25.0,1.0,1.0,
519,10.0,increament,0.6,100.0,standard,25.0,1.0,1.0,
520,10.0,increament,0.6,100.0,standard,25.0,1.0,1.0,
521,10.0,increament,0.6,100.0,standard,25.0,1.0,1.0,
522,10.0,increament,0.6,100.0,standard,25.0,1.0,1.0,
523,10.0,increament,0.6,100.0,standard,25.0,1.0,1.0,
524,10.0,increament,0.84,140.0,oddball,27.0,1.0,0.0,
525,10.0,increament,0.6,100.0,standard,25.0,1.0,1.0,
526,10.0,increament,0.6,100.0,standard,25.0,1.0,1.0,
527,10.0,increament,0.6,100.0,standard,25.0,1.0,1.0,
528,10.0,increament,0.6,100.0,standard,25.0,1.0,1.0,
529,10.0,increament,0.6,100.0,standard,25.0,1.0,1.0,
530,10.0,increament,0.72,120.0,oddball,26.0,1.0,0.0,
531,10.0,increament,0.6,100.0,standard,25.0,1.0,1.0,
532,10.0,increament,0.6,100.0,standard,25.0,1.0,1.0,
533,10.0,increament,0.6,100.0,standard,25.0,1.0,1.0,
534,10.0,increament,0.96,160.0,oddball,28.0,1.0,0.0,
535,10.0,increament,0.6,100.0,standard,25.0,1.0,1.0,
536,10.0,increament,0.6,100.0,standard,25.0,1.0,1.0,
537,10.0,increament,0.6,100.0,standard,25.0,1.0,1.0,
538,10.0,increament,0.6,100.0,standard,25.0,1.0,1.0,
539,10.0,increament,0.6,100.0,standard,25.0,1.0,1.0,
540,10.0,decreament,0.6,100.0,standard,21.0,1.0,1.0,
541,10.0,decreament,0.6,100.0,standard,21.0,1.0,1.0,
542,10.0,decreament,0.6,100.0,standard,21.0,1.0,1.0,
543,10.0,decreament,0.6,100.0,standard,21.0,1.0,1.0,
544,10.0,decreament,0.6,100.0,standard,21.0,1.0,1.0,
545,10.0,decreament,0.6,100.0,standard,21.0,1.0,1.0,
546,10.0,decreament,0.6,100.0,standard,21.0,1.0,1.0,
547,10.0,decreament,0.6,100.0,standard,21.0,1.0,1.0,
548,10.0,decreament,0.6,100.0,standard,21.0,1.0,1.0,
549,10.0,decreament,0.6,100.0,standard,21.0,1.0,1.0,
550,10.0,decreament,0.6,100.0,standard,21.0,1.0,1.0,
551,10.0,decreament,0.6,100.0,standard,21.0,1.0,0.0,1.4975346000865102
552,10.0,decreament,0.6,100.0,standard,21.0,1.0,1.0,
553,10.0,decreament,0.6,100.0,standard,21.0,1.0,1.0,
554,10.0,decreament,0.6,100.0,standard,21.0,1.0,1.0,
555,10.0,decreament,0.6,100.0,standard,21.0,1.0,1.0,
556,10.0,decreament,0.6,100.0,standard,21.0,1.0,1.0,
557,10.0,decreament,0.36,60.0,oddball,23.0,1.0,0.0,
558,10.0,decreament,0.6,100.0,standard,21.0,1.0,1.0,
559,10.0,decreament,0.6,100.0,standard,21.0,1.0,1.0,
560,10.0,decreament,0.6,100.0,standard,21.0,1.0,1.0,
561,10.0,decreament,0.6,100.0,standard,21.0,1.0,1.0,
562,10.0,decreament,0.48,80.0,oddball,24.0,1.0,0.0,
563,10.0,decreament,0.6,100.0,standard,21.0,1.0,1.0,
564,10.0,decreament,0.6,100.0,standard,21.0,1.0,1.0,
565,10.0,decreament,0.6,100.0,standard,21.0,1.0,0.0,0.5318017001263797
566,10.0,decreament,0.6,100.0,standard,21.0,1.0,1.0,
567,10.0,decreament,0.6,100.0,standard,21.0,1.0,1.0,
568,10.0,decreament,0.6,100.0,standard,21.0,1.0,1.0,
569,10.0,decreament,0.24,40.0,oddball,22.0,1.0,1.0,0.9027156997472048
570,10.0,increament,0.6,100.0,standard,25.0,1.0,1.0,
571,10.0,increament,0.6,100.0,standard,25.0,1.0,1.0,
572,10.0,increament,0.6,100.0,standard,25.0,1.0,1.0,
573,10.0,increament,0.6,100.0,standard,25.0,1.0,1.0,
574,10.0,increament,0.6,100.0,standard,25.0,1.0,1.0,
575,10.0,increament,0.6,100.0,standard,25.0,1.0,1.0,
576,10.0,increament,0.84,140.0,oddball,27.0,1.0,1.0,0.6266197999939322
577,10.0,increament,0.6,100.0,standard,25.0,1.0,1.0,
578,10.0,increament,0.6,100.0,standard,25.0,1.0,1.0,
579,10.0,increament,0.6,100.0,standard,25.0,1.0,1.0,
580,10.0,increament,0.6,100.0,standard,25.0,1.0,1.0,
581,10.0,increament,0.6,100.0,standard,25.0,1.0,1.0,
582,10.0,increament,0.6,100.0,standard,25.0,1.0,0.0,0.5273955999873579
583,10.0,increament,0.6,100.0,standard,25.0,1.0,1.0,
584,10.0,increament,0.6,100.0,standard,25.0,1.0,1.0,
585,10.0,increament,0.6,100.0,standard,25.0,1.0,1.0,
586,10.0,increament,0.72,120.0,oddball,26.0,1.0,0.0,
587,10.0,increament,0.6,100.0,standard,25.0,1.0,1.0,
588,10.0,increament,0.6,100.0,standard,25.0,1.0,1.0,
589,10.0,increament,0.6,100.0,standard,25.0,1.0,0.0,0.7901814999058843
590,10.0,increament,0.6,100.0,standard,25.0,1.0,1.0,
591,10.0,increament,0.6,100.0,standard,25.0,1.0,0.0,0.4600754999555647
592,10.0,increament,0.6,100.0,standard,25.0,1.0,1.0,
593,10.0,increament,0.6,100.0,standard,25.0,1.0,0.0,0.704606699757278
594,10.0,increament,0.96,160.0,oddball,28.0,1.0,1.0,0.519864599686116
595,10.0,increament,0.6,100.0,standard,25.0,1.0,1.0,
596,10.0,increament,0.6,100.0,standard,25.0,1.0,1.0,
597,10.0,increament,0.6,100.0,standard,25.0,1.0,1.0,
598,10.0,increament,0.6,100.0,standard,25.0,1.0,1.0,
599,10.0,increament,0.6,100.0,standard,25.0,1.0,1.0,
600,0.0,decreament,0.6,100.0,standard,1.0,2.0,1.0,
601,0.0,decreament,0.6,100.0,standard,1.0,2.0,1.0,
602,0.0,decreament,0.6,100.0,standard,1.0,2.0,1.0,
603,0.0,decreament,0.6,100.0,standard,1.0,2.0,1.0,
604,0.0,decreament,0.6,100.0,standard,1.0,2.0,1.0,
605,0.0,decreament,0.6,100.0,standard,1.0,2.0,1.0,
606,0.0,decreament,0.6,100.0,standard,1.0,2.0,1.0,
607,0.0,decreament,0.6,100.0,standard,1.0,2.0,1.0,
608,0.0,decreament,0.6,100.0,standard,1.0,2.0,1.0,
609,0.0,decreament,0.6,100.0,standard,1.0,2.0,1.0,
610,0.0,decreament,0.6,100.0,standard,1.0,2.0,1.0,
611,0.0,decreament,0.6,100.0,standard,1.0,2.0,1.0,
612,0.0,decreament,0.6,100.0,standard,1.0,2.0,1.0,
613,0.0,decreament,0.6,100.0,standard,1.0,2.0,1.0,
614,0.0,decreament,0.36,60.0,oddball,3.0,2.0,0.0,
615,0.0,decreament,0.6,100.0,standard,1.0,2.0,1.0,
616,0.0,decreament,0.6,100.0,standard,1.0,2.0,1.0,
617,0.0,decreament,0.6,100.0,standard,1.0,2.0,1.0,
618,0.0,decreament,0.6,100.0,standard,1.0,2.0,1.0,
619,0.0,decreament,0.6,100.0,standard,1.0,2.0,1.0,
620,0.0,decreament,0.24,40.0,oddball,2.0,2.0,0.0,
621,0.0,decreament,0.6,100.0,standard,1.0,2.0,1.0,
622,0.0,decreament,0.6,100.0,standard,1.0,2.0,1.0,
623,0.0,decreament,0.6,100.0,standard,1.0,2.0,1.0,
624,0.0,decreament,0.48,80.0,oddball,4.0,2.0,0.0,
625,0.0,decreament,0.6,100.0,standard,1.0,2.0,1.0,
626,0.0,decreament,0.6,100.0,standard,1.0,2.0,1.0,
627,0.0,decreament,0.6,100.0,standard,1.0,2.0,1.0,
628,0.0,decreament,0.6,100.0,standard,1.0,2.0,1.0,
629,0.0,decreament,0.6,100.0,standard,1.0,2.0,1.0,
630,0.0,increament,0.6,100.0,standard,5.0,2.0,1.0,
631,0.0,increament,0.6,100.0,standard,5.0,2.0,1.0,
632,0.0,increament,0.6,100.0,standard,5.0,2.0,1.0,
633,0.0,increament,0.6,100.0,standard,5.0,2.0,1.0,
634,0.0,increament,0.6,100.0,standard,5.0,2.0,1.0,
635,0.0,increament,0.6,100.0,standard,5.0,2.0,1.0,
636,0.0,increament,0.84,140.0,oddball,7.0,2.0,0.0,
637,0.0,increament,0.6,100.0,standard,5.0,2.0,1.0,
638,0.0,increament,0.6,100.0,standard,5.0,2.0,1.0,
639,0.0,increament,0.6,100.0,standard,5.0,2.0,1.0,
640,0.0,increament,0.72,120.0,oddball,6.0,2.0,0.0,
641,0.0,increament,0.6,100.0,standard,5.0,2.0,1.0,
642,0.0,increament,0.6,100.0,standard,5.0,2.0,1.0,
643,0.0,increament,0.6,100.0,standard,5.0,2.0,1.0,
644,0.0,increament,0.6,100.0,standard,5.0,2.0,0.0,0.4881879999302327
645,0.0,increament,0.6,100.0,standard,5.0,2.0,1.0,
646,0.0,increament,0.6,100.0,standard,5.0,2.0,1.0,
647,0.0,increament,0.6,100.0,standard,5.0,2.0,1.0,
648,0.0,increament,0.6,100.0,standard,5.0,2.0,1.0,
649,0.0,increament,0.6,100.0,standard,5.0,2.0,1.0,
650,0.0,increament,0.6,100.0,standard,5.0,2.0,1.0,
651,0.0,increament,0.6,100.0,standard,5.0,2.0,1.0,
652,0.0,increament,0.6,100.0,standard,5.0,2.0,1.0,
653,0.0,increament,0.6,100.0,standard,5.0,2.0,1.0,
654,0.0,increament,0.6,100.0,standard,5.0,2.0,1.0,
655,0.0,increament,0.6,100.0,standard,5.0,2.0,1.0,
656,0.0,increament,0.6,100.0,standard,5.0,2.0,1.0,
657,0.0,increament,0.6,100.0,standard,5.0,2.0,1.0,
658,0.0,increament,0.6,100.0,standard,5.0,2.0,1.0,
659,0.0,increament,0.96,160.0,oddball,8.0,2.0,1.0,0.5584318996407092
660,0.0,decreament,0.6,100.0,standard,1.0,2.0,1.0,
661,0.0,decreament,0.6,100.0,standard,1.0,2.0,1.0,
662,0.0,decreament,0.6,100.0,standard,1.0,2.0,1.0,
663,0.0,decreament,0.6,100.0,standard,1.0,2.0,1.0,
664,0.0,decreament,0.6,100.0,standard,1.0,2.0,0.0,0.7900003003887832
665,0.0,decreament,0.6,100.0,standard,1.0,2.0,1.0,
666,0.0,decreament,0.6,100.0,standard,1.0,2.0,1.0,
667,0.0,decreament,0.6,100.0,standard,1.0,2.0,1.0,
668,0.0,decreament,0.6,100.0,standard,1.0,2.0,1.0,
669,0.0,decreament,0.6,100.0,standard,1.0,2.0,1.0,
670,0.0,decreament,0.6,100.0,standard,1.0,2.0,0.0,0.747528700158
671,0.0,decreament,0.6,100.0,standard,1.0,2.0,1.0,
672,0.0,decreament,0.36,60.0,oddball,3.0,2.0,1.0,0.7630769000388682
673,0.0,decreament,0.6,100.0,standard,1.0,2.0,1.0,
674,0.0,decreament,0.6,100.0,standard,1.0,2.0,1.0,
675,0.0,decreament,0.6,100.0,standard,1.0,2.0,1.0,
676,0.0,decreament,0.6,100.0,standard,1.0,2.0,1.0,
677,0.0,decreament,0.6,100.0,standard,1.0,2.0,1.0,
678,0.0,decreament,0.6,100.0,standard,1.0,2.0,0.0,0.5624412000179291
679,0.0,decreament,0.6,100.0,standard,1.0,2.0,0.0,0.5080747003667057
680,0.0,decreament,0.6,100.0,standard,1.0,2.0,1.0,
681,0.0,decreament,0.48,80.0,oddball,4.0,2.0,1.0,1.0255969003774226
682,0.0,decreament,0.6,100.0,standard,1.0,2.0,1.0,
683,0.0,decreament,0.6,100.0,standard,1.0,2.0,1.0,
684,0.0,decreament,0.6,100.0,standard,1.0,2.0,1.0,
685,0.0,decreament,0.6,100.0,standard,1.0,2.0,1.0,
686,0.0,decreament,0.6,100.0,standard,1.0,2.0,1.0,
687,0.0,decreament,0.24,40.0,oddball,2.0,2.0,1.0,0.8864816999994218
688,0.0,decreament,0.6,100.0,standard,1.0,2.0,1.0,
689,0.0,decreament,0.6,100.0,standard,1.0,2.0,1.0,
690,0.0,increament,0.6,100.0,standard,5.0,2.0,1.0,
691,0.0,increament,0.6,100.0,standard,5.0,2.0,1.0,
692,0.0,increament,0.6,100.0,standard,5.0,2.0,1.0,
693,0.0,increament,0.6,100.0,standard,5.0,2.0,1.0,
694,0.0,increament,0.6,100.0,standard,5.0,2.0,1.0,
695,0.0,increament,0.6,100.0,standard,5.0,2.0,1.0,
696,0.0,increament,0.6,100.0,standard,5.0,2.0,1.0,
697,0.0,increament,0.6,100.0,standard,5.0,2.0,1.0,
698,0.0,increament,0.6,100.0,standard,5.0,2.0,1.0,
699,0.0,increament,0.6,100.0,standard,5.0,2.0,1.0,
700,0.0,increament,0.6,100.0,standard,5.0,2.0,1.0,
701,0.0,increament,0.6,100.0,standard,5.0,2.0,1.0,
702,0.0,increament,0.6,100.0,standard,5.0,2.0,0.0,0.3039532001130283
703,0.0,increament,0.6,100.0,standard,5.0,2.0,1.0,
704,0.0,increament,0.84,140.0,oddball,7.0,2.0,1.0,0.4945967001840472
705,0.0,increament,0.6,100.0,standard,5.0,2.0,1.0,
706,0.0,increament,0.6,100.0,standard,5.0,2.0,1.0,
707,0.0,increament,0.6,100.0,standard,5.0,2.0,1.0,
708,0.0,increament,0.6,100.0,standard,5.0,2.0,1.0,
709,0.0,increament,0.6,100.0,standard,5.0,2.0,1.0,
710,0.0,increament,0.6,100.0,standard,5.0,2.0,1.0,
711,0.0,increament,0.6,100.0,standard,5.0,2.0,1.0,
712,0.0,increament,0.96,160.0,oddball,8.0,2.0,0.0,
713,0.0,increament,0.6,100.0,standard,5.0,2.0,1.0,
714,0.0,increament,0.6,100.0,standard,5.0,2.0,1.0,
715,0.0,increament,0.6,100.0,standard,5.0,2.0,1.0,
716,0.0,increament,0.72,120.0,oddball,6.0,2.0,1.0,0.6578134996816516
717,0.0,increament,0.6,100.0,standard,5.0,2.0,1.0,
718,0.0,increament,0.6,100.0,standard,5.0,2.0,1.0,
719,0.0,increament,0.6,100.0,standard,5.0,2.0,1.0,
720,0.0,decreament,0.6,100.0,standard,1.0,2.0,1.0,
721,0.0,decreament,0.6,100.0,standard,1.0,2.0,1.0,
722,0.0,decreament,0.6,100.0,standard,1.0,2.0,1.0,
723,0.0,decreament,0.6,100.0,standard,1.0,2.0,1.0,
724,0.0,decreament,0.6,100.0,standard,1.0,2.0,1.0,
725,0.0,decreament,0.6,100.0,standard,1.0,2.0,1.0,
726,0.0,decreament,0.6,100.0,standard,1.0,2.0,1.0,
727,0.0,decreament,0.6,100.0,standard,1.0,2.0,1.0,
728,0.0,decreament,0.48,80.0,oddball,4.0,2.0,1.0,0.7756333998404443
729,0.0,decreament,0.6,100.0,standard,1.0,2.0,1.0,
730,0.0,decreament,0.6,100.0,standard,1.0,2.0,1.0,
731,0.0,decreament,0.6,100.0,standard,1.0,2.0,1.0,
732,0.0,decreament,0.6,100.0,standard,1.0,2.0,1.0,
733,0.0,decreament,0.24,40.0,oddball,2.0,2.0,0.0,
734,0.0,decreament,0.6,100.0,standard,1.0,2.0,1.0,
735,0.0,decreament,0.6,100.0,standard,1.0,2.0,1.0,
736,0.0,decreament,0.6,100.0,standard,1.0,2.0,1.0,
737,0.0,decreament,0.6,100.0,standard,1.0,2.0,1.0,
738,0.0,decreament,0.6,100.0,standard,1.0,2.0,1.0,
739,0.0,decreament,0.6,100.0,standard,1.0,2.0,1.0,
740,0.0,decreament,0.6,100.0,standard,1.0,2.0,1.0,
741,0.0,decreament,0.6,100.0,standard,1.0,2.0,1.0,
742,0.0,decreament,0.6,100.0,standard,1.0,2.0,1.0,
743,0.0,decreament,0.6,100.0,standard,1.0,2.0,1.0,
744,0.0,decreament,0.6,100.0,standard,1.0,2.0,1.0,
745,0.0,decreament,0.6,100.0,standard,1.0,2.0,1.0,
746,0.0,decreament,0.6,100.0,standard,1.0,2.0,1.0,
747,0.0,decreament,0.6,100.0,standard,1.0,2.0,1.0,
748,0.0,decreament,0.36,60.0,oddball,3.0,2.0,1.0,0.7183531001210213
749,0.0,decreament,0.6,100.0,standard,1.0,2.0,1.0,
750,0.0,increament,0.6,100.0,standard,5.0,2.0,1.0,
751,0.0,increament,0.6,100.0,standard,5.0,2.0,1.0,
752,0.0,increament,0.6,100.0,standard,5.0,2.0,1.0,
753,0.0,increament,0.6,100.0,standard,5.0,2.0,1.0,
754,0.0,increament,0.6,100.0,standard,5.0,2.0,1.0,
755,0.0,increament,0.6,100.0,standard,5.0,2.0,1.0,
756,0.0,increament,0.6,100.0,standard,5.0,2.0,1.0,
757,0.0,increament,0.6,100.0,standard,5.0,2.0,1.0,
758,0.0,increament,0.6,100.0,standard,5.0,2.0,1.0,
759,0.0,increament,0.6,100.0,standard,5.0,2.0,0.0,0.3845843998715281
760,0.0,increament,0.6,100.0,standard,5.0,2.0,1.0,
761,0.0,increament,0.6,100.0,standard,5.0,2.0,1.0,
762,0.0,increament,0.6,100.0,standard,5.0,2.0,1.0,
763,0.0,increament,0.6,100.0,standard,5.0,2.0,1.0,
764,0.0,increament,0.6,100.0,standard,5.0,2.0,1.0,
765,0.0,increament,0.6,100.0,standard,5.0,2.0,1.0,
766,0.0,increament,0.6,100.0,standard,5.0,2.0,1.0,
767,0.0,increament,0.6,100.0,standard,5.0,2.0,1.0,
768,0.0,increament,0.6,100.0,standard,5.0,2.0,1.0,
769,0.0,increament,0.96,160.0,oddball,8.0,2.0,1.0,0.3909358000382781
770,0.0,increament,0.6,100.0,standard,5.0,2.0,1.0,
771,0.0,increament,0.6,100.0,standard,5.0,2.0,1.0,
772,0.0,increament,0.6,100.0,standard,5.0,2.0,1.0,
773,0.0,increament,0.72,120.0,oddball,6.0,2.0,0.0,
774,0.0,increament,0.6,100.0,standard,5.0,2.0,1.0,
775,0.0,increament,0.6,100.0,standard,5.0,2.0,1.0,
776,0.0,increament,0.6,100.0,standard,5.0,2.0,1.0,
777,0.0,increament,0.6,100.0,standard,5.0,2.0,1.0,
778,0.0,increament,0.6,100.0,standard,5.0,2.0,1.0,
779,0.0,increament,0.84,140.0,oddball,7.0,2.0,0.0,
780,0.0,decreament,0.6,100.0,standard,1.0,2.0,1.0,
781,0.0,decreament,0.6,100.0,standard,1.0,2.0,1.0,
782,0.0,decreament,0.6,100.0,standard,1.0,2.0,1.0,
783,0.0,decreament,0.6,100.0,standard,1.0,2.0,1.0,
784,0.0,decreament,0.6,100.0,standard,1.0,2.0,1.0,
785,0.0,decreament,0.24,40.0,oddball,2.0,2.0,1.0,1.135954599827528
786,0.0,decreament,0.6,100.0,standard,1.0,2.0,1.0,
787,0.0,decreament,0.6,100.0,standard,1.0,2.0,1.0,
788,0.0,decreament,0.6,100.0,standard,1.0,2.0,1.0,
789,0.0,decreament,0.6,100.0,standard,1.0,2.0,1.0,
790,0.0,decreament,0.6,100.0,standard,1.0,2.0,1.0,
791,0.0,decreament,0.6,100.0,standard,1.0,2.0,1.0,
792,0.0,decreament,0.6,100.0,standard,1.0,2.0,1.0,
793,0.0,decreament,0.6,100.0,standard,1.0,2.0,1.0,
794,0.0,decreament,0.36,60.0,oddball,3.0,2.0,1.0,1.2516993996687231
795,0.0,decreament,0.6,100.0,standard,1.0,2.0,1.0,
796,0.0,decreament,0.6,100.0,standard,1.0,2.0,1.0,
797,0.0,decreament,0.6,100.0,standard,1.0,2.0,1.0,
798,0.0,decreament,0.6,100.0,standard,1.0,2.0,1.0,
799,0.0,decreament,0.48,80.0,oddball,4.0,2.0,1.0,1.1052615996450186
800,0.0,decreament,0.6,100.0,standard,1.0,2.0,1.0,
801,0.0,decreament,0.6,100.0,standard,1.0,2.0,1.0,
802,0.0,decreament,0.6,100.0,standard,1.0,2.0,1.0,
803,0.0,decreament,0.6,100.0,standard,1.0,2.0,1.0,
804,0.0,decreament,0.6,100.0,standard,1.0,2.0,1.0,
805,0.0,decreament,0.6,100.0,standard,1.0,2.0,1.0,
806,0.0,decreament,0.6,100.0,standard,1.0,2.0,1.0,
807,0.0,decreament,0.6,100.0,standard,1.0,2.0,1.0,
808,0.0,decreament,0.6,100.0,standard,1.0,2.0,1.0,
809,0.0,decreament,0.6,100.0,standard,1.0,2.0,1.0,
810,0.0,increament,0.6,100.0,standard,5.0,2.0,1.0,
811,0.0,increament,0.6,100.0,standard,5.0,2.0,1.0,
812,0.0,increament,0.6,100.0,standard,5.0,2.0,1.0,
813,0.0,increament,0.6,100.0,standard,5.0,2.0,1.0,
814,0.0,increament,0.6,100.0,standard,5.0,2.0,1.0,
815,0.0,increament,0.6,100.0,standard,5.0,2.0,1.0,
816,0.0,increament,0.6,100.0,standard,5.0,2.0,1.0,
817,0.0,increament,0.6,100.0,standard,5.0,2.0,1.0,
818,0.0,increament,0.6,100.0,standard,5.0,2.0,1.0,
819,0.0,increament,0.6,100.0,standard,5.0,2.0,1.0,
820,0.0,increament,0.84,140.0,oddball,7.0,2.0,0.0,
821,0.0,increament,0.6,100.0,standard,5.0,2.0,1.0,
822,0.0,increament,0.6,100.0,standard,5.0,2.0,1.0,
823,0.0,increament,0.6,100.0,standard,5.0,2.0,1.0,
824,0.0,increament,0.6,100.0,standard,5.0,2.0,1.0,
825,0.0,increament,0.6,100.0,standard,5.0,2.0,0.0,1.3242807001806796
826,0.0,increament,0.6,100.0,standard,5.0,2.0,1.0,
827,0.0,increament,0.6,100.0,standard,5.0,2.0,1.0,
828,0.0,increament,0.96,160.0,oddball,8.0,2.0,0.0,
829,0.0,increament,0.6,100.0,standard,5.0,2.0,1.0,
830,0.0,increament,0.6,100.0,standard,5.0,2.0,1.0,
831,0.0,increament,0.6,100.0,standard,5.0,2.0,1.0,
832,0.0,increament,0.72,120.0,oddball,6.0,2.0,0.0,
833,0.0,increament,0.6,100.0,standard,5.0,2.0,1.0,
834,0.0,increament,0.6,100.0,standard,5.0,2.0,1.0,
835,0.0,increament,0.6,100.0,standard,5.0,2.0,1.0,
836,0.0,increament,0.6,100.0,standard,5.0,2.0,1.0,
837,0.0,increament,0.6,100.0,standard,5.0,2.0,1.0,
838,0.0,increament,0.6,100.0,standard,5.0,2.0,1.0,
839,0.0,increament,0.6,100.0,standard,5.0,2.0,1.0,
840,0.0,decreament,0.6,100.0,standard,1.0,2.0,1.0,
841,0.0,decreament,0.6,100.0,standard,1.0,2.0,1.0,
842,0.0,decreament,0.6,100.0,standard,1.0,2.0,1.0,
843,0.0,decreament,0.6,100.0,standard,1.0,2.0,1.0,
844,0.0,decreament,0.6,100.0,standard,1.0,2.0,1.0,
845,0.0,decreament,0.6,100.0,standard,1.0,2.0,1.0,
846,0.0,decreament,0.6,100.0,standard,1.0,2.0,1.0,
847,0.0,decreament,0.48,80.0,oddball,4.0,2.0,0.0,
848,0.0,decreament,0.6,100.0,standard,1.0,2.0,1.0,
849,0.0,decreament,0.6,100.0,standard,1.0,2.0,1.0,
850,0.0,decreament,0.6,100.0,standard,1.0,2.0,1.0,
851,0.0,decreament,0.6,100.0,standard,1.0,2.0,1.0,
852,0.0,decreament,0.6,100.0,standard,1.0,2.0,1.0,
853,0.0,decreament,0.6,100.0,standard,1.0,2.0,1.0,
854,0.0,decreament,0.6,100.0,standard,1.0,2.0,1.0,
855,0.0,decreament,0.6,100.0,standard,1.0,2.0,1.0,
856,0.0,decreament,0.6,100.0,standard,1.0,2.0,1.0,
857,0.0,decreament,0.6,100.0,standard,1.0,2.0,1.0,
858,0.0,decreament,0.6,100.0,standard,1.0,2.0,1.0,
859,0.0,decreament,0.6,100.0,standard,1.0,2.0,1.0,
860,0.0,decreament,0.24,40.0,oddball,2.0,2.0,1.0,0.7191747999750078
861,0.0,decreament,0.6,100.0,standard,1.0,2.0,1.0,
862,0.0,decreament,0.6,100.0,standard,1.0,2.0,1.0,
863,0.0,decreament,0.6,100.0,standard,1.0,2.0,1.0,
864,0.0,decreament,0.36,60.0,oddball,3.0,2.0,0.0,
865,0.0,decreament,0.6,100.0,standard,1.0,2.0,1.0,
866,0.0,decreament,0.6,100.0,standard,1.0,2.0,1.0,
867,0.0,decreament,0.6,100.0,standard,1.0,2.0,1.0,
868,0.0,decreament,0.6,100.0,standard,1.0,2.0,1.0,
869,0.0,decreament,0.6,100.0,standard,1.0,2.0,1.0,
870,0.0,increament,0.6,100.0,standard,5.0,2.0,1.0,
871,0.0,increament,0.6,100.0,standard,5.0,2.0,1.0,
872,0.0,increament,0.6,100.0,standard,5.0,2.0,1.0,
873,0.0,increament,0.6,100.0,standard,5.0,2.0,1.0,
874,0.0,increament,0.6,100.0,standard,5.0,2.0,1.0,
875,0.0,increament,0.6,100.0,standard,5.0,2.0,1.0,
876,0.0,increament,0.96,160.0,oddball,8.0,2.0,0.0,
877,0.0,increament,0.6,100.0,standard,5.0,2.0,1.0,
878,0.0,increament,0.6,100.0,standard,5.0,2.0,1.0,
879,0.0,increament,0.6,100.0,standard,5.0,2.0,1.0,
880,0.0,increament,0.6,100.0,standard,5.0,2.0,1.0,
881,0.0,increament,0.6,100.0,standard,5.0,2.0,0.0,1.645649200305343
882,0.0,increament,0.6,100.0,standard,5.0,2.0,1.0,
883,0.0,increament,0.6,100.0,standard,5.0,2.0,1.0,
884,0.0,increament,0.6,100.0,standard,5.0,2.0,1.0,
885,0.0,increament,0.72,120.0,oddball,6.0,2.0,0.0,
886,0.0,increament,0.6,100.0,standard,5.0,2.0,1.0,
887,0.0,increament,0.6,100.0,standard,5.0,2.0,1.0,
888,0.0,increament,0.6,100.0,standard,5.0,2.0,1.0,
889,0.0,increament,0.6,100.0,standard,5.0,2.0,1.0,
890,0.0,increament,0.6,100.0,standard,5.0,2.0,1.0,
891,0.0,increament,0.6,100.0,standard,5.0,2.0,0.0,0.799233500380069
892,0.0,increament,0.84,140.0,oddball,7.0,2.0,0.0,
893,0.0,increament,0.6,100.0,standard,5.0,2.0,1.0,
894,0.0,increament,0.6,100.0,standard,5.0,2.0,1.0,
895,0.0,increament,0.6,100.0,standard,5.0,2.0,1.0,
896,0.0,increament,0.6,100.0,standard,5.0,2.0,1.0,
897,0.0,increament,0.6,100.0,standard,5.0,2.0,1.0,
898,0.0,increament,0.6,100.0,standard,5.0,2.0,1.0,
899,0.0,increament,0.6,100.0,standard,5.0,2.0,1.0,
900,20.0,decreament,0.6,100.0,standard,41.0,3.0,1.0,
901,20.0,decreament,0.6,100.0,standard,41.0,3.0,1.0,
902,20.0,decreament,0.6,100.0,standard,41.0,3.0,1.0,
903,20.0,decreament,0.6,100.0,standard,41.0,3.0,1.0,
904,20.0,decreament,0.6,100.0,standard,41.0,3.0,1.0,
905,20.0,decreament,0.6,100.0,standard,41.0,3.0,1.0,
906,20.0,decreament,0.6,100.0,standard,41.0,3.0,1.0,
907,20.0,decreament,0.6,100.0,standard,41.0,3.0,1.0,
908,20.0,decreament,0.6,100.0,standard,41.0,3.0,1.0,
909,20.0,decreament,0.6,100.0,standard,41.0,3.0,1.0,
910,20.0,decreament,0.6,100.0,standard,41.0,3.0,1.0,
911,20.0,decreament,0.24,40.0,oddball,42.0,3.0,1.0,0.737858900334686
912,20.0,decreament,0.6,100.0,standard,41.0,3.0,1.0,
913,20.0,decreament,0.6,100.0,standard,41.0,3.0,1.0,
914,20.0,decreament,0.6,100.0,standard,41.0,3.0,1.0,
915,20.0,decreament,0.6,100.0,standard,41.0,3.0,1.0,
916,20.0,decreament,0.6,100.0,standard,41.0,3.0,1.0,
917,20.0,decreament,0.6,100.0,standard,41.0,3.0,1.0,
918,20.0,decreament,0.6,100.0,standard,41.0,3.0,1.0,
919,20.0,decreament,0.6,100.0,standard,41.0,3.0,1.0,
920,20.0,decreament,0.6,100.0,standard,41.0,3.0,1.0,
921,20.0,decreament,0.48,80.0,oddball,44.0,3.0,0.0,
922,20.0,decreament,0.6,100.0,standard,41.0,3.0,1.0,
923,20.0,decreament,0.6,100.0,standard,41.0,3.0,1.0,
924,20.0,decreament,0.6,100.0,standard,41.0,3.0,1.0,
925,20.0,decreament,0.6,100.0,standard,41.0,3.0,1.0,
926,20.0,decreament,0.6,100.0,standard,41.0,3.0,1.0,
927,20.0,decreament,0.6,100.0,standard,41.0,3.0,1.0,
928,20.0,decreament,0.6,100.0,standard,41.0,3.0,1.0,
929,20.0,decreament,0.36,60.0,oddball,43.0,3.0,0.0,
930,20.0,increament,0.6,100.0,standard,45.0,3.0,1.0,
931,20.0,increament,0.6,100.0,standard,45.0,3.0,1.0,
932,20.0,increament,0.6,100.0,standard,45.0,3.0,1.0,
933,20.0,increament,0.6,100.0,standard,45.0,3.0,1.0,
934,20.0,increament,0.6,100.0,standard,45.0,3.0,1.0,
935,20.0,increament,0.6,100.0,standard,45.0,3.0,1.0,
936,20.0,increament,0.6,100.0,standard,45.0,3.0,1.0,
937,20.0,increament,0.6,100.0,standard,45.0,3.0,1.0,
938,20.0,increament,0.6,100.0,standard,45.0,3.0,1.0,
939,20.0,increament,0.6,100.0,standard,45.0,3.0,1.0,
940,20.0,increament,0.84,140.0,oddball,47.0,3.0,1.0,0.5800628997385502
941,20.0,increament,0.6,100.0,standard,45.0,3.0,1.0,
942,20.0,increament,0.6,100.0,standard,45.0,3.0,1.0,
943,20.0,increament,0.6,100.0,standard,45.0,3.0,0.0,0.5448353998363018
944,20.0,increament,0.6,100.0,standard,45.0,3.0,1.0,
945,20.0,increament,0.6,100.0,standard,45.0,3.0,1.0,
946,20.0,increament,0.96,160.0,oddball,48.0,3.0,0.0,
947,20.0,increament,0.6,100.0,standard,45.0,3.0,1.0,
948,20.0,increament,0.6,100.0,standard,45.0,3.0,1.0,
949,20.0,increament,0.6,100.0,standard,45.0,3.0,1.0,
950,20.0,increament,0.6,100.0,standard,45.0,3.0,1.0,
951,20.0,increament,0.6,100.0,standard,45.0,3.0,1.0,
952,20.0,increament,0.6,100.0,standard,45.0,3.0,1.0,
953,20.0,increament,0.6,100.0,standard,45.0,3.0,1.0,
954,20.0,increament,0.72,120.0,oddball,46.0,3.0,0.0,
955,20.0,increament,0.6,100.0,standard,45.0,3.0,1.0,
956,20.0,increament,0.6,100.0,standard,45.0,3.0,1.0,
957,20.0,increament,0.6,100.0,standard,45.0,3.0,1.0,
958,20.0,increament,0.6,100.0,standard,45.0,3.0,1.0,
959,20.0,increament,0.6,100.0,standard,45.0,3.0,1.0,
960,20.0,decreament,0.6,100.0,standard,41.0,3.0,1.0,
961,20.0,decreament,0.6,100.0,standard,41.0,3.0,1.0,
962,20.0,decreament,0.6,100.0,standard,41.0,3.0,1.0,
963,20.0,decreament,0.6,100.0,standard,41.0,3.0,1.0,
964,20.0,decreament,0.6,100.0,standard,41.0,3.0,1.0,
965,20.0,decreament,0.6,100.0,standard,41.0,3.0,1.0,
966,20.0,decreament,0.6,100.0,standard,41.0,3.0,1.0,
967,20.0,decreament,0.6,100.0,standard,41.0,3.0,1.0,
968,20.0,decreament,0.6,100.0,standard,41.0,3.0,1.0,
969,20.0,decreament,0.6,100.0,standard,41.0,3.0,1.0,
970,20.0,decreament,0.6,100.0,standard,41.0,3.0,1.0,
971,20.0,decreament,0.6,100.0,standard,41.0,3.0,1.0,
972,20.0,decreament,0.6,100.0,standard,41.0,3.0,1.0,
973,20.0,decreament,0.6,100.0,standard,41.0,3.0,1.0,
974,20.0,decreament,0.48,80.0,oddball,44.0,3.0,0.0,
975,20.0,decreament,0.6,100.0,standard,41.0,3.0,1.0,
976,20.0,decreament,0.6,100.0,standard,41.0,3.0,1.0,
977,20.0,decreament,0.6,100.0,standard,41.0,3.0,1.0,
978,20.0,decreament,0.6,100.0,standard,41.0,3.0,1.0,
979,20.0,decreament,0.6,100.0,standard,41.0,3.0,1.0,
980,20.0,decreament,0.6,100.0,standard,41.0,3.0,1.0,
981,20.0,decreament,0.24,40.0,oddball,42.0,3.0,1.0,0.715039599686861
982,20.0,decreament,0.6,100.0,standard,41.0,3.0,1.0,
983,20.0,decreament,0.6,100.0,standard,41.0,3.0,1.0,
984,20.0,decreament,0.6,100.0,standard,41.0,3.0,1.0,
985,20.0,decreament,0.6,100.0,standard,41.0,3.0,1.0,
986,20.0,decreament,0.6,100.0,standard,41.0,3.0,1.0,
987,20.0,decreament,0.6,100.0,standard,41.0,3.0,1.0,
988,20.0,decreament,0.36,60.0,oddball,43.0,3.0,0.0,
989,20.0,decreament,0.6,100.0,standard,41.0,3.0,1.0,
990,20.0,increament,0.6,100.0,standard,45.0,3.0,1.0,
991,20.0,increament,0.6,100.0,standard,45.0,3.0,1.0,
992,20.0,increament,0.6,100.0,standard,45.0,3.0,1.0,
993,20.0,increament,0.6,100.0,standard,45.0,3.0,1.0,
994,20.0,increament,0.6,100.0,standard,45.0,3.0,1.0,
995,20.0,increament,0.6,100.0,standard,45.0,3.0,1.0,
996,20.0,increament,0.6,100.0,standard,45.0,3.0,1.0,
997,20.0,increament,0.6,100.0,standard,45.0,3.0,1.0,
998,20.0,increament,0.6,100.0,standard,45.0,3.0,1.0,
999,20.0,increament,0.6,100.0,standard,45.0,3.0,0.0,0.6859212000854313
1000,20.0,increament,0.6,100.0,standard,45.0,3.0,1.0,
1001,20.0,increament,0.6,100.0,standard,45.0,3.0,1.0,
1002,20.0,increament,0.6,100.0,standard,45.0,3.0,1.0,
1003,20.0,increament,0.72,120.0,oddball,46.0,3.0,0.0,
1004,20.0,increament,0.6,100.0,standard,45.0,3.0,1.0,
1005,20.0,increament,0.6,100.0,standard,45.0,3.0,1.0,
1006,20.0,increament,0.6,100.0,standard,45.0,3.0,1.0,
1007,20.0,increament,0.6,100.0,standard,45.0,3.0,1.0,
1008,20.0,increament,0.96,160.0,oddball,48.0,3.0,0.0,
1009,20.0,increament,0.6,100.0,standard,45.0,3.0,1.0,
1010,20.0,increament,0.6,100.0,standard,45.0,3.0,1.0,
1011,20.0,increament,0.6,100.0,standard,45.0,3.0,1.0,
1012,20.0,increament,0.6,100.0,standard,45.0,3.0,1.0,
1013,20.0,increament,0.6,100.0,standard,45.0,3.0,1.0,
1014,20.0,increament,0.6,100.0,standard,45.0,3.0,1.0,
1015,20.0,increament,0.6,100.0,standard,45.0,3.0,1.0,
1016,20.0,increament,0.84,140.0,oddball,47.0,3.0,0.0,
1017,20.0,increament,0.6,100.0,standard,45.0,3.0,1.0,
1018,20.0,increament,0.6,100.0,standard,45.0,3.0,1.0,
1019,20.0,increament,0.6,100.0,standard,45.0,3.0,0.0,0.8243351001292467
1020,20.0,decreament,0.6,100.0,standard,41.0,3.0,1.0,
1021,20.0,decreament,0.6,100.0,standard,41.0,3.0,1.0,
1022,20.0,decreament,0.6,100.0,standard,41.0,3.0,1.0,
1023,20.0,decreament,0.6,100.0,standard,41.0,3.0,1.0,
1024,20.0,decreament,0.6,100.0,standard,41.0,3.0,1.0,
1025,20.0,decreament,0.6,100.0,standard,41.0,3.0,1.0,
1026,20.0,decreament,0.6,100.0,standard,41.0,3.0,1.0,
1027,20.0,decreament,0.6,100.0,standard,41.0,3.0,1.0,
1028,20.0,decreament,0.48,80.0,oddball,44.0,3.0,0.0,
1029,20.0,decreament,0.6,100.0,standard,41.0,3.0,1.0,
1030,20.0,decreament,0.6,100.0,standard,41.0,3.0,1.0,
1031,20.0,decreament,0.6,100.0,standard,41.0,3.0,1.0,
1032,20.0,decreament,0.6,100.0,standard,41.0,3.0,1.0,
1033,20.0,decreament,0.24,40.0,oddball,42.0,3.0,0.0,
1034,20.0,decreament,0.6,100.0,standard,41.0,3.0,1.0,
1035,20.0,decreament,0.6,100.0,standard,41.0,3.0,1.0,
1036,20.0,decreament,0.6,100.0,standard,41.0,3.0,1.0,
1037,20.0,decreament,0.6,100.0,standard,41.0,3.0,1.0,
1038,20.0,decreament,0.6,100.0,standard,41.0,3.0,1.0,
1039,20.0,decreament,0.6,100.0,standard,41.0,3.0,1.0,
1040,20.0,decreament,0.6,100.0,standard,41.0,3.0,1.0,
1041,20.0,decreament,0.36,60.0,oddball,43.0,3.0,1.0,0.9619387998245656
1042,20.0,decreament,0.6,100.0,standard,41.0,3.0,1.0,
1043,20.0,decreament,0.6,100.0,standard,41.0,3.0,1.0,
1044,20.0,decreament,0.6,100.0,standard,41.0,3.0,1.0,
1045,20.0,decreament,0.6,100.0,standard,41.0,3.0,1.0,
1046,20.0,decreament,0.6,100.0,standard,41.0,3.0,1.0,
1047,20.0,decreament,0.6,100.0,standard,41.0,3.0,1.0,
1048,20.0,decreament,0.6,100.0,standard,41.0,3.0,1.0,
1049,20.0,decreament,0.6,100.0,standard,41.0,3.0,1.0,
1050,20.0,increament,0.6,100.0,standard,45.0,3.0,1.0,
1051,20.0,increament,0.6,100.0,standard,45.0,3.0,1.0,
1052,20.0,increament,0.6,100.0,standard,45.0,3.0,1.0,
1053,20.0,increament,0.6,100.0,standard,45.0,3.0,1.0,
1054,20.0,increament,0.6,100.0,standard,45.0,3.0,1.0,
1055,20.0,increament,0.72,120.0,oddball,46.0,3.0,0.0,
1056,20.0,increament,0.6,100.0,standard,45.0,3.0,1.0,
1057,20.0,increament,0.6,100.0,standard,45.0,3.0,1.0,
1058,20.0,increament,0.6,100.0,standard,45.0,3.0,1.0,
1059,20.0,increament,0.6,100.0,standard,45.0,3.0,1.0,
1060,20.0,increament,0.6,100.0,standard,45.0,3.0,0.0,0.6290627997368574
1061,20.0,increament,0.6,100.0,standard,45.0,3.0,0.0,0.4354536999017
1062,20.0,increament,0.6,100.0,standard,45.0,3.0,1.0,
1063,20.0,increament,0.6,100.0,standard,45.0,3.0,1.0,
1064,20.0,increament,0.6,100.0,standard,45.0,3.0,1.0,
1065,20.0,increament,0.96,160.0,oddball,48.0,3.0,1.0,0.7824511998333037
1066,20.0,increament,0.6,100.0,standard,45.0,3.0,1.0,
1067,20.0,increament,0.6,100.0,standard,45.0,3.0,1.0,
1068,20.0,increament,0.6,100.0,standard,45.0,3.0,1.0,
1069,20.0,increament,0.6,100.0,standard,45.0,3.0,1.0,
1070,20.0,increament,0.6,100.0,standard,45.0,3.0,1.0,
1071,20.0,increament,0.84,140.0,oddball,47.0,3.0,0.0,
1072,20.0,increament,0.6,100.0,standard,45.0,3.0,1.0,
1073,20.0,increament,0.6,100.0,standard,45.0,3.0,1.0,
1074,20.0,increament,0.6,100.0,standard,45.0,3.0,1.0,
1075,20.0,increament,0.6,100.0,standard,45.0,3.0,1.0,
1076,20.0,increament,0.6,100.0,standard,45.0,3.0,1.0,
1077,20.0,increament,0.6,100.0,standard,45.0,3.0,1.0,
1078,20.0,increament,0.6,100.0,standard,45.0,3.0,1.0,
1079,20.0,increament,0.6,100.0,standard,45.0,3.0,1.0,
1080,20.0,decreament,0.6,100.0,standard,41.0,3.0,1.0,
1081,20.0,decreament,0.6,100.0,standard,41.0,3.0,1.0,
1082,20.0,decreament,0.6,100.0,standard,41.0,3.0,1.0,
1083,20.0,decreament,0.6,100.0,standard,41.0,3.0,1.0,
1084,20.0,decreament,0.6,100.0,standard,41.0,3.0,1.0,
1085,20.0,decreament,0.6,100.0,standard,41.0,3.0,1.0,
1086,20.0,decreament,0.6,100.0,standard,41.0,3.0,1.0,
1087,20.0,decreament,0.6,100.0,standard,41.0,3.0,1.0,
1088,20.0,decreament,0.6,100.0,standard,41.0,3.0,1.0,
1089,20.0,decreament,0.6,100.0,standard,41.0,3.0,1.0,
1090,20.0,decreament,0.24,40.0,oddball,42.0,3.0,1.0,0.7787166000343859
1091,20.0,decreament,0.6,100.0,standard,41.0,3.0,1.0,
1092,20.0,decreament,0.6,100.0,standard,41.0,3.0,1.0,
1093,20.0,decreament,0.6,100.0,standard,41.0,3.0,1.0,
1094,20.0,decreament,0.48,80.0,oddball,44.0,3.0,1.0,0.5967547995969653
1095,20.0,decreament,0.6,100.0,standard,41.0,3.0,1.0,
1096,20.0,decreament,0.6,100.0,standard,41.0,3.0,1.0,
1097,20.0,decreament,0.6,100.0,standard,41.0,3.0,1.0,
1098,20.0,decreament,0.6,100.0,standard,41.0,3.0,1.0,
1099,20.0,decreament,0.6,100.0,standard,41.0,3.0,1.0,
1100,20.0,decreament,0.6,100.0,standard,41.0,3.0,1.0,
1101,20.0,decreament,0.6,100.0,standard,41.0,3.0,1.0,
1102,20.0,decreament,0.6,100.0,standard,41.0,3.0,1.0,
1103,20.0,decreament,0.6,100.0,standard,41.0,3.0,1.0,
1104,20.0,decreament,0.6,100.0,standard,41.0,3.0,1.0,
1105,20.0,decreament,0.6,100.0,standard,41.0,3.0,1.0,
1106,20.0,decreament,0.6,100.0,standard,41.0,3.0,1.0,
1107,20.0,decreament,0.6,100.0,standard,41.0,3.0,1.0,
1108,20.0,decreament,0.36,60.0,oddball,43.0,3.0,0.0,
1109,20.0,decreament,0.6,100.0,standard,41.0,3.0,1.0,
1110,20.0,increament,0.6,100.0,standard,45.0,3.0,1.0,
1111,20.0,increament,0.6,100.0,standard,45.0,3.0,1.0,
1112,20.0,increament,0.6,100.0,standard,45.0,3.0,1.0,
1113,20.0,increament,0.6,100.0,standard,45.0,3.0,1.0,
1114,20.0,increament,0.6,100.0,standard,45.0,3.0,1.0,
1115,20.0,increament,0.6,100.0,standard,45.0,3.0,1.0,
1116,20.0,increament,0.72,120.0,oddball,46.0,3.0,0.0,
1117,20.0,increament,0.6,100.0,standard,45.0,3.0,1.0,
1118,20.0,increament,0.6,100.0,standard,45.0,3.0,1.0,
1119,20.0,increament,0.6,100.0,standard,45.0,3.0,1.0,
1120,20.0,increament,0.6,100.0,standard,45.0,3.0,1.0,
1121,20.0,increament,0.6,100.0,standard,45.0,3.0,1.0,
1122,20.0,increament,0.6,100.0,standard,45.0,3.0,1.0,
1123,20.0,increament,0.6,100.0,standard,45.0,3.0,1.0,
1124,20.0,increament,0.6,100.0,standard,45.0,3.0,1.0,
1125,20.0,increament,0.6,100.0,standard,45.0,3.0,1.0,
1126,20.0,increament,0.6,100.0,standard,45.0,3.0,1.0,
1127,20.0,increament,0.6,100.0,standard,45.0,3.0,1.0,
1128,20.0,increament,0.6,100.0,standard,45.0,3.0,1.0,
1129,20.0,increament,0.6,100.0,standard,45.0,3.0,1.0,
1130,20.0,increament,0.6,100.0,standard,45.0,3.0,1.0,
1131,20.0,increament,0.6,100.0,standard,45.0,3.0,1.0,
1132,20.0,increament,0.96,160.0,oddball,48.0,3.0,0.0,
1133,20.0,increament,0.6,100.0,standard,45.0,3.0,1.0,
1134,20.0,increament,0.6,100.0,standard,45.0,3.0,1.0,
1135,20.0,increament,0.6,100.0,standard,45.0,3.0,1.0,
1136,20.0,increament,0.6,100.0,standard,45.0,3.0,1.0,
1137,20.0,increament,0.6,100.0,standard,45.0,3.0,1.0,
1138,20.0,increament,0.84,140.0,oddball,47.0,3.0,0.0,
1139,20.0,increament,0.6,100.0,standard,45.0,3.0,1.0,
1140,20.0,decreament,0.6,100.0,standard,41.0,3.0,1.0,
1141,20.0,decreament,0.6,100.0,standard,41.0,3.0,1.0,
1142,20.0,decreament,0.6,100.0,standard,41.0,3.0,1.0,
1143,20.0,decreament,0.6,100.0,standard,41.0,3.0,1.0,
1144,20.0,decreament,0.6,100.0,standard,41.0,3.0,1.0,
1145,20.0,decreament,0.48,80.0,oddball,44.0,3.0,0.0,
1146,20.0,decreament,0.6,100.0,standard,41.0,3.0,1.0,
1147,20.0,decreament,0.6,100.0,standard,41.0,3.0,1.0,
1148,20.0,decreament,0.6,100.0,standard,41.0,3.0,1.0,
1149,20.0,decreament,0.6,100.0,standard,41.0,3.0,1.0,
1150,20.0,decreament,0.24,40.0,oddball,42.0,3.0,1.0,0.9004591000266373
1151,20.0,decreament,0.6,100.0,standard,41.0,3.0,1.0,
1152,20.0,decreament,0.6,100.0,standard,41.0,3.0,1.0,
1153,20.0,decreament,0.6,100.0,standard,41.0,3.0,1.0,
1154,20.0,decreament,0.6,100.0,standard,41.0,3.0,1.0,
1155,20.0,decreament,0.6,100.0,standard,41.0,3.0,1.0,
1156,20.0,decreament,0.6,100.0,standard,41.0,3.0,1.0,
1157,20.0,decreament,0.6,100.0,standard,41.0,3.0,1.0,
1158,20.0,decreament,0.36,60.0,oddball,43.0,3.0,0.0,
1159,20.0,decreament,0.6,100.0,standard,41.0,3.0,1.0,
1160,20.0,decreament,0.6,100.0,standard,41.0,3.0,1.0,
1161,20.0,decreament,0.6,100.0,standard,41.0,3.0,1.0,
1162,20.0,decreament,0.6,100.0,standard,41.0,3.0,1.0,
1163,20.0,decreament,0.6,100.0,standard,41.0,3.0,1.0,
1164,20.0,decreament,0.6,100.0,standard,41.0,3.0,1.0,
1165,20.0,decreament,0.6,100.0,standard,41.0,3.0,1.0,
1166,20.0,decreament,0.6,100.0,standard,41.0,3.0,1.0,
1167,20.0,decreament,0.6,100.0,standard,41.0,3.0,1.0,
1168,20.0,decreament,0.6,100.0,standard,41.0,3.0,1.0,
1169,20.0,decreament,0.6,100.0,standard,41.0,3.0,1.0,
1170,20.0,increament,0.6,100.0,standard,45.0,3.0,1.0,
1171,20.0,increament,0.6,100.0,standard,45.0,3.0,1.0,
1172,20.0,increament,0.6,100.0,standard,45.0,3.0,1.0,
1173,20.0,increament,0.6,100.0,standard,45.0,3.0,1.0,
1174,20.0,increament,0.6,100.0,standard,45.0,3.0,1.0,
1175,20.0,increament,0.6,100.0,standard,45.0,3.0,1.0,
1176,20.0,increament,0.6,100.0,standard,45.0,3.0,1.0,
1177,20.0,increament,0.6,100.0,standard,45.0,3.0,1.0,
1178,20.0,increament,0.6,100.0,standard,45.0,3.0,1.0,
1179,20.0,increament,0.6,100.0,standard,45.0,3.0,1.0,
1180,20.0,increament,0.6,100.0,standard,45.0,3.0,1.0,
1181,20.0,increament,0.6,100.0,standard,45.0,3.0,1.0,
1182,20.0,increament,0.6,100.0,standard,45.0,3.0,1.0,
1183,20.0,increament,0.6,100.0,standard,45.0,3.0,1.0,
1184,20.0,increament,0.6,100.0,standard,45.0,3.0,0.0,0.4994590999558568
1185,20.0,increament,0.96,160.0,oddball,48.0,3.0,0.0,
1186,20.0,increament,0.6,100.0,standard,45.0,3.0,1.0,
1187,20.0,increament,0.6,100.0,standard,45.0,3.0,1.0,
1188,20.0,increament,0.6,100.0,standard,45.0,3.0,1.0,
1189,20.0,increament,0.72,120.0,oddball,46.0,3.0,0.0,
1190,20.0,increament,0.6,100.0,standard,45.0,3.0,1.0,
1191,20.0,increament,0.6,100.0,standard,45.0,3.0,1.0,
1192,20.0,increament,0.6,100.0,standard,45.0,3.0,1.0,
1193,20.0,increament,0.6,100.0,standard,45.0,3.0,1.0,
1194,20.0,increament,0.6,100.0,standard,45.0,3.0,1.0,
1195,20.0,increament,0.6,100.0,standard,45.0,3.0,1.0,
1196,20.0,increament,0.6,100.0,standard,45.0,3.0,1.0,
1197,20.0,increament,0.84,140.0,oddball,47.0,3.0,0.0,
1198,20.0,increament,0.6,100.0,standard,45.0,3.0,1.0,
1199,20.0,increament,0.6,100.0,standard,45.0,3.0,1.0,
