,grating_freq,direction,duration,scaling,stim_type,trigger,blocks.thisN,resp.corr,resp.rt
0,10.0,increament,0.6,100.0,standard,25.0,0.0,1.0,
1,10.0,increament,0.6,100.0,standard,25.0,0.0,1.0,
2,10.0,increament,0.6,100.0,standard,25.0,0.0,1.0,
3,10.0,increament,0.6,100.0,standard,25.0,0.0,1.0,
4,10.0,increament,0.6,100.0,standard,25.0,0.0,1.0,
5,10.0,increament,0.6,100.0,standard,25.0,0.0,1.0,
6,10.0,increament,0.6,100.0,standard,25.0,0.0,1.0,
7,10.0,increament,0.6,100.0,standard,25.0,0.0,1.0,
8,10.0,increament,0.6,100.0,standard,25.0,0.0,1.0,
9,10.0,increament,0.6,100.0,standard,25.0,0.0,1.0,
10,10.0,increament,0.6,100.0,standard,25.0,0.0,1.0,
11,10.0,increament,0.6,100.0,standard,25.0,0.0,1.0,
12,10.0,increament,0.6,100.0,standard,25.0,0.0,1.0,
13,10.0,increament,0.6,100.0,standard,25.0,0.0,1.0,
14,10.0,increament,0.6,100.0,standard,25.0,0.0,1.0,
15,10.0,increament,0.6,100.0,standard,25.0,0.0,1.0,
16,10.0,increament,0.6,100.0,standard,25.0,0.0,1.0,
17,10.0,increament,0.96,160.0,oddball,28.0,0.0,1.0,0.4592740000000503
18,10.0,increament,0.6,100.0,standard,25.0,0.0,1.0,
19,10.0,increament,0.6,100.0,standard,25.0,0.0,1.0,
20,10.0,increament,0.6,100.0,standard,25.0,0.0,1.0,
21,10.0,increament,0.6,100.0,standard,25.0,0.0,1.0,
22,10.0,increament,0.84,140.0,oddball,27.0,0.0,1.0,0.4425060999999459
23,10.0,increament,0.6,100.0,standard,25.0,0.0,1.0,
24,10.0,increament,0.6,100.0,standard,25.0,0.0,1.0,
25,10.0,increament,0.6,100.0,standard,25.0,0.0,1.0,
26,10.0,increament,0.6,100.0,standard,25.0,0.0,1.0,
27,10.0,increament,0.72,120.0,oddball,26.0,0.0,0.0,
28,10.0,increament,0.6,100.0,standard,25.0,0.0,1.0,
29,10.0,increament,0.6,100.0,standard,25.0,0.0,1.0,
30,10.0,decreament,0.6,100.0,standard,21.0,0.0,1.0,
31,10.0,decreament,0.6,100.0,standard,21.0,0.0,1.0,
32,10.0,decreament,0.6,100.0,standard,21.0,0.0,1.0,
33,10.0,decreament,0.6,100.0,standard,21.0,0.0,1.0,
34,10.0,decreament,0.6,100.0,standard,21.0,0.0,1.0,
35,10.0,decreament,0.6,100.0,standard,21.0,0.0,1.0,
36,10.0,decreament,0.6,100.0,standard,21.0,0.0,1.0,
37,10.0,decreament,0.6,100.0,standard,21.0,0.0,1.0,
38,10.0,decreament,0.6,100.0,standard,21.0,0.0,1.0,
39,10.0,decreament,0.6,100.0,standard,21.0,0.0,1.0,
40,10.0,decreament,0.6,100.0,standard,21.0,0.0,1.0,
41,10.0,decreament,0.6,100.0,standard,21.0,0.0,1.0,
42,10.0,decreament,0.6,100.0,standard,21.0,0.0,1.0,
43,10.0,decreament,0.6,100.0,standard,21.0,0.0,1.0,
44,10.0,decreament,0.48,80.0,oddball,24.0,0.0,1.0,0.6247439999995095
45,10.0,decreament,0.6,100.0,standard,21.0,0.0,1.0,
46,10.0,decreament,0.6,100.0,standard,21.0,0.0,1.0,
47,10.0,decreament,0.6,100.0,standard,21.0,0.0,0.0,0.4349306000001434
48,10.0,decreament,0.6,100.0,standard,21.0,0.0,1.0,
49,10.0,decreament,0.6,100.0,standard,21.0,0.0,1.0,
50,10.0,decreament,0.24,40.0,oddball,22.0,0.0,1.0,0.4737810999997691
51,10.0,decreament,0.6,100.0,standard,21.0,0.0,1.0,
52,10.0,decreament,0.6,100.0,standard,21.0,0.0,1.0,
53,10.0,decreament,0.6,100.0,standard,21.0,0.0,1.0,
54,10.0,decreament,0.6,100.0,standard,21.0,0.0,1.0,
55,10.0,decreament,0.6,100.0,standard,21.0,0.0,0.0,0.5901800999997704
56,10.0,decreament,0.36,60.0,oddball,23.0,0.0,1.0,0.5749110999997811
57,10.0,decreament,0.6,100.0,standard,21.0,0.0,1.0,
58,10.0,decreament,0.6,100.0,standard,21.0,0.0,1.0,
59,10.0,decreament,0.6,100.0,standard,21.0,0.0,1.0,
60,10.0,increament,0.6,100.0,standard,25.0,0.0,1.0,
61,10.0,increament,0.6,100.0,standard,25.0,0.0,1.0,
62,10.0,increament,0.6,100.0,standard,25.0,0.0,1.0,
63,10.0,increament,0.6,100.0,standard,25.0,0.0,1.0,
64,10.0,increament,0.6,100.0,standard,25.0,0.0,1.0,
65,10.0,increament,0.6,100.0,standard,25.0,0.0,1.0,
66,10.0,increament,0.72,120.0,oddball,26.0,0.0,0.0,
67,10.0,increament,0.6,100.0,standard,25.0,0.0,1.0,
68,10.0,increament,0.6,100.0,standard,25.0,0.0,1.0,
69,10.0,increament,0.6,100.0,standard,25.0,0.0,1.0,
70,10.0,increament,0.6,100.0,standard,25.0,0.0,1.0,
71,10.0,increament,0.6,100.0,standard,25.0,0.0,1.0,
72,10.0,increament,0.6,100.0,standard,25.0,0.0,1.0,
73,10.0,increament,0.6,100.0,standard,25.0,0.0,1.0,
74,10.0,increament,0.6,100.0,standard,25.0,0.0,1.0,
75,10.0,increament,0.6,100.0,standard,25.0,0.0,1.0,
76,10.0,increament,0.6,100.0,standard,25.0,0.0,1.0,
77,10.0,increament,0.6,100.0,standard,25.0,0.0,1.0,
78,10.0,increament,0.6,100.0,standard,25.0,0.0,1.0,
79,10.0,increament,0.84,140.0,oddball,27.0,0.0,0.0,
80,10.0,increament,0.6,100.0,standard,25.0,0.0,1.0,
81,10.0,increament,0.6,100.0,standard,25.0,0.0,1.0,
82,10.0,increament,0.6,100.0,standard,25.0,0.0,1.0,
83,10.0,increament,0.96,160.0,oddball,28.0,0.0,1.0,0.2770852999999533
84,10.0,increament,0.6,100.0,standard,25.0,0.0,1.0,
85,10.0,increament,0.6,100.0,standard,25.0,0.0,1.0,
86,10.0,increament,0.6,100.0,standard,25.0,0.0,1.0,
87,10.0,increament,0.6,100.0,standard,25.0,0.0,1.0,
88,10.0,increament,0.6,100.0,standard,25.0,0.0,1.0,
89,10.0,increament,0.6,100.0,standard,25.0,0.0,1.0,
90,10.0,decreament,0.6,100.0,standard,21.0,0.0,1.0,
91,10.0,decreament,0.6,100.0,standard,21.0,0.0,1.0,
92,10.0,decreament,0.6,100.0,standard,21.0,0.0,1.0,
93,10.0,decreament,0.6,100.0,standard,21.0,0.0,1.0,
94,10.0,decreament,0.6,100.0,standard,21.0,0.0,1.0,
95,10.0,decreament,0.6,100.0,standard,21.0,0.0,1.0,
96,10.0,decreament,0.24,40.0,oddball,22.0,0.0,1.0,0.4656454999997095
97,10.0,decreament,0.6,100.0,standard,21.0,0.0,1.0,
98,10.0,decreament,0.6,100.0,standard,21.0,0.0,1.0,
99,10.0,decreament,0.6,100.0,standard,21.0,0.0,1.0,
100,10.0,decreament,0.48,80.0,oddball,24.0,0.0,1.0,0.530539600000111
101,10.0,decreament,0.6,100.0,standard,21.0,0.0,1.0,
102,10.0,decreament,0.6,100.0,standard,21.0,0.0,1.0,
103,10.0,decreament,0.6,100.0,standard,21.0,0.0,1.0,
104,10.0,decreament,0.6,100.0,standard,21.0,0.0,1.0,
105,10.0,decreament,0.6,100.0,standard,21.0,0.0,1.0,
106,10.0,decreament,0.36,60.0,oddball,23.0,0.0,1.0,0.5741315999996459
107,10.0,decreament,0.6,100.0,standard,21.0,0.0,1.0,
108,10.0,decreament,0.6,100.0,standard,21.0,0.0,1.0,
109,10.0,decreament,0.6,100.0,standard,21.0,0.0,1.0,
110,10.0,decreament,0.6,100.0,standard,21.0,0.0,1.0,
111,10.0,decreament,0.6,100.0,standard,21.0,0.0,1.0,
112,10.0,decreament,0.6,100.0,standard,21.0,0.0,1.0,
113,10.0,decreament,0.6,100.0,standard,21.0,0.0,1.0,
114,10.0,decreament,0.6,100.0,standard,21.0,0.0,1.0,
115,10.0,decreament,0.6,100.0,standard,21.0,0.0,1.0,
116,10.0,decreament,0.6,100.0,standard,21.0,0.0,1.0,
117,10.0,decreament,0.6,100.0,standard,21.0,0.0,1.0,
118,10.0,decreament,0.6,100.0,standard,21.0,0.0,1.0,
119,10.0,decreament,0.6,100.0,standard,21.0,0.0,1.0,
120,10.0,increament,0.6,100.0,standard,25.0,0.0,1.0,
121,10.0,increament,0.6,100.0,standard,25.0,0.0,1.0,
122,10.0,increament,0.6,100.0,standard,25.0,0.0,1.0,
123,10.0,increament,0.6,100.0,standard,25.0,0.0,1.0,
124,10.0,increament,0.6,100.0,standard,25.0,0.0,1.0,
125,10.0,increament,0.6,100.0,standard,25.0,0.0,1.0,
126,10.0,increament,0.6,100.0,standard,25.0,0.0,1.0,
127,10.0,increament,0.96,160.0,oddball,28.0,0.0,0.0,
128,10.0,increament,0.6,100.0,standard,25.0,0.0,1.0,
129,10.0,increament,0.6,100.0,standard,25.0,0.0,1.0,
130,10.0,increament,0.6,100.0,standard,25.0,0.0,1.0,
131,10.0,increament,0.6,100.0,standard,25.0,0.0,1.0,
132,10.0,increament,0.6,100.0,standard,25.0,0.0,1.0,
133,10.0,increament,0.6,100.0,standard,25.0,0.0,1.0,
134,10.0,increament,0.72,120.0,oddball,26.0,0.0,0.0,
135,10.0,increament,0.6,100.0,standard,25.0,0.0,1.0,
136,10.0,increament,0.6,100.0,standard,25.0,0.0,1.0,
137,10.0,increament,0.6,100.0,standard,25.0,0.0,1.0,
138,10.0,increament,0.6,100.0,standard,25.0,0.0,1.0,
139,10.0,increament,0.6,100.0,standard,25.0,0.0,1.0,
140,10.0,increament,0.6,100.0,standard,25.0,0.0,1.0,
141,10.0,increament,0.6,100.0,standard,25.0,0.0,1.0,
142,10.0,increament,0.84,140.0,oddball,27.0,0.0,1.0,0.5169640000001436
143,10.0,increament,0.6,100.0,standard,25.0,0.0,1.0,
144,10.0,increament,0.6,100.0,standard,25.0,0.0,1.0,
145,10.0,increament,0.6,100.0,standard,25.0,0.0,1.0,
146,10.0,increament,0.6,100.0,standard,25.0,0.0,1.0,
147,10.0,increament,0.6,100.0,standard,25.0,0.0,1.0,
148,10.0,increament,0.6,100.0,standard,25.0,0.0,1.0,
149,10.0,increament,0.6,100.0,standard,25.0,0.0,1.0,
150,10.0,decreament,0.6,100.0,standard,21.0,0.0,1.0,
151,10.0,decreament,0.6,100.0,standard,21.0,0.0,1.0,
152,10.0,decreament,0.6,100.0,standard,21.0,0.0,1.0,
153,10.0,decreament,0.6,100.0,standard,21.0,0.0,1.0,
154,10.0,decreament,0.6,100.0,standard,21.0,0.0,1.0,
155,10.0,decreament,0.6,100.0,standard,21.0,0.0,1.0,
156,10.0,decreament,0.48,80.0,oddball,24.0,0.0,0.0,
157,10.0,decreament,0.6,100.0,standard,21.0,0.0,1.0,
158,10.0,decreament,0.6,100.0,standard,21.0,0.0,1.0,
159,10.0,decreament,0.6,100.0,standard,21.0,0.0,1.0,
160,10.0,decreament,0.6,100.0,standard,21.0,0.0,1.0,
161,10.0,decreament,0.36,60.0,oddball,23.0,0.0,1.0,0.4567657000000054
162,10.0,decreament,0.6,100.0,standard,21.0,0.0,1.0,
163,10.0,decreament,0.6,100.0,standard,21.0,0.0,1.0,
164,10.0,decreament,0.6,100.0,standard,21.0,0.0,1.0,
165,10.0,decreament,0.6,100.0,standard,21.0,0.0,1.0,
166,10.0,decreament,0.6,100.0,standard,21.0,0.0,1.0,
167,10.0,decreament,0.6,100.0,standard,21.0,0.0,1.0,
168,10.0,decreament,0.6,100.0,standard,21.0,0.0,0.0,0.5604740999995101
169,10.0,decreament,0.6,100.0,standard,21.0,0.0,1.0,
170,10.0,decreament,0.6,100.0,standard,21.0,0.0,1.0,
171,10.0,decreament,0.24,40.0,oddball,22.0,0.0,1.0,0.4710807999997541
172,10.0,decreament,0.6,100.0,standard,21.0,0.0,1.0,
173,10.0,decreament,0.6,100.0,standard,21.0,0.0,1.0,
174,10.0,decreament,0.6,100.0,standard,21.0,0.0,1.0,
175,10.0,decreament,0.6,100.0,standard,21.0,0.0,1.0,
176,10.0,decreament,0.6,100.0,standard,21.0,0.0,1.0,
177,10.0,decreament,0.6,100.0,standard,21.0,0.0,1.0,
178,10.0,decreament,0.6,100.0,standard,21.0,0.0,1.0,
179,10.0,decreament,0.6,100.0,standard,21.0,0.0,1.0,
180,10.0,increament,0.6,100.0,standard,25.0,0.0,1.0,
181,10.0,increament,0.6,100.0,standard,25.0,0.0,1.0,
182,10.0,increament,0.6,100.0,standard,25.0,0.0,1.0,
183,10.0,increament,0.6,100.0,standard,25.0,0.0,1.0,
184,10.0,increament,0.6,100.0,standard,25.0,0.0,1.0,
185,10.0,increament,0.84,140.0,oddball,27.0,0.0,1.0,0.3100674999998318
186,10.0,increament,0.6,100.0,standard,25.0,0.0,1.0,
187,10.0,increament,0.6,100.0,standard,25.0,0.0,1.0,
188,10.0,increament,0.6,100.0,standard,25.0,0.0,1.0,
189,10.0,increament,0.72,120.0,oddball,26.0,0.0,0.0,
190,10.0,increament,0.6,100.0,standard,25.0,0.0,1.0,
191,10.0,increament,0.6,100.0,standard,25.0,0.0,1.0,
192,10.0,increament,0.6,100.0,standard,25.0,0.0,1.0,
193,10.0,increament,0.6,100.0,standard,25.0,0.0,1.0,
194,10.0,increament,0.6,100.0,standard,25.0,0.0,1.0,
195,10.0,increament,0.6,100.0,standard,25.0,0.0,1.0,
196,10.0,increament,0.6,100.0,standard,25.0,0.0,1.0,
197,10.0,increament,0.6,100.0,standard,25.0,0.0,1.0,
198,10.0,increament,0.6,100.0,standard,25.0,0.0,1.0,
199,10.0,increament,0.6,100.0,standard,25.0,0.0,1.0,
200,10.0,increament,0.6,100.0,standard,25.0,0.0,1.0,
201,10.0,increament,0.6,100.0,standard,25.0,0.0,1.0,
202,10.0,increament,0.96,160.0,oddball,28.0,0.0,1.0,0.1951526000000285
203,10.0,increament,0.6,100.0,standard,25.0,0.0,1.0,
204,10.0,increament,0.6,100.0,standard,25.0,0.0,1.0,
205,10.0,increament,0.6,100.0,standard,25.0,0.0,1.0,
206,10.0,increament,0.6,100.0,standard,25.0,0.0,1.0,
207,10.0,increament,0.6,100.0,standard,25.0,0.0,1.0,
208,10.0,increament,0.6,100.0,standard,25.0,0.0,1.0,
209,10.0,increament,0.6,100.0,standard,25.0,0.0,1.0,
210,10.0,decreament,0.6,100.0,standard,21.0,0.0,1.0,
211,10.0,decreament,0.6,100.0,standard,21.0,0.0,1.0,
212,10.0,decreament,0.6,100.0,standard,21.0,0.0,1.0,
213,10.0,decreament,0.6,100.0,standard,21.0,0.0,1.0,
214,10.0,decreament,0.6,100.0,standard,21.0,0.0,1.0,
215,10.0,decreament,0.6,100.0,standard,21.0,0.0,1.0,
216,10.0,decreament,0.6,100.0,standard,21.0,0.0,1.0,
217,10.0,decreament,0.6,100.0,standard,21.0,0.0,1.0,
218,10.0,decreament,0.6,100.0,standard,21.0,0.0,1.0,
219,10.0,decreament,0.36,60.0,oddball,23.0,0.0,1.0,0.5510458999999628
220,10.0,decreament,0.6,100.0,standard,21.0,0.0,1.0,
221,10.0,decreament,0.6,100.0,standard,21.0,0.0,1.0,
222,10.0,decreament,0.6,100.0,standard,21.0,0.0,1.0,
223,10.0,decreament,0.48,80.0,oddball,24.0,0.0,1.0,0.5096230000001469
224,10.0,decreament,0.6,100.0,standard,21.0,0.0,1.0,
225,10.0,decreament,0.6,100.0,standard,21.0,0.0,1.0,
226,10.0,decreament,0.6,100.0,standard,21.0,0.0,1.0,
227,10.0,decreament,0.6,100.0,standard,21.0,0.0,1.0,
228,10.0,decreament,0.6,100.0,standard,21.0,0.0,1.0,
229,10.0,decreament,0.6,100.0,standard,21.0,0.0,1.0,
230,10.0,decreament,0.6,100.0,standard,21.0,0.0,1.0,
231,10.0,decreament,0.24,40.0,oddball,22.0,0.0,1.0,0.5324417999997877
232,10.0,decreament,0.6,100.0,standard,21.0,0.0,1.0,
233,10.0,decreament,0.6,100.0,standard,21.0,0.0,1.0,
234,10.0,decreament,0.6,100.0,standard,21.0,0.0,1.0,
235,10.0,decreament,0.6,100.0,standard,21.0,0.0,1.0,
236,10.0,decreament,0.6,100.0,standard,21.0,0.0,1.0,
237,10.0,decreament,0.6,100.0,standard,21.0,0.0,1.0,
238,10.0,decreament,0.6,100.0,standard,21.0,0.0,1.0,
239,10.0,decreament,0.6,100.0,standard,21.0,0.0,1.0,
240,10.0,increament,0.6,100.0,standard,25.0,0.0,1.0,
241,10.0,increament,0.6,100.0,standard,25.0,0.0,1.0,
242,10.0,increament,0.6,100.0,standard,25.0,0.0,1.0,
243,10.0,increament,0.6,100.0,standard,25.0,0.0,1.0,
244,10.0,increament,0.6,100.0,standard,25.0,0.0,1.0,
245,10.0,increament,0.6,100.0,standard,25.0,0.0,1.0,
246,10.0,increament,0.6,100.0,standard,25.0,0.0,1.0,
247,10.0,increament,0.6,100.0,standard,25.0,0.0,1.0,
248,10.0,increament,0.6,100.0,standard,25.0,0.0,1.0,
249,10.0,increament,0.6,100.0,standard,25.0,0.0,1.0,
250,10.0,increament,0.96,160.0,oddball,28.0,0.0,1.0,0.3227814999997918
251,10.0,increament,0.6,100.0,standard,25.0,0.0,1.0,
252,10.0,increament,0.6,100.0,standard,25.0,0.0,1.0,
253,10.0,increament,0.6,100.0,standard,25.0,0.0,1.0,
254,10.0,increament,0.84,140.0,oddball,27.0,0.0,0.0,
255,10.0,increament,0.6,100.0,standard,25.0,0.0,1.0,
256,10.0,increament,0.6,100.0,standard,25.0,0.0,1.0,
257,10.0,increament,0.6,100.0,standard,25.0,0.0,1.0,
258,10.0,increament,0.6,100.0,standard,25.0,0.0,1.0,
259,10.0,increament,0.6,100.0,standard,25.0,0.0,1.0,
260,10.0,increament,0.6,100.0,standard,25.0,0.0,1.0,
261,10.0,increament,0.6,100.0,standard,25.0,0.0,1.0,
262,10.0,increament,0.6,100.0,standard,25.0,0.0,1.0,
263,10.0,increament,0.6,100.0,standard,25.0,0.0,1.0,
264,10.0,increament,0.6,100.0,standard,25.0,0.0,1.0,
265,10.0,increament,0.6,100.0,standard,25.0,0.0,1.0,
266,10.0,increament,0.72,120.0,oddball,26.0,0.0,0.0,
267,10.0,increament,0.6,100.0,standard,25.0,0.0,1.0,
268,10.0,increament,0.6,100.0,standard,25.0,0.0,1.0,
269,10.0,increament,0.6,100.0,standard,25.0,0.0,1.0,
270,10.0,decreament,0.6,100.0,standard,21.0,0.0,1.0,
271,10.0,decreament,0.6,100.0,standard,21.0,0.0,1.0,
272,10.0,decreament,0.6,100.0,standard,21.0,0.0,1.0,
273,10.0,decreament,0.6,100.0,standard,21.0,0.0,1.0,
274,10.0,decreament,0.6,100.0,standard,21.0,0.0,1.0,
275,10.0,decreament,0.24,40.0,oddball,22.0,0.0,1.0,0.4897241999999551
276,10.0,decreament,0.6,100.0,standard,21.0,0.0,1.0,
277,10.0,decreament,0.6,100.0,standard,21.0,0.0,1.0,
278,10.0,decreament,0.6,100.0,standard,21.0,0.0,1.0,
279,10.0,decreament,0.48,80.0,oddball,24.0,0.0,0.0,
280,10.0,decreament,0.6,100.0,standard,21.0,0.0,1.0,
281,10.0,decreament,0.6,100.0,standard,21.0,0.0,1.0,
282,10.0,decreament,0.6,100.0,standard,21.0,0.0,1.0,
283,10.0,decreament,0.6,100.0,standard,21.0,0.0,1.0,
284,10.0,decreament,0.6,100.0,standard,21.0,0.0,1.0,
285,10.0,decreament,0.6,100.0,standard,21.0,0.0,1.0,
286,10.0,decreament,0.36,60.0,oddball,23.0,0.0,0.0,
287,10.0,decreament,0.6,100.0,standard,21.0,0.0,1.0,
288,10.0,decreament,0.6,100.0,standard,21.0,0.0,1.0,
289,10.0,decreament,0.6,100.0,standard,21.0,0.0,1.0,
290,10.0,decreament,0.6,100.0,standard,21.0,0.0,1.0,
291,10.0,decreament,0.6,100.0,standard,21.0,0.0,1.0,
292,10.0,decreament,0.6,100.0,standard,21.0,0.0,1.0,
293,10.0,decreament,0.6,100.0,standard,21.0,0.0,1.0,
294,10.0,decreament,0.6,100.0,standard,21.0,0.0,1.0,
295,10.0,decreament,0.6,100.0,standard,21.0,0.0,1.0,
296,10.0,decreament,0.6,100.0,standard,21.0,0.0,1.0,
297,10.0,decreament,0.6,100.0,standard,21.0,0.0,1.0,
298,10.0,decreament,0.6,100.0,standard,21.0,0.0,1.0,
299,10.0,decreament,0.6,100.0,standard,21.0,0.0,1.0,
300,0.0,increament,0.6,100.0,standard,5.0,1.0,1.0,
301,0.0,increament,0.6,100.0,standard,5.0,1.0,1.0,
302,0.0,increament,0.6,100.0,standard,5.0,1.0,1.0,
303,0.0,increament,0.6,100.0,standard,5.0,1.0,1.0,
304,0.0,increament,0.6,100.0,standard,5.0,1.0,1.0,
305,0.0,increament,0.6,100.0,standard,5.0,1.0,1.0,
306,0.0,increament,0.6,100.0,standard,5.0,1.0,1.0,
307,0.0,increament,0.96,160.0,oddball,8.0,1.0,1.0,0.252551799999992
308,0.0,increament,0.6,100.0,standard,5.0,1.0,1.0,
309,0.0,increament,0.6,100.0,standard,5.0,1.0,1.0,
310,0.0,increament,0.6,100.0,standard,5.0,1.0,1.0,
311,0.0,increament,0.6,100.0,standard,5.0,1.0,1.0,
312,0.0,increament,0.6,100.0,standard,5.0,1.0,1.0,
313,0.0,increament,0.72,120.0,oddball,6.0,1.0,1.0,0.7839996999998675
314,0.0,increament,0.6,100.0,standard,5.0,1.0,1.0,
315,0.0,increament,0.6,100.0,standard,5.0,1.0,1.0,
316,0.0,increament,0.6,100.0,standard,5.0,1.0,1.0,
317,0.0,increament,0.6,100.0,standard,5.0,1.0,1.0,
318,0.0,increament,0.6,100.0,standard,5.0,1.0,1.0,
319,0.0,increament,0.6,100.0,standard,5.0,1.0,1.0,
320,0.0,increament,0.6,100.0,standard,5.0,1.0,1.0,
321,0.0,increament,0.6,100.0,standard,5.0,1.0,1.0,
322,0.0,increament,0.6,100.0,standard,5.0,1.0,1.0,
323,0.0,increament,0.6,100.0,standard,5.0,1.0,1.0,
324,0.0,increament,0.84,140.0,oddball,7.0,1.0,1.0,0.4946799999995619
325,0.0,increament,0.6,100.0,standard,5.0,1.0,1.0,
326,0.0,increament,0.6,100.0,standard,5.0,1.0,1.0,
327,0.0,increament,0.6,100.0,standard,5.0,1.0,1.0,
328,0.0,increament,0.6,100.0,standard,5.0,1.0,1.0,
329,0.0,increament,0.6,100.0,standard,5.0,1.0,1.0,
330,0.0,decreament,0.6,100.0,standard,1.0,1.0,0.0,1.074518599999692
331,0.0,decreament,0.6,100.0,standard,1.0,1.0,1.0,
332,0.0,decreament,0.6,100.0,standard,1.0,1.0,1.0,
333,0.0,decreament,0.6,100.0,standard,1.0,1.0,1.0,
334,0.0,decreament,0.6,100.0,standard,1.0,1.0,1.0,
335,0.0,decreament,0.6,100.0,standard,1.0,1.0,1.0,
336,0.0,decreament,0.6,100.0,standard,1.0,1.0,1.0,
337,0.0,decreament,0.6,100.0,standard,1.0,1.0,1.0,
338,0.0,decreament,0.6,100.0,standard,1.0,1.0,1.0,
339,0.0,decreament,0.24,40.0,oddball,2.0,1.0,1.0,0.4822565000001759
340,0.0,decreament,0.6,100.0,standard,1.0,1.0,1.0,
341,0.0,decreament,0.6,100.0,standard,1.0,1.0,1.0,
342,0.0,decreament,0.6,100.0,standard,1.0,1.0,1.0,
343,0.0,decreament,0.6,100.0,standard,1.0,1.0,1.0,
344,0.0,decreament,0.6,100.0,standard,1.0,1.0,1.0,
345,0.0,decreament,0.48,80.0,oddball,4.0,1.0,0.0,
346,0.0,decreament,0.6,100.0,standard,1.0,1.0,1.0,
347,0.0,decreament,0.6,100.0,standard,1.0,1.0,1.0,
348,0.0,decreament,0.6,100.0,standard,1.0,1.0,1.0,
349,0.0,decreament,0.6,100.0,standard,1.0,1.0,1.0,
350,0.0,decreament,0.6,100.0,standard,1.0,1.0,1.0,
351,0.0,decreament,0.6,100.0,standard,1.0,1.0,1.0,
352,0.0,decreament,0.6,100.0,standard,1.0,1.0,1.0,
353,0.0,decreament,0.6,100.0,standard,1.0,1.0,1.0,
354,0.0,decreament,0.36,60.0,oddball,3.0,1.0,1.0,0.4864251000001331
355,0.0,decreament,0.6,100.0,standard,1.0,1.0,1.0,
356,0.0,decreament,0.6,100.0,standard,1.0,1.0,1.0,
357,0.0,decreament,0.6,100.0,standard,1.0,1.0,1.0,
358,0.0,decreament,0.6,100.0,standard,1.0,1.0,1.0,
359,0.0,decreament,0.6,100.0,standard,1.0,1.0,1.0,
360,0.0,increament,0.6,100.0,standard,5.0,1.0,1.0,
361,0.0,increament,0.6,100.0,standard,5.0,1.0,1.0,
362,0.0,increament,0.6,100.0,standard,5.0,1.0,1.0,
363,0.0,increament,0.6,100.0,standard,5.0,1.0,1.0,
364,0.0,increament,0.6,100.0,standard,5.0,1.0,1.0,
365,0.0,increament,0.6,100.0,standard,5.0,1.0,1.0,
366,0.0,increament,0.6,100.0,standard,5.0,1.0,1.0,
367,0.0,increament,0.6,100.0,standard,5.0,1.0,1.0,
368,0.0,increament,0.6,100.0,standard,5.0,1.0,1.0,
369,0.0,increament,0.6,100.0,standard,5.0,1.0,1.0,
370,0.0,increament,0.72,120.0,oddball,6.0,1.0,0.0,
371,0.0,increament,0.6,100.0,standard,5.0,1.0,1.0,
372,0.0,increament,0.6,100.0,standard,5.0,1.0,1.0,
373,0.0,increament,0.6,100.0,standard,5.0,1.0,1.0,
374,0.0,increament,0.84,140.0,oddball,7.0,1.0,1.0,0.6769649999998819
375,0.0,increament,0.6,100.0,standard,5.0,1.0,1.0,
376,0.0,increament,0.6,100.0,standard,5.0,1.0,1.0,
377,0.0,increament,0.6,100.0,standard,5.0,1.0,1.0,
378,0.0,increament,0.6,100.0,standard,5.0,1.0,1.0,
379,0.0,increament,0.6,100.0,standard,5.0,1.0,1.0,
380,0.0,increament,0.6,100.0,standard,5.0,1.0,1.0,
381,0.0,increament,0.6,100.0,standard,5.0,1.0,1.0,
382,0.0,increament,0.6,100.0,standard,5.0,1.0,1.0,
383,0.0,increament,0.6,100.0,standard,5.0,1.0,1.0,
384,0.0,increament,0.96,160.0,oddball,8.0,1.0,1.0,0.4735894000002645
385,0.0,increament,0.6,100.0,standard,5.0,1.0,1.0,
386,0.0,increament,0.6,100.0,standard,5.0,1.0,1.0,
387,0.0,increament,0.6,100.0,standard,5.0,1.0,1.0,
388,0.0,increament,0.6,100.0,standard,5.0,1.0,1.0,
389,0.0,increament,0.6,100.0,standard,5.0,1.0,1.0,
390,0.0,decreament,0.6,100.0,standard,1.0,1.0,1.0,
391,0.0,decreament,0.6,100.0,standard,1.0,1.0,1.0,
392,0.0,decreament,0.6,100.0,standard,1.0,1.0,1.0,
393,0.0,decreament,0.6,100.0,standard,1.0,1.0,1.0,
394,0.0,decreament,0.6,100.0,standard,1.0,1.0,1.0,
395,0.0,decreament,0.6,100.0,standard,1.0,1.0,1.0,
396,0.0,decreament,0.6,100.0,standard,1.0,1.0,1.0,
397,0.0,decreament,0.6,100.0,standard,1.0,1.0,1.0,
398,0.0,decreament,0.6,100.0,standard,1.0,1.0,1.0,
399,0.0,decreament,0.48,80.0,oddball,4.0,1.0,1.0,0.539268399999628
400,0.0,decreament,0.6,100.0,standard,1.0,1.0,1.0,
401,0.0,decreament,0.6,100.0,standard,1.0,1.0,1.0,
402,0.0,decreament,0.6,100.0,standard,1.0,1.0,1.0,
403,0.0,decreament,0.6,100.0,standard,1.0,1.0,1.0,
404,0.0,decreament,0.6,100.0,standard,1.0,1.0,1.0,
405,0.0,decreament,0.6,100.0,standard,1.0,1.0,1.0,
406,0.0,decreament,0.6,100.0,standard,1.0,1.0,1.0,
407,0.0,decreament,0.36,60.0,oddball,3.0,1.0,1.0,0.4629032000000279
408,0.0,decreament,0.6,100.0,standard,1.0,1.0,1.0,
409,0.0,decreament,0.6,100.0,standard,1.0,1.0,1.0,
410,0.0,decreament,0.6,100.0,standard,1.0,1.0,1.0,
411,0.0,decreament,0.6,100.0,standard,1.0,1.0,1.0,
412,0.0,decreament,0.6,100.0,standard,1.0,1.0,1.0,
413,0.0,decreament,0.6,100.0,standard,1.0,1.0,1.0,
414,0.0,decreament,0.6,100.0,standard,1.0,1.0,1.0,
415,0.0,decreament,0.6,100.0,standard,1.0,1.0,1.0,
416,0.0,decreament,0.24,40.0,oddball,2.0,1.0,1.0,0.6219292999996924
417,0.0,decreament,0.6,100.0,standard,1.0,1.0,1.0,
418,0.0,decreament,0.6,100.0,standard,1.0,1.0,1.0,
419,0.0,decreament,0.6,100.0,standard,1.0,1.0,1.0,
420,0.0,increament,0.6,100.0,standard,5.0,1.0,1.0,
421,0.0,increament,0.6,100.0,standard,5.0,1.0,1.0,
422,0.0,increament,0.6,100.0,standard,5.0,1.0,1.0,
423,0.0,increament,0.6,100.0,standard,5.0,1.0,1.0,
424,0.0,increament,0.6,100.0,standard,5.0,1.0,1.0,
425,0.0,increament,0.96,160.0,oddball,8.0,1.0,1.0,0.2965041999998448
426,0.0,increament,0.6,100.0,standard,5.0,1.0,1.0,
427,0.0,increament,0.6,100.0,standard,5.0,1.0,1.0,
428,0.0,increament,0.6,100.0,standard,5.0,1.0,1.0,
429,0.0,increament,0.6,100.0,standard,5.0,1.0,1.0,
430,0.0,increament,0.6,100.0,standard,5.0,1.0,1.0,
431,0.0,increament,0.6,100.0,standard,5.0,1.0,1.0,
432,0.0,increament,0.6,100.0,standard,5.0,1.0,1.0,
433,0.0,increament,0.6,100.0,standard,5.0,1.0,1.0,
434,0.0,increament,0.6,100.0,standard,5.0,1.0,1.0,
435,0.0,increament,0.6,100.0,standard,5.0,1.0,1.0,
436,0.0,increament,0.6,100.0,standard,5.0,1.0,1.0,
437,0.0,increament,0.84,140.0,oddball,7.0,1.0,1.0,0.4586504999999761
438,0.0,increament,0.6,100.0,standard,5.0,1.0,1.0,
439,0.0,increament,0.6,100.0,standard,5.0,1.0,1.0,
440,0.0,increament,0.6,100.0,standard,5.0,1.0,1.0,
441,0.0,increament,0.72,120.0,oddball,6.0,1.0,0.0,
442,0.0,increament,0.6,100.0,standard,5.0,1.0,1.0,
443,0.0,increament,0.6,100.0,standard,5.0,1.0,1.0,
444,0.0,increament,0.6,100.0,standard,5.0,1.0,1.0,
445,0.0,increament,0.6,100.0,standard,5.0,1.0,1.0,
446,0.0,increament,0.6,100.0,standard,5.0,1.0,1.0,
447,0.0,increament,0.6,100.0,standard,5.0,1.0,1.0,
448,0.0,increament,0.6,100.0,standard,5.0,1.0,1.0,
449,0.0,increament,0.6,100.0,standard,5.0,1.0,1.0,
450,0.0,decreament,0.6,100.0,standard,1.0,1.0,1.0,
451,0.0,decreament,0.6,100.0,standard,1.0,1.0,1.0,
452,0.0,decreament,0.6,100.0,standard,1.0,1.0,1.0,
453,0.0,decreament,0.6,100.0,standard,1.0,1.0,1.0,
454,0.0,decreament,0.6,100.0,standard,1.0,1.0,1.0,
455,0.0,decreament,0.36,60.0,oddball,3.0,1.0,1.0,0.5727002000000994
456,0.0,decreament,0.6,100.0,standard,1.0,1.0,1.0,
457,0.0,decreament,0.6,100.0,standard,1.0,1.0,1.0,
458,0.0,decreament,0.6,100.0,standard,1.0,1.0,1.0,
459,0.0,decreament,0.6,100.0,standard,1.0,1.0,1.0,
460,0.0,decreament,0.24,40.0,oddball,2.0,1.0,1.0,0.4018550999996932
461,0.0,decreament,0.6,100.0,standard,1.0,1.0,1.0,
462,0.0,decreament,0.6,100.0,standard,1.0,1.0,1.0,
463,0.0,decreament,0.6,100.0,standard,1.0,1.0,1.0,
464,0.0,decreament,0.6,100.0,standard,1.0,1.0,1.0,
465,0.0,decreament,0.6,100.0,standard,1.0,1.0,1.0,
466,0.0,decreament,0.6,100.0,standard,1.0,1.0,1.0,
467,0.0,decreament,0.6,100.0,standard,1.0,1.0,1.0,
468,0.0,decreament,0.6,100.0,standard,1.0,1.0,1.0,
469,0.0,decreament,0.48,80.0,oddball,4.0,1.0,1.0,0.4475392000001648
470,0.0,decreament,0.6,100.0,standard,1.0,1.0,1.0,
471,0.0,decreament,0.6,100.0,standard,1.0,1.0,1.0,
472,0.0,decreament,0.6,100.0,standard,1.0,1.0,1.0,
473,0.0,decreament,0.6,100.0,standard,1.0,1.0,1.0,
474,0.0,decreament,0.6,100.0,standard,1.0,1.0,1.0,
475,0.0,decreament,0.6,100.0,standard,1.0,1.0,1.0,
476,0.0,decreament,0.6,100.0,standard,1.0,1.0,1.0,
477,0.0,decreament,0.6,100.0,standard,1.0,1.0,1.0,
478,0.0,decreament,0.6,100.0,standard,1.0,1.0,1.0,
479,0.0,decreament,0.6,100.0,standard,1.0,1.0,1.0,
480,0.0,increament,0.6,100.0,standard,5.0,1.0,1.0,
481,0.0,increament,0.6,100.0,standard,5.0,1.0,1.0,
482,0.0,increament,0.6,100.0,standard,5.0,1.0,1.0,
483,0.0,increament,0.6,100.0,standard,5.0,1.0,1.0,
484,0.0,increament,0.6,100.0,standard,5.0,1.0,1.0,
485,0.0,increament,0.6,100.0,standard,5.0,1.0,1.0,
486,0.0,increament,0.6,100.0,standard,5.0,1.0,1.0,
487,0.0,increament,0.6,100.0,standard,5.0,1.0,1.0,
488,0.0,increament,0.6,100.0,standard,5.0,1.0,1.0,
489,0.0,increament,0.6,100.0,standard,5.0,1.0,1.0,
490,0.0,increament,0.84,140.0,oddball,7.0,1.0,0.0,
491,0.0,increament,0.6,100.0,standard,5.0,1.0,1.0,
492,0.0,increament,0.6,100.0,standard,5.0,1.0,1.0,
493,0.0,increament,0.6,100.0,standard,5.0,1.0,1.0,
494,0.0,increament,0.6,100.0,standard,5.0,1.0,1.0,
495,0.0,increament,0.6,100.0,standard,5.0,1.0,1.0,
496,0.0,increament,0.6,100.0,standard,5.0,1.0,1.0,
497,0.0,increament,0.6,100.0,standard,5.0,1.0,1.0,
498,0.0,increament,0.6,100.0,standard,5.0,1.0,1.0,
499,0.0,increament,0.96,160.0,oddball,8.0,1.0,1.0,0.415812699999833
500,0.0,increament,0.6,100.0,standard,5.0,1.0,1.0,
501,0.0,increament,0.6,100.0,standard,5.0,1.0,1.0,
502,0.0,increament,0.6,100.0,standard,5.0,1.0,1.0,
503,0.0,increament,0.6,100.0,standard,5.0,1.0,1.0,
504,0.0,increament,0.6,100.0,standard,5.0,1.0,1.0,
505,0.0,increament,0.6,100.0,standard,5.0,1.0,1.0,
506,0.0,increament,0.6,100.0,standard,5.0,1.0,1.0,
507,0.0,increament,0.6,100.0,standard,5.0,1.0,1.0,
508,0.0,increament,0.6,100.0,standard,5.0,1.0,1.0,
509,0.0,increament,0.72,120.0,oddball,6.0,1.0,0.0,
510,0.0,decreament,0.6,100.0,standard,1.0,1.0,1.0,
511,0.0,decreament,0.6,100.0,standard,1.0,1.0,1.0,
512,0.0,decreament,0.6,100.0,standard,1.0,1.0,1.0,
513,0.0,decreament,0.6,100.0,standard,1.0,1.0,1.0,
514,0.0,decreament,0.6,100.0,standard,1.0,1.0,1.0,
515,0.0,decreament,0.6,100.0,standard,1.0,1.0,1.0,
516,0.0,decreament,0.6,100.0,standard,1.0,1.0,1.0,
517,0.0,decreament,0.6,100.0,standard,1.0,1.0,1.0,
518,0.0,decreament,0.6,100.0,standard,1.0,1.0,1.0,
519,0.0,decreament,0.48,80.0,oddball,4.0,1.0,0.0,
520,0.0,decreament,0.6,100.0,standard,1.0,1.0,1.0,
521,0.0,decreament,0.6,100.0,standard,1.0,1.0,1.0,
522,0.0,decreament,0.6,100.0,standard,1.0,1.0,1.0,
523,0.0,decreament,0.24,40.0,oddball,2.0,1.0,1.0,0.8322166999996625
524,0.0,decreament,0.6,100.0,standard,1.0,1.0,1.0,
525,0.0,decreament,0.6,100.0,standard,1.0,1.0,1.0,
526,0.0,decreament,0.6,100.0,standard,1.0,1.0,1.0,
527,0.0,decreament,0.6,100.0,standard,1.0,1.0,1.0,
528,0.0,decreament,0.6,100.0,standard,1.0,1.0,1.0,
529,0.0,decreament,0.6,100.0,standard,1.0,1.0,1.0,
530,0.0,decreament,0.6,100.0,standard,1.0,1.0,1.0,
531,0.0,decreament,0.36,60.0,oddball,3.0,1.0,1.0,0.4888931000004959
532,0.0,decreament,0.6,100.0,standard,1.0,1.0,1.0,
533,0.0,decreament,0.6,100.0,standard,1.0,1.0,1.0,
534,0.0,decreament,0.6,100.0,standard,1.0,1.0,1.0,
535,0.0,decreament,0.6,100.0,standard,1.0,1.0,1.0,
536,0.0,decreament,0.6,100.0,standard,1.0,1.0,1.0,
537,0.0,decreament,0.6,100.0,standard,1.0,1.0,1.0,
538,0.0,decreament,0.6,100.0,standard,1.0,1.0,1.0,
539,0.0,decreament,0.6,100.0,standard,1.0,1.0,1.0,
540,0.0,increament,0.6,100.0,standard,5.0,1.0,1.0,
541,0.0,increament,0.6,100.0,standard,5.0,1.0,1.0,
542,0.0,increament,0.6,100.0,standard,5.0,1.0,1.0,
543,0.0,increament,0.6,100.0,standard,5.0,1.0,1.0,
544,0.0,increament,0.6,100.0,standard,5.0,1.0,1.0,
545,0.0,increament,0.6,100.0,standard,5.0,1.0,1.0,
546,0.0,increament,0.6,100.0,standard,5.0,1.0,1.0,
547,0.0,increament,0.6,100.0,standard,5.0,1.0,1.0,
548,0.0,increament,0.84,140.0,oddball,7.0,1.0,1.0,0.4611915000004956
549,0.0,increament,0.6,100.0,standard,5.0,1.0,1.0,
550,0.0,increament,0.6,100.0,standard,5.0,1.0,1.0,
551,0.0,increament,0.6,100.0,standard,5.0,1.0,1.0,
552,0.0,increament,0.6,100.0,standard,5.0,1.0,1.0,
553,0.0,increament,0.6,100.0,standard,5.0,1.0,1.0,
554,0.0,increament,0.6,100.0,standard,5.0,1.0,1.0,
555,0.0,increament,0.72,120.0,oddball,6.0,1.0,0.0,
556,0.0,increament,0.6,100.0,standard,5.0,1.0,1.0,
557,0.0,increament,0.6,100.0,standard,5.0,1.0,1.0,
558,0.0,increament,0.6,100.0,standard,5.0,1.0,1.0,
559,0.0,increament,0.6,100.0,standard,5.0,1.0,1.0,
560,0.0,increament,0.6,100.0,standard,5.0,1.0,1.0,
561,0.0,increament,0.6,100.0,standard,5.0,1.0,1.0,
562,0.0,increament,0.96,160.0,oddball,8.0,1.0,1.0,0.5074369000003571
563,0.0,increament,0.6,100.0,standard,5.0,1.0,1.0,
564,0.0,increament,0.6,100.0,standard,5.0,1.0,1.0,
565,0.0,increament,0.6,100.0,standard,5.0,1.0,1.0,
566,0.0,increament,0.6,100.0,standard,5.0,1.0,1.0,
567,0.0,increament,0.6,100.0,standard,5.0,1.0,1.0,
568,0.0,increament,0.6,100.0,standard,5.0,1.0,1.0,
569,0.0,increament,0.6,100.0,standard,5.0,1.0,1.0,
570,0.0,decreament,0.6,100.0,standard,1.0,1.0,1.0,
571,0.0,decreament,0.6,100.0,standard,1.0,1.0,1.0,
572,0.0,decreament,0.6,100.0,standard,1.0,1.0,1.0,
573,0.0,decreament,0.6,100.0,standard,1.0,1.0,1.0,
574,0.0,decreament,0.6,100.0,standard,1.0,1.0,1.0,
575,0.0,decreament,0.36,60.0,oddball,3.0,1.0,1.0,0.5006095999997342
576,0.0,decreament,0.6,100.0,standard,1.0,1.0,1.0,
577,0.0,decreament,0.6,100.0,standard,1.0,1.0,1.0,
578,0.0,decreament,0.6,100.0,standard,1.0,1.0,1.0,
579,0.0,decreament,0.6,100.0,standard,1.0,1.0,1.0,
580,0.0,decreament,0.6,100.0,standard,1.0,1.0,1.0,
581,0.0,decreament,0.6,100.0,standard,1.0,1.0,1.0,
582,0.0,decreament,0.6,100.0,standard,1.0,1.0,1.0,
583,0.0,decreament,0.6,100.0,standard,1.0,1.0,1.0,
584,0.0,decreament,0.6,100.0,standard,1.0,1.0,1.0,
585,0.0,decreament,0.6,100.0,standard,1.0,1.0,1.0,
586,0.0,decreament,0.6,100.0,standard,1.0,1.0,1.0,
587,0.0,decreament,0.6,100.0,standard,1.0,1.0,1.0,
588,0.0,decreament,0.6,100.0,standard,1.0,1.0,1.0,
589,0.0,decreament,0.6,100.0,standard,1.0,1.0,1.0,
590,0.0,decreament,0.24,40.0,oddball,2.0,1.0,0.0,
591,0.0,decreament,0.6,100.0,standard,1.0,1.0,1.0,
592,0.0,decreament,0.6,100.0,standard,1.0,1.0,1.0,
593,0.0,decreament,0.6,100.0,standard,1.0,1.0,1.0,
594,0.0,decreament,0.6,100.0,standard,1.0,1.0,1.0,
595,0.0,decreament,0.48,80.0,oddball,4.0,1.0,0.0,
596,0.0,decreament,0.6,100.0,standard,1.0,1.0,1.0,
597,0.0,decreament,0.6,100.0,standard,1.0,1.0,1.0,
598,0.0,decreament,0.6,100.0,standard,1.0,1.0,1.0,
599,0.0,decreament,0.6,100.0,standard,1.0,1.0,1.0,
600,5.0,increament,0.6,100.0,standard,15.0,2.0,1.0,
601,5.0,increament,0.6,100.0,standard,15.0,2.0,1.0,
602,5.0,increament,0.6,100.0,standard,15.0,2.0,1.0,
603,5.0,increament,0.6,100.0,standard,15.0,2.0,1.0,
604,5.0,increament,0.6,100.0,standard,15.0,2.0,1.0,
605,5.0,increament,0.6,100.0,standard,15.0,2.0,1.0,
606,5.0,increament,0.6,100.0,standard,15.0,2.0,1.0,
607,5.0,increament,0.6,100.0,standard,15.0,2.0,1.0,
608,5.0,increament,0.6,100.0,standard,15.0,2.0,1.0,
609,5.0,increament,0.72,120.0,oddball,16.0,2.0,0.0,
610,5.0,increament,0.6,100.0,standard,15.0,2.0,1.0,
611,5.0,increament,0.6,100.0,standard,15.0,2.0,1.0,
612,5.0,increament,0.6,100.0,standard,15.0,2.0,1.0,
613,5.0,increament,0.84,140.0,oddball,17.0,2.0,1.0,0.3862020000005941
614,5.0,increament,0.6,100.0,standard,15.0,2.0,1.0,
615,5.0,increament,0.6,100.0,standard,15.0,2.0,1.0,
616,5.0,increament,0.6,100.0,standard,15.0,2.0,1.0,
617,5.0,increament,0.6,100.0,standard,15.0,2.0,1.0,
618,5.0,increament,0.6,100.0,standard,15.0,2.0,1.0,
619,5.0,increament,0.96,160.0,oddball,18.0,2.0,1.0,0.2062797999997201
620,5.0,increament,0.6,100.0,standard,15.0,2.0,1.0,
621,5.0,increament,0.6,100.0,standard,15.0,2.0,1.0,
622,5.0,increament,0.6,100.0,standard,15.0,2.0,1.0,
623,5.0,increament,0.6,100.0,standard,15.0,2.0,1.0,
624,5.0,increament,0.6,100.0,standard,15.0,2.0,1.0,
625,5.0,increament,0.6,100.0,standard,15.0,2.0,1.0,
626,5.0,increament,0.6,100.0,standard,15.0,2.0,1.0,
627,5.0,increament,0.6,100.0,standard,15.0,2.0,1.0,
628,5.0,increament,0.6,100.0,standard,15.0,2.0,1.0,
629,5.0,increament,0.6,100.0,standard,15.0,2.0,1.0,
630,5.0,decreament,0.6,100.0,standard,11.0,2.0,1.0,
631,5.0,decreament,0.6,100.0,standard,11.0,2.0,1.0,
632,5.0,decreament,0.6,100.0,standard,11.0,2.0,1.0,
633,5.0,decreament,0.6,100.0,standard,11.0,2.0,1.0,
634,5.0,decreament,0.6,100.0,standard,11.0,2.0,1.0,
635,5.0,decreament,0.6,100.0,standard,11.0,2.0,1.0,
636,5.0,decreament,0.6,100.0,standard,11.0,2.0,1.0,
637,5.0,decreament,0.6,100.0,standard,11.0,2.0,1.0,
638,5.0,decreament,0.48,80.0,oddball,14.0,2.0,0.0,
639,5.0,decreament,0.6,100.0,standard,11.0,2.0,1.0,
640,5.0,decreament,0.6,100.0,standard,11.0,2.0,1.0,
641,5.0,decreament,0.6,100.0,standard,11.0,2.0,1.0,
642,5.0,decreament,0.6,100.0,standard,11.0,2.0,1.0,
643,5.0,decreament,0.6,100.0,standard,11.0,2.0,1.0,
644,5.0,decreament,0.6,100.0,standard,11.0,2.0,1.0,
645,5.0,decreament,0.6,100.0,standard,11.0,2.0,1.0,
646,5.0,decreament,0.6,100.0,standard,11.0,2.0,1.0,
647,5.0,decreament,0.6,100.0,standard,11.0,2.0,1.0,
648,5.0,decreament,0.36,60.0,oddball,13.0,2.0,1.0,0.6309916000000158
649,5.0,decreament,0.6,100.0,standard,11.0,2.0,1.0,
650,5.0,decreament,0.6,100.0,standard,11.0,2.0,1.0,
651,5.0,decreament,0.6,100.0,standard,11.0,2.0,1.0,
652,5.0,decreament,0.6,100.0,standard,11.0,2.0,1.0,
653,5.0,decreament,0.6,100.0,standard,11.0,2.0,1.0,
654,5.0,decreament,0.6,100.0,standard,11.0,2.0,1.0,
655,5.0,decreament,0.6,100.0,standard,11.0,2.0,1.0,
656,5.0,decreament,0.6,100.0,standard,11.0,2.0,1.0,
657,5.0,decreament,0.6,100.0,standard,11.0,2.0,1.0,
658,5.0,decreament,0.6,100.0,standard,11.0,2.0,1.0,
659,5.0,decreament,0.24,40.0,oddball,12.0,2.0,1.0,0.9084573999998612
660,5.0,increament,0.6,100.0,standard,15.0,2.0,1.0,
661,5.0,increament,0.6,100.0,standard,15.0,2.0,1.0,
662,5.0,increament,0.6,100.0,standard,15.0,2.0,1.0,
663,5.0,increament,0.6,100.0,standard,15.0,2.0,1.0,
664,5.0,increament,0.6,100.0,standard,15.0,2.0,1.0,
665,5.0,increament,0.6,100.0,standard,15.0,2.0,1.0,
666,5.0,increament,0.6,100.0,standard,15.0,2.0,1.0,
667,5.0,increament,0.6,100.0,standard,15.0,2.0,1.0,
668,5.0,increament,0.6,100.0,standard,15.0,2.0,1.0,
669,5.0,increament,0.96,160.0,oddball,18.0,2.0,1.0,0.2370921000001544
670,5.0,increament,0.6,100.0,standard,15.0,2.0,1.0,
671,5.0,increament,0.6,100.0,standard,15.0,2.0,1.0,
672,5.0,increament,0.6,100.0,standard,15.0,2.0,1.0,
673,5.0,increament,0.6,100.0,standard,15.0,2.0,1.0,
674,5.0,increament,0.6,100.0,standard,15.0,2.0,1.0,
675,5.0,increament,0.6,100.0,standard,15.0,2.0,1.0,
676,5.0,increament,0.72,120.0,oddball,16.0,2.0,0.0,
677,5.0,increament,0.6,100.0,standard,15.0,2.0,1.0,
678,5.0,increament,0.6,100.0,standard,15.0,2.0,1.0,
679,5.0,increament,0.6,100.0,standard,15.0,2.0,1.0,
680,5.0,increament,0.6,100.0,standard,15.0,2.0,1.0,
681,5.0,increament,0.6,100.0,standard,15.0,2.0,1.0,
682,5.0,increament,0.6,100.0,standard,15.0,2.0,1.0,
683,5.0,increament,0.6,100.0,standard,15.0,2.0,1.0,
684,5.0,increament,0.84,140.0,oddball,17.0,2.0,0.0,
685,5.0,increament,0.6,100.0,standard,15.0,2.0,1.0,
686,5.0,increament,0.6,100.0,standard,15.0,2.0,1.0,
687,5.0,increament,0.6,100.0,standard,15.0,2.0,1.0,
688,5.0,increament,0.6,100.0,standard,15.0,2.0,1.0,
689,5.0,increament,0.6,100.0,standard,15.0,2.0,1.0,
690,5.0,decreament,0.6,100.0,standard,11.0,2.0,1.0,
691,5.0,decreament,0.6,100.0,standard,11.0,2.0,1.0,
692,5.0,decreament,0.6,100.0,standard,11.0,2.0,1.0,
693,5.0,decreament,0.6,100.0,standard,11.0,2.0,1.0,
694,5.0,decreament,0.6,100.0,standard,11.0,2.0,1.0,
695,5.0,decreament,0.6,100.0,standard,11.0,2.0,1.0,
696,5.0,decreament,0.6,100.0,standard,11.0,2.0,1.0,
697,5.0,decreament,0.6,100.0,standard,11.0,2.0,1.0,
698,5.0,decreament,0.6,100.0,standard,11.0,2.0,1.0,
699,5.0,decreament,0.24,40.0,oddball,12.0,2.0,1.0,0.4540085000007821
700,5.0,decreament,0.6,100.0,standard,11.0,2.0,1.0,
701,5.0,decreament,0.6,100.0,standard,11.0,2.0,1.0,
702,5.0,decreament,0.6,100.0,standard,11.0,2.0,1.0,
703,5.0,decreament,0.6,100.0,standard,11.0,2.0,1.0,
704,5.0,decreament,0.6,100.0,standard,11.0,2.0,1.0,
705,5.0,decreament,0.6,100.0,standard,11.0,2.0,1.0,
706,5.0,decreament,0.6,100.0,standard,11.0,2.0,1.0,
707,5.0,decreament,0.6,100.0,standard,11.0,2.0,1.0,
708,5.0,decreament,0.36,60.0,oddball,13.0,2.0,1.0,0.4934136000001672
709,5.0,decreament,0.6,100.0,standard,11.0,2.0,1.0,
710,5.0,decreament,0.6,100.0,standard,11.0,2.0,1.0,
711,5.0,decreament,0.6,100.0,standard,11.0,2.0,1.0,
712,5.0,decreament,0.6,100.0,standard,11.0,2.0,1.0,
713,5.0,decreament,0.6,100.0,standard,11.0,2.0,1.0,
714,5.0,decreament,0.6,100.0,standard,11.0,2.0,1.0,
715,5.0,decreament,0.48,80.0,oddball,14.0,2.0,0.0,
716,5.0,decreament,0.6,100.0,standard,11.0,2.0,1.0,
717,5.0,decreament,0.6,100.0,standard,11.0,2.0,1.0,
718,5.0,decreament,0.6,100.0,standard,11.0,2.0,1.0,
719,5.0,decreament,0.6,100.0,standard,11.0,2.0,1.0,
720,5.0,increament,0.6,100.0,standard,15.0,2.0,1.0,
721,5.0,increament,0.6,100.0,standard,15.0,2.0,1.0,
722,5.0,increament,0.6,100.0,standard,15.0,2.0,1.0,
723,5.0,increament,0.6,100.0,standard,15.0,2.0,1.0,
724,5.0,increament,0.6,100.0,standard,15.0,2.0,1.0,
725,5.0,increament,0.6,100.0,standard,15.0,2.0,1.0,
726,5.0,increament,0.6,100.0,standard,15.0,2.0,1.0,
727,5.0,increament,0.6,100.0,standard,15.0,2.0,1.0,
728,5.0,increament,0.6,100.0,standard,15.0,2.0,1.0,
729,5.0,increament,0.6,100.0,standard,15.0,2.0,1.0,
730,5.0,increament,0.6,100.0,standard,15.0,2.0,1.0,
731,5.0,increament,0.6,100.0,standard,15.0,2.0,1.0,
732,5.0,increament,0.6,100.0,standard,15.0,2.0,1.0,
733,5.0,increament,0.6,100.0,standard,15.0,2.0,1.0,
734,5.0,increament,0.6,100.0,standard,15.0,2.0,1.0,
735,5.0,increament,0.96,160.0,oddball,18.0,2.0,1.0,0.3329223999999158
736,5.0,increament,0.6,100.0,standard,15.0,2.0,1.0,
737,5.0,increament,0.6,100.0,standard,15.0,2.0,1.0,
738,5.0,increament,0.6,100.0,standard,15.0,2.0,1.0,
739,5.0,increament,0.84,140.0,oddball,17.0,2.0,0.0,
740,5.0,increament,0.6,100.0,standard,15.0,2.0,1.0,
741,5.0,increament,0.6,100.0,standard,15.0,2.0,1.0,
742,5.0,increament,0.6,100.0,standard,15.0,2.0,1.0,
743,5.0,increament,0.6,100.0,standard,15.0,2.0,1.0,
744,5.0,increament,0.72,120.0,oddball,16.0,2.0,0.0,
745,5.0,increament,0.6,100.0,standard,15.0,2.0,1.0,
746,5.0,increament,0.6,100.0,standard,15.0,2.0,1.0,
747,5.0,increament,0.6,100.0,standard,15.0,2.0,1.0,
748,5.0,increament,0.6,100.0,standard,15.0,2.0,1.0,
749,5.0,increament,0.6,100.0,standard,15.0,2.0,1.0,
750,5.0,decreament,0.6,100.0,standard,11.0,2.0,1.0,
751,5.0,decreament,0.6,100.0,standard,11.0,2.0,1.0,
752,5.0,decreament,0.6,100.0,standard,11.0,2.0,1.0,
753,5.0,decreament,0.6,100.0,standard,11.0,2.0,1.0,
754,5.0,decreament,0.6,100.0,standard,11.0,2.0,1.0,
755,5.0,decreament,0.6,100.0,standard,11.0,2.0,1.0,
756,5.0,decreament,0.6,100.0,standard,11.0,2.0,1.0,
757,5.0,decreament,0.6,100.0,standard,11.0,2.0,1.0,
758,5.0,decreament,0.6,100.0,standard,11.0,2.0,1.0,
759,5.0,decreament,0.24,40.0,oddball,12.0,2.0,1.0,0.5062270000007629
760,5.0,decreament,0.6,100.0,standard,11.0,2.0,1.0,
761,5.0,decreament,0.6,100.0,standard,11.0,2.0,1.0,
762,5.0,decreament,0.6,100.0,standard,11.0,2.0,1.0,
763,5.0,decreament,0.6,100.0,standard,11.0,2.0,1.0,
764,5.0,decreament,0.6,100.0,standard,11.0,2.0,1.0,
765,5.0,decreament,0.6,100.0,standard,11.0,2.0,1.0,
766,5.0,decreament,0.6,100.0,standard,11.0,2.0,1.0,
767,5.0,decreament,0.48,80.0,oddball,14.0,2.0,0.0,
768,5.0,decreament,0.6,100.0,standard,11.0,2.0,1.0,
769,5.0,decreament,0.6,100.0,standard,11.0,2.0,1.0,
770,5.0,decreament,0.6,100.0,standard,11.0,2.0,1.0,
771,5.0,decreament,0.6,100.0,standard,11.0,2.0,1.0,
772,5.0,decreament,0.6,100.0,standard,11.0,2.0,1.0,
773,5.0,decreament,0.6,100.0,standard,11.0,2.0,1.0,
774,5.0,decreament,0.6,100.0,standard,11.0,2.0,1.0,
775,5.0,decreament,0.6,100.0,standard,11.0,2.0,1.0,
776,5.0,decreament,0.6,100.0,standard,11.0,2.0,1.0,
777,5.0,decreament,0.36,60.0,oddball,13.0,2.0,1.0,0.5460272999998779
778,5.0,decreament,0.6,100.0,standard,11.0,2.0,1.0,
779,5.0,decreament,0.6,100.0,standard,11.0,2.0,1.0,
780,5.0,increament,0.6,100.0,standard,15.0,2.0,1.0,
781,5.0,increament,0.6,100.0,standard,15.0,2.0,1.0,
782,5.0,increament,0.6,100.0,standard,15.0,2.0,1.0,
783,5.0,increament,0.6,100.0,standard,15.0,2.0,1.0,
784,5.0,increament,0.6,100.0,standard,15.0,2.0,1.0,
785,5.0,increament,0.6,100.0,standard,15.0,2.0,1.0,
786,5.0,increament,0.6,100.0,standard,15.0,2.0,1.0,
787,5.0,increament,0.6,100.0,standard,15.0,2.0,1.0,
788,5.0,increament,0.6,100.0,standard,15.0,2.0,1.0,
789,5.0,increament,0.6,100.0,standard,15.0,2.0,1.0,
790,5.0,increament,0.6,100.0,standard,15.0,2.0,1.0,
791,5.0,increament,0.6,100.0,standard,15.0,2.0,1.0,
792,5.0,increament,0.6,100.0,standard,15.0,2.0,1.0,
793,5.0,increament,0.96,160.0,oddball,18.0,2.0,1.0,1.3254423999997016
794,5.0,increament,0.6,100.0,standard,15.0,2.0,1.0,
795,5.0,increament,0.6,100.0,standard,15.0,2.0,1.0,
796,5.0,increament,0.6,100.0,standard,15.0,2.0,1.0,
797,5.0,increament,0.6,100.0,standard,15.0,2.0,1.0,
798,5.0,increament,0.6,100.0,standard,15.0,2.0,1.0,
799,5.0,increament,0.6,100.0,standard,15.0,2.0,1.0,
800,5.0,increament,0.6,100.0,standard,15.0,2.0,1.0,
801,5.0,increament,0.6,100.0,standard,15.0,2.0,1.0,
802,5.0,increament,0.6,100.0,standard,15.0,2.0,1.0,
803,5.0,increament,0.72,120.0,oddball,16.0,2.0,0.0,
804,5.0,increament,0.6,100.0,standard,15.0,2.0,1.0,
805,5.0,increament,0.6,100.0,standard,15.0,2.0,1.0,
806,5.0,increament,0.6,100.0,standard,15.0,2.0,1.0,
807,5.0,increament,0.84,140.0,oddball,17.0,2.0,0.0,
808,5.0,increament,0.6,100.0,standard,15.0,2.0,1.0,
809,5.0,increament,0.6,100.0,standard,15.0,2.0,1.0,
810,5.0,decreament,0.6,100.0,standard,11.0,2.0,1.0,
811,5.0,decreament,0.6,100.0,standard,11.0,2.0,1.0,
812,5.0,decreament,0.6,100.0,standard,11.0,2.0,1.0,
813,5.0,decreament,0.6,100.0,standard,11.0,2.0,1.0,
814,5.0,decreament,0.6,100.0,standard,11.0,2.0,1.0,
815,5.0,decreament,0.6,100.0,standard,11.0,2.0,1.0,
816,5.0,decreament,0.6,100.0,standard,11.0,2.0,1.0,
817,5.0,decreament,0.6,100.0,standard,11.0,2.0,1.0,
818,5.0,decreament,0.6,100.0,standard,11.0,2.0,1.0,
819,5.0,decreament,0.24,40.0,oddball,12.0,2.0,1.0,0.3865604000002349
820,5.0,decreament,0.6,100.0,standard,11.0,2.0,1.0,
821,5.0,decreament,0.6,100.0,standard,11.0,2.0,1.0,
822,5.0,decreament,0.6,100.0,standard,11.0,2.0,1.0,
823,5.0,decreament,0.6,100.0,standard,11.0,2.0,1.0,
824,5.0,decreament,0.6,100.0,standard,11.0,2.0,1.0,
825,5.0,decreament,0.6,100.0,standard,11.0,2.0,1.0,
826,5.0,decreament,0.36,60.0,oddball,13.0,2.0,1.0,0.3715908000003765
827,5.0,decreament,0.6,100.0,standard,11.0,2.0,1.0,
828,5.0,decreament,0.6,100.0,standard,11.0,2.0,1.0,
829,5.0,decreament,0.6,100.0,standard,11.0,2.0,1.0,
830,5.0,decreament,0.6,100.0,standard,11.0,2.0,1.0,
831,5.0,decreament,0.6,100.0,standard,11.0,2.0,1.0,
832,5.0,decreament,0.6,100.0,standard,11.0,2.0,1.0,
833,5.0,decreament,0.6,100.0,standard,11.0,2.0,1.0,
834,5.0,decreament,0.6,100.0,standard,11.0,2.0,1.0,
835,5.0,decreament,0.48,80.0,oddball,14.0,2.0,1.0,0.3900862999998935
836,5.0,decreament,0.6,100.0,standard,11.0,2.0,1.0,
837,5.0,decreament,0.6,100.0,standard,11.0,2.0,1.0,
838,5.0,decreament,0.6,100.0,standard,11.0,2.0,1.0,
839,5.0,decreament,0.6,100.0,standard,11.0,2.0,1.0,
840,5.0,increament,0.6,100.0,standard,15.0,2.0,1.0,
841,5.0,increament,0.6,100.0,standard,15.0,2.0,1.0,
842,5.0,increament,0.6,100.0,standard,15.0,2.0,1.0,
843,5.0,increament,0.6,100.0,standard,15.0,2.0,1.0,
844,5.0,increament,0.6,100.0,standard,15.0,2.0,1.0,
845,5.0,increament,0.6,100.0,standard,15.0,2.0,1.0,
846,5.0,increament,0.6,100.0,standard,15.0,2.0,1.0,
847,5.0,increament,0.6,100.0,standard,15.0,2.0,1.0,
848,5.0,increament,0.72,120.0,oddball,16.0,2.0,1.0,0.4107887000000119
849,5.0,increament,0.6,100.0,standard,15.0,2.0,1.0,
850,5.0,increament,0.6,100.0,standard,15.0,2.0,1.0,
851,5.0,increament,0.6,100.0,standard,15.0,2.0,1.0,
852,5.0,increament,0.6,100.0,standard,15.0,2.0,1.0,
853,5.0,increament,0.96,160.0,oddball,18.0,2.0,1.0,0.4113446999999723
854,5.0,increament,0.6,100.0,standard,15.0,2.0,1.0,
855,5.0,increament,0.6,100.0,standard,15.0,2.0,1.0,
856,5.0,increament,0.6,100.0,standard,15.0,2.0,1.0,
857,5.0,increament,0.6,100.0,standard,15.0,2.0,1.0,
858,5.0,increament,0.6,100.0,standard,15.0,2.0,1.0,
859,5.0,increament,0.6,100.0,standard,15.0,2.0,1.0,
860,5.0,increament,0.84,140.0,oddball,17.0,2.0,0.0,
861,5.0,increament,0.6,100.0,standard,15.0,2.0,1.0,
862,5.0,increament,0.6,100.0,standard,15.0,2.0,1.0,
863,5.0,increament,0.6,100.0,standard,15.0,2.0,1.0,
864,5.0,increament,0.6,100.0,standard,15.0,2.0,1.0,
865,5.0,increament,0.6,100.0,standard,15.0,2.0,1.0,
866,5.0,increament,0.6,100.0,standard,15.0,2.0,1.0,
867,5.0,increament,0.6,100.0,standard,15.0,2.0,1.0,
868,5.0,increament,0.6,100.0,standard,15.0,2.0,1.0,
869,5.0,increament,0.6,100.0,standard,15.0,2.0,1.0,
870,5.0,decreament,0.6,100.0,standard,11.0,2.0,1.0,
871,5.0,decreament,0.6,100.0,standard,11.0,2.0,1.0,
872,5.0,decreament,0.6,100.0,standard,11.0,2.0,1.0,
873,5.0,decreament,0.6,100.0,standard,11.0,2.0,1.0,
874,5.0,decreament,0.6,100.0,standard,11.0,2.0,1.0,
875,5.0,decreament,0.6,100.0,standard,11.0,2.0,1.0,
876,5.0,decreament,0.6,100.0,standard,11.0,2.0,1.0,
877,5.0,decreament,0.6,100.0,standard,11.0,2.0,1.0,
878,5.0,decreament,0.6,100.0,standard,11.0,2.0,1.0,
879,5.0,decreament,0.6,100.0,standard,11.0,2.0,1.0,
880,5.0,decreament,0.6,100.0,standard,11.0,2.0,1.0,
881,5.0,decreament,0.6,100.0,standard,11.0,2.0,1.0,
882,5.0,decreament,0.6,100.0,standard,11.0,2.0,1.0,
883,5.0,decreament,0.6,100.0,standard,11.0,2.0,1.0,
884,5.0,decreament,0.36,60.0,oddball,13.0,2.0,1.0,0.4391425999992862
885,5.0,decreament,0.6,100.0,standard,11.0,2.0,1.0,
886,5.0,decreament,0.6,100.0,standard,11.0,2.0,1.0,
887,5.0,decreament,0.6,100.0,standard,11.0,2.0,1.0,
888,5.0,decreament,0.6,100.0,standard,11.0,2.0,1.0,
889,5.0,decreament,0.48,80.0,oddball,14.0,2.0,0.0,
890,5.0,decreament,0.6,100.0,standard,11.0,2.0,1.0,
891,5.0,decreament,0.6,100.0,standard,11.0,2.0,1.0,
892,5.0,decreament,0.6,100.0,standard,11.0,2.0,1.0,
893,5.0,decreament,0.24,40.0,oddball,12.0,2.0,1.0,0.5055526999994981
894,5.0,decreament,0.6,100.0,standard,11.0,2.0,1.0,
895,5.0,decreament,0.6,100.0,standard,11.0,2.0,1.0,
896,5.0,decreament,0.6,100.0,standard,11.0,2.0,1.0,
897,5.0,decreament,0.6,100.0,standard,11.0,2.0,1.0,
898,5.0,decreament,0.6,100.0,standard,11.0,2.0,1.0,
899,5.0,decreament,0.6,100.0,standard,11.0,2.0,1.0,
900,20.0,increament,0.6,100.0,standard,45.0,3.0,1.0,
901,20.0,increament,0.6,100.0,standard,45.0,3.0,1.0,
902,20.0,increament,0.6,100.0,standard,45.0,3.0,1.0,
903,20.0,increament,0.6,100.0,standard,45.0,3.0,1.0,
904,20.0,increament,0.6,100.0,standard,45.0,3.0,1.0,
905,20.0,increament,0.6,100.0,standard,45.0,3.0,1.0,
906,20.0,increament,0.6,100.0,standard,45.0,3.0,1.0,
907,20.0,increament,0.6,100.0,standard,45.0,3.0,1.0,
908,20.0,increament,0.6,100.0,standard,45.0,3.0,1.0,
909,20.0,increament,0.6,100.0,standard,45.0,3.0,1.0,
910,20.0,increament,0.96,160.0,oddball,48.0,3.0,1.0,0.4803698999994594
911,20.0,increament,0.6,100.0,standard,45.0,3.0,1.0,
912,20.0,increament,0.6,100.0,standard,45.0,3.0,1.0,
913,20.0,increament,0.6,100.0,standard,45.0,3.0,1.0,
914,20.0,increament,0.6,100.0,standard,45.0,3.0,1.0,
915,20.0,increament,0.72,120.0,oddball,46.0,3.0,0.0,
916,20.0,increament,0.6,100.0,standard,45.0,3.0,1.0,
917,20.0,increament,0.6,100.0,standard,45.0,3.0,1.0,
918,20.0,increament,0.6,100.0,standard,45.0,3.0,1.0,
919,20.0,increament,0.6,100.0,standard,45.0,3.0,1.0,
920,20.0,increament,0.6,100.0,standard,45.0,3.0,1.0,
921,20.0,increament,0.6,100.0,standard,45.0,3.0,1.0,
922,20.0,increament,0.6,100.0,standard,45.0,3.0,1.0,
923,20.0,increament,0.6,100.0,standard,45.0,3.0,1.0,
924,20.0,increament,0.6,100.0,standard,45.0,3.0,1.0,
925,20.0,increament,0.6,100.0,standard,45.0,3.0,1.0,
926,20.0,increament,0.6,100.0,standard,45.0,3.0,1.0,
927,20.0,increament,0.84,140.0,oddball,47.0,3.0,1.0,0.4760998000001564
928,20.0,increament,0.6,100.0,standard,45.0,3.0,1.0,
929,20.0,increament,0.6,100.0,standard,45.0,3.0,1.0,
930,20.0,decreament,0.6,100.0,standard,41.0,3.0,1.0,
931,20.0,decreament,0.6,100.0,standard,41.0,3.0,1.0,
932,20.0,decreament,0.6,100.0,standard,41.0,3.0,1.0,
933,20.0,decreament,0.6,100.0,standard,41.0,3.0,1.0,
934,20.0,decreament,0.6,100.0,standard,41.0,3.0,1.0,
935,20.0,decreament,0.6,100.0,standard,41.0,3.0,1.0,
936,20.0,decreament,0.36,60.0,oddball,43.0,3.0,1.0,0.5412218999999823
937,20.0,decreament,0.6,100.0,standard,41.0,3.0,1.0,
938,20.0,decreament,0.6,100.0,standard,41.0,3.0,1.0,
939,20.0,decreament,0.6,100.0,standard,41.0,3.0,1.0,
940,20.0,decreament,0.6,100.0,standard,41.0,3.0,1.0,
941,20.0,decreament,0.6,100.0,standard,41.0,3.0,1.0,
942,20.0,decreament,0.6,100.0,standard,41.0,3.0,1.0,
943,20.0,decreament,0.6,100.0,standard,41.0,3.0,1.0,
944,20.0,decreament,0.6,100.0,standard,41.0,3.0,1.0,
945,20.0,decreament,0.6,100.0,standard,41.0,3.0,1.0,
946,20.0,decreament,0.6,100.0,standard,41.0,3.0,1.0,
947,20.0,decreament,0.6,100.0,standard,41.0,3.0,1.0,
948,20.0,decreament,0.6,100.0,standard,41.0,3.0,1.0,
949,20.0,decreament,0.6,100.0,standard,41.0,3.0,1.0,
950,20.0,decreament,0.6,100.0,standard,41.0,3.0,1.0,
951,20.0,decreament,0.6,100.0,standard,41.0,3.0,1.0,
952,20.0,decreament,0.24,40.0,oddball,42.0,3.0,1.0,0.5178421000000526
953,20.0,decreament,0.6,100.0,standard,41.0,3.0,1.0,
954,20.0,decreament,0.6,100.0,standard,41.0,3.0,1.0,
955,20.0,decreament,0.6,100.0,standard,41.0,3.0,1.0,
956,20.0,decreament,0.6,100.0,standard,41.0,3.0,1.0,
957,20.0,decreament,0.6,100.0,standard,41.0,3.0,1.0,
958,20.0,decreament,0.48,80.0,oddball,44.0,3.0,1.0,0.6006980000001931
959,20.0,decreament,0.6,100.0,standard,41.0,3.0,1.0,
960,20.0,increament,0.6,100.0,standard,45.0,3.0,1.0,
961,20.0,increament,0.6,100.0,standard,45.0,3.0,1.0,
962,20.0,increament,0.6,100.0,standard,45.0,3.0,1.0,
963,20.0,increament,0.6,100.0,standard,45.0,3.0,1.0,
964,20.0,increament,0.6,100.0,standard,45.0,3.0,1.0,
965,20.0,increament,0.6,100.0,standard,45.0,3.0,1.0,
966,20.0,increament,0.6,100.0,standard,45.0,3.0,1.0,
967,20.0,increament,0.84,140.0,oddball,47.0,3.0,1.0,0.3754177000000709
968,20.0,increament,0.6,100.0,standard,45.0,3.0,1.0,
969,20.0,increament,0.6,100.0,standard,45.0,3.0,1.0,
970,20.0,increament,0.6,100.0,standard,45.0,3.0,1.0,
971,20.0,increament,0.6,100.0,standard,45.0,3.0,1.0,
972,20.0,increament,0.6,100.0,standard,45.0,3.0,1.0,
973,20.0,increament,0.96,160.0,oddball,48.0,3.0,1.0,0.3617788999999902
974,20.0,increament,0.6,100.0,standard,45.0,3.0,1.0,
975,20.0,increament,0.6,100.0,standard,45.0,3.0,1.0,
976,20.0,increament,0.6,100.0,standard,45.0,3.0,1.0,
977,20.0,increament,0.6,100.0,standard,45.0,3.0,1.0,
978,20.0,increament,0.6,100.0,standard,45.0,3.0,1.0,
979,20.0,increament,0.6,100.0,standard,45.0,3.0,1.0,
980,20.0,increament,0.6,100.0,standard,45.0,3.0,1.0,
981,20.0,increament,0.72,120.0,oddball,46.0,3.0,1.0,0.9622137999995176
982,20.0,increament,0.6,100.0,standard,45.0,3.0,1.0,
983,20.0,increament,0.6,100.0,standard,45.0,3.0,1.0,
984,20.0,increament,0.6,100.0,standard,45.0,3.0,1.0,
985,20.0,increament,0.6,100.0,standard,45.0,3.0,1.0,
986,20.0,increament,0.6,100.0,standard,45.0,3.0,1.0,
987,20.0,increament,0.6,100.0,standard,45.0,3.0,1.0,
988,20.0,increament,0.6,100.0,standard,45.0,3.0,1.0,
989,20.0,increament,0.6,100.0,standard,45.0,3.0,1.0,
990,20.0,decreament,0.6,100.0,standard,41.0,3.0,1.0,
991,20.0,decreament,0.6,100.0,standard,41.0,3.0,1.0,
992,20.0,decreament,0.6,100.0,standard,41.0,3.0,1.0,
993,20.0,decreament,0.6,100.0,standard,41.0,3.0,1.0,
994,20.0,decreament,0.6,100.0,standard,41.0,3.0,1.0,
995,20.0,decreament,0.6,100.0,standard,41.0,3.0,1.0,
996,20.0,decreament,0.6,100.0,standard,41.0,3.0,1.0,
997,20.0,decreament,0.6,100.0,standard,41.0,3.0,1.0,
998,20.0,decreament,0.6,100.0,standard,41.0,3.0,1.0,
999,20.0,decreament,0.6,100.0,standard,41.0,3.0,1.0,
1000,20.0,decreament,0.6,100.0,standard,41.0,3.0,1.0,
1001,20.0,decreament,0.6,100.0,standard,41.0,3.0,1.0,
1002,20.0,decreament,0.6,100.0,standard,41.0,3.0,1.0,
1003,20.0,decreament,0.6,100.0,standard,41.0,3.0,1.0,
1004,20.0,decreament,0.36,60.0,oddball,43.0,3.0,1.0,0.5277421000000686
1005,20.0,decreament,0.6,100.0,standard,41.0,3.0,1.0,
1006,20.0,decreament,0.6,100.0,standard,41.0,3.0,1.0,
1007,20.0,decreament,0.6,100.0,standard,41.0,3.0,1.0,
1008,20.0,decreament,0.6,100.0,standard,41.0,3.0,1.0,
1009,20.0,decreament,0.48,80.0,oddball,44.0,3.0,0.0,
1010,20.0,decreament,0.6,100.0,standard,41.0,3.0,1.0,
1011,20.0,decreament,0.6,100.0,standard,41.0,3.0,1.0,
1012,20.0,decreament,0.6,100.0,standard,41.0,3.0,1.0,
1013,20.0,decreament,0.6,100.0,standard,41.0,3.0,1.0,
1014,20.0,decreament,0.6,100.0,standard,41.0,3.0,1.0,
1015,20.0,decreament,0.6,100.0,standard,41.0,3.0,1.0,
1016,20.0,decreament,0.24,40.0,oddball,42.0,3.0,1.0,0.53742499999953
1017,20.0,decreament,0.6,100.0,standard,41.0,3.0,1.0,
1018,20.0,decreament,0.6,100.0,standard,41.0,3.0,1.0,
1019,20.0,decreament,0.6,100.0,standard,41.0,3.0,1.0,
1020,20.0,increament,0.6,100.0,standard,45.0,3.0,1.0,
1021,20.0,increament,0.6,100.0,standard,45.0,3.0,1.0,
1022,20.0,increament,0.6,100.0,standard,45.0,3.0,1.0,
1023,20.0,increament,0.6,100.0,standard,45.0,3.0,1.0,
1024,20.0,increament,0.6,100.0,standard,45.0,3.0,1.0,
1025,20.0,increament,0.6,100.0,standard,45.0,3.0,1.0,
1026,20.0,increament,0.6,100.0,standard,45.0,3.0,1.0,
1027,20.0,increament,0.6,100.0,standard,45.0,3.0,1.0,
1028,20.0,increament,0.96,160.0,oddball,48.0,3.0,1.0,0.2823419000005742
1029,20.0,increament,0.6,100.0,standard,45.0,3.0,1.0,
1030,20.0,increament,0.6,100.0,standard,45.0,3.0,1.0,
1031,20.0,increament,0.6,100.0,standard,45.0,3.0,1.0,
1032,20.0,increament,0.6,100.0,standard,45.0,3.0,1.0,
1033,20.0,increament,0.6,100.0,standard,45.0,3.0,1.0,
1034,20.0,increament,0.6,100.0,standard,45.0,3.0,1.0,
1035,20.0,increament,0.6,100.0,standard,45.0,3.0,1.0,
1036,20.0,increament,0.6,100.0,standard,45.0,3.0,1.0,
1037,20.0,increament,0.6,100.0,standard,45.0,3.0,1.0,
1038,20.0,increament,0.6,100.0,standard,45.0,3.0,1.0,
1039,20.0,increament,0.6,100.0,standard,45.0,3.0,1.0,
1040,20.0,increament,0.72,120.0,oddball,46.0,3.0,1.0,0.5724553999998534
1041,20.0,increament,0.6,100.0,standard,45.0,3.0,1.0,
1042,20.0,increament,0.6,100.0,standard,45.0,3.0,1.0,
1043,20.0,increament,0.6,100.0,standard,45.0,3.0,1.0,
1044,20.0,increament,0.6,100.0,standard,45.0,3.0,1.0,
1045,20.0,increament,0.6,100.0,standard,45.0,3.0,1.0,
1046,20.0,increament,0.6,100.0,standard,45.0,3.0,1.0,
1047,20.0,increament,0.6,100.0,standard,45.0,3.0,1.0,
1048,20.0,increament,0.6,100.0,standard,45.0,3.0,1.0,
1049,20.0,increament,0.84,140.0,oddball,47.0,3.0,1.0,0.4956218999996054
1050,20.0,decreament,0.6,100.0,standard,41.0,3.0,1.0,
1051,20.0,decreament,0.6,100.0,standard,41.0,3.0,1.0,
1052,20.0,decreament,0.6,100.0,standard,41.0,3.0,1.0,
1053,20.0,decreament,0.6,100.0,standard,41.0,3.0,1.0,
1054,20.0,decreament,0.6,100.0,standard,41.0,3.0,1.0,
1055,20.0,decreament,0.6,100.0,standard,41.0,3.0,1.0,
1056,20.0,decreament,0.6,100.0,standard,41.0,3.0,1.0,
1057,20.0,decreament,0.6,100.0,standard,41.0,3.0,1.0,
1058,20.0,decreament,0.6,100.0,standard,41.0,3.0,1.0,
1059,20.0,decreament,0.6,100.0,standard,41.0,3.0,1.0,
1060,20.0,decreament,0.6,100.0,standard,41.0,3.0,1.0,
1061,20.0,decreament,0.6,100.0,standard,41.0,3.0,1.0,
1062,20.0,decreament,0.6,100.0,standard,41.0,3.0,1.0,
1063,20.0,decreament,0.6,100.0,standard,41.0,3.0,1.0,
1064,20.0,decreament,0.24,40.0,oddball,42.0,3.0,1.0,0.4776228999999148
1065,20.0,decreament,0.6,100.0,standard,41.0,3.0,1.0,
1066,20.0,decreament,0.6,100.0,standard,41.0,3.0,1.0,
1067,20.0,decreament,0.6,100.0,standard,41.0,3.0,1.0,
1068,20.0,decreament,0.6,100.0,standard,41.0,3.0,1.0,
1069,20.0,decreament,0.6,100.0,standard,41.0,3.0,1.0,
1070,20.0,decreament,0.6,100.0,standard,41.0,3.0,1.0,
1071,20.0,decreament,0.36,60.0,oddball,43.0,3.0,1.0,0.5190385000005335
1072,20.0,decreament,0.6,100.0,standard,41.0,3.0,1.0,
1073,20.0,decreament,0.6,100.0,standard,41.0,3.0,1.0,
1074,20.0,decreament,0.6,100.0,standard,41.0,3.0,1.0,
1075,20.0,decreament,0.6,100.0,standard,41.0,3.0,1.0,
1076,20.0,decreament,0.6,100.0,standard,41.0,3.0,1.0,
1077,20.0,decreament,0.6,100.0,standard,41.0,3.0,1.0,
1078,20.0,decreament,0.48,80.0,oddball,44.0,3.0,1.0,0.6635385000008682
1079,20.0,decreament,0.6,100.0,standard,41.0,3.0,1.0,
1080,20.0,increament,0.6,100.0,standard,45.0,3.0,1.0,
1081,20.0,increament,0.6,100.0,standard,45.0,3.0,1.0,
1082,20.0,increament,0.6,100.0,standard,45.0,3.0,1.0,
1083,20.0,increament,0.6,100.0,standard,45.0,3.0,1.0,
1084,20.0,increament,0.6,100.0,standard,45.0,3.0,1.0,
1085,20.0,increament,0.6,100.0,standard,45.0,3.0,1.0,
1086,20.0,increament,0.96,160.0,oddball,48.0,3.0,1.0,0.3107625000002372
1087,20.0,increament,0.6,100.0,standard,45.0,3.0,1.0,
1088,20.0,increament,0.6,100.0,standard,45.0,3.0,1.0,
1089,20.0,increament,0.6,100.0,standard,45.0,3.0,1.0,
1090,20.0,increament,0.72,120.0,oddball,46.0,3.0,0.0,
1091,20.0,increament,0.6,100.0,standard,45.0,3.0,1.0,
1092,20.0,increament,0.6,100.0,standard,45.0,3.0,1.0,
1093,20.0,increament,0.6,100.0,standard,45.0,3.0,1.0,
1094,20.0,increament,0.6,100.0,standard,45.0,3.0,1.0,
1095,20.0,increament,0.6,100.0,standard,45.0,3.0,1.0,
1096,20.0,increament,0.6,100.0,standard,45.0,3.0,1.0,
1097,20.0,increament,0.6,100.0,standard,45.0,3.0,1.0,
1098,20.0,increament,0.6,100.0,standard,45.0,3.0,1.0,
1099,20.0,increament,0.6,100.0,standard,45.0,3.0,1.0,
1100,20.0,increament,0.6,100.0,standard,45.0,3.0,1.0,
1101,20.0,increament,0.6,100.0,standard,45.0,3.0,1.0,
1102,20.0,increament,0.84,140.0,oddball,47.0,3.0,1.0,0.5286679000000731
1103,20.0,increament,0.6,100.0,standard,45.0,3.0,1.0,
1104,20.0,increament,0.6,100.0,standard,45.0,3.0,1.0,
1105,20.0,increament,0.6,100.0,standard,45.0,3.0,1.0,
1106,20.0,increament,0.6,100.0,standard,45.0,3.0,1.0,
1107,20.0,increament,0.6,100.0,standard,45.0,3.0,1.0,
1108,20.0,increament,0.6,100.0,standard,45.0,3.0,1.0,
1109,20.0,increament,0.6,100.0,standard,45.0,3.0,1.0,
1110,20.0,decreament,0.6,100.0,standard,41.0,3.0,1.0,
1111,20.0,decreament,0.6,100.0,standard,41.0,3.0,1.0,
1112,20.0,decreament,0.6,100.0,standard,41.0,3.0,1.0,
1113,20.0,decreament,0.6,100.0,standard,41.0,3.0,1.0,
1114,20.0,decreament,0.6,100.0,standard,41.0,3.0,1.0,
1115,20.0,decreament,0.6,100.0,standard,41.0,3.0,1.0,
1116,20.0,decreament,0.24,40.0,oddball,42.0,3.0,1.0,0.4335619000003134
1117,20.0,decreament,0.6,100.0,standard,41.0,3.0,1.0,
1118,20.0,decreament,0.6,100.0,standard,41.0,3.0,1.0,
1119,20.0,decreament,0.6,100.0,standard,41.0,3.0,1.0,
1120,20.0,decreament,0.6,100.0,standard,41.0,3.0,1.0,
1121,20.0,decreament,0.6,100.0,standard,41.0,3.0,1.0,
1122,20.0,decreament,0.36,60.0,oddball,43.0,3.0,1.0,0.440420300000369
1123,20.0,decreament,0.6,100.0,standard,41.0,3.0,1.0,
1124,20.0,decreament,0.6,100.0,standard,41.0,3.0,1.0,
1125,20.0,decreament,0.6,100.0,standard,41.0,3.0,1.0,
1126,20.0,decreament,0.6,100.0,standard,41.0,3.0,1.0,
1127,20.0,decreament,0.6,100.0,standard,41.0,3.0,1.0,
1128,20.0,decreament,0.6,100.0,standard,41.0,3.0,1.0,
1129,20.0,decreament,0.6,100.0,standard,41.0,3.0,1.0,
1130,20.0,decreament,0.6,100.0,standard,41.0,3.0,1.0,
1131,20.0,decreament,0.6,100.0,standard,41.0,3.0,1.0,
1132,20.0,decreament,0.6,100.0,standard,41.0,3.0,1.0,
1133,20.0,decreament,0.6,100.0,standard,41.0,3.0,1.0,
1134,20.0,decreament,0.6,100.0,standard,41.0,3.0,1.0,
1135,20.0,decreament,0.48,80.0,oddball,44.0,3.0,0.0,
1136,20.0,decreament,0.6,100.0,standard,41.0,3.0,1.0,
1137,20.0,decreament,0.6,100.0,standard,41.0,3.0,1.0,
1138,20.0,decreament,0.6,100.0,standard,41.0,3.0,1.0,
1139,20.0,decreament,0.6,100.0,standard,41.0,3.0,1.0,
1140,20.0,increament,0.6,100.0,standard,45.0,3.0,1.0,
1141,20.0,increament,0.6,100.0,standard,45.0,3.0,1.0,
1142,20.0,increament,0.6,100.0,standard,45.0,3.0,1.0,
1143,20.0,increament,0.6,100.0,standard,45.0,3.0,1.0,
1144,20.0,increament,0.6,100.0,standard,45.0,3.0,1.0,
1145,20.0,increament,0.72,120.0,oddball,46.0,3.0,0.0,
1146,20.0,increament,0.6,100.0,standard,45.0,3.0,1.0,
1147,20.0,increament,0.6,100.0,standard,45.0,3.0,1.0,
1148,20.0,increament,0.6,100.0,standard,45.0,3.0,1.0,
1149,20.0,increament,0.6,100.0,standard,45.0,3.0,1.0,
1150,20.0,increament,0.96,160.0,oddball,48.0,3.0,1.0,0.3435584999997445
1151,20.0,increament,0.6,100.0,standard,45.0,3.0,1.0,
1152,20.0,increament,0.6,100.0,standard,45.0,3.0,1.0,
1153,20.0,increament,0.6,100.0,standard,45.0,3.0,1.0,
1154,20.0,increament,0.6,100.0,standard,45.0,3.0,1.0,
1155,20.0,increament,0.6,100.0,standard,45.0,3.0,1.0,
1156,20.0,increament,0.6,100.0,standard,45.0,3.0,1.0,
1157,20.0,increament,0.84,140.0,oddball,47.0,3.0,1.0,0.4542495999994571
1158,20.0,increament,0.6,100.0,standard,45.0,3.0,1.0,
1159,20.0,increament,0.6,100.0,standard,45.0,3.0,1.0,
1160,20.0,increament,0.6,100.0,standard,45.0,3.0,1.0,
1161,20.0,increament,0.6,100.0,standard,45.0,3.0,1.0,
1162,20.0,increament,0.6,100.0,standard,45.0,3.0,1.0,
1163,20.0,increament,0.6,100.0,standard,45.0,3.0,1.0,
1164,20.0,increament,0.6,100.0,standard,45.0,3.0,1.0,
1165,20.0,increament,0.6,100.0,standard,45.0,3.0,1.0,
1166,20.0,increament,0.6,100.0,standard,45.0,3.0,1.0,
1167,20.0,increament,0.6,100.0,standard,45.0,3.0,1.0,
1168,20.0,increament,0.6,100.0,standard,45.0,3.0,1.0,
1169,20.0,increament,0.6,100.0,standard,45.0,3.0,1.0,
1170,20.0,decreament,0.6,100.0,standard,41.0,3.0,1.0,
1171,20.0,decreament,0.6,100.0,standard,41.0,3.0,1.0,
1172,20.0,decreament,0.6,100.0,standard,41.0,3.0,1.0,
1173,20.0,decreament,0.6,100.0,standard,41.0,3.0,1.0,
1174,20.0,decreament,0.6,100.0,standard,41.0,3.0,1.0,
1175,20.0,decreament,0.6,100.0,standard,41.0,3.0,1.0,
1176,20.0,decreament,0.6,100.0,standard,41.0,3.0,1.0,
1177,20.0,decreament,0.6,100.0,standard,41.0,3.0,1.0,
1178,20.0,decreament,0.6,100.0,standard,41.0,3.0,1.0,
1179,20.0,decreament,0.6,100.0,standard,41.0,3.0,1.0,
1180,20.0,decreament,0.6,100.0,standard,41.0,3.0,1.0,
1181,20.0,decreament,0.6,100.0,standard,41.0,3.0,1.0,
1182,20.0,decreament,0.6,100.0,standard,41.0,3.0,1.0,
1183,20.0,decreament,0.6,100.0,standard,41.0,3.0,1.0,
1184,20.0,decreament,0.48,80.0,oddball,44.0,3.0,0.0,
1185,20.0,decreament,0.6,100.0,standard,41.0,3.0,1.0,
1186,20.0,decreament,0.6,100.0,standard,41.0,3.0,1.0,
1187,20.0,decreament,0.6,100.0,standard,41.0,3.0,1.0,
1188,20.0,decreament,0.6,100.0,standard,41.0,3.0,1.0,
1189,20.0,decreament,0.24,40.0,oddball,42.0,3.0,1.0,0.678975900000296
1190,20.0,decreament,0.6,100.0,standard,41.0,3.0,1.0,
1191,20.0,decreament,0.6,100.0,standard,41.0,3.0,1.0,
1192,20.0,decreament,0.6,100.0,standard,41.0,3.0,1.0,
1193,20.0,decreament,0.36,60.0,oddball,43.0,3.0,1.0,0.7031599000001734
1194,20.0,decreament,0.6,100.0,standard,41.0,3.0,1.0,
1195,20.0,decreament,0.6,100.0,standard,41.0,3.0,1.0,
1196,20.0,decreament,0.6,100.0,standard,41.0,3.0,1.0,
1197,20.0,decreament,0.6,100.0,standard,41.0,3.0,1.0,
1198,20.0,decreament,0.6,100.0,standard,41.0,3.0,1.0,
1199,20.0,decreament,0.6,100.0,standard,41.0,3.0,1.0,
