,grating_freq,direction,duration,scaling,stim_type,trigger,blocks.thisN,resp.corr,resp.rt
0,10.0,increament,0.6,100.0,standard,25.0,0.0,1.0,
1,10.0,increament,0.6,100.0,standard,25.0,0.0,1.0,
2,10.0,increament,0.6,100.0,standard,25.0,0.0,1.0,
3,10.0,increament,0.6,100.0,standard,25.0,0.0,1.0,
4,10.0,increament,0.6,100.0,standard,25.0,0.0,1.0,
5,10.0,increament,0.6,100.0,standard,25.0,0.0,1.0,
6,10.0,increament,0.6,100.0,standard,25.0,0.0,1.0,
7,10.0,increament,0.6,100.0,standard,25.0,0.0,0.0,0.8940099002793431
8,10.0,increament,0.6,100.0,standard,25.0,0.0,1.0,
9,10.0,increament,0.6,100.0,standard,25.0,0.0,1.0,
10,10.0,increament,0.6,100.0,standard,25.0,0.0,1.0,
11,10.0,increament,0.6,100.0,standard,25.0,0.0,1.0,
12,10.0,increament,0.6,100.0,standard,25.0,0.0,0.0,0.6373680997639894
13,10.0,increament,0.6,100.0,standard,25.0,0.0,1.0,
14,10.0,increament,0.6,100.0,standard,25.0,0.0,1.0,
15,10.0,increament,0.6,100.0,standard,25.0,0.0,1.0,
16,10.0,increament,0.84,140.0,oddball,27.0,0.0,1.0,0.671254999935627
17,10.0,increament,0.6,100.0,standard,25.0,0.0,1.0,
18,10.0,increament,0.6,100.0,standard,25.0,0.0,1.0,
19,10.0,increament,0.6,100.0,standard,25.0,0.0,1.0,
20,10.0,increament,0.6,100.0,standard,25.0,0.0,1.0,
21,10.0,increament,0.96,160.0,oddball,28.0,0.0,1.0,0.4518026998266577
22,10.0,increament,0.6,100.0,standard,25.0,0.0,1.0,
23,10.0,increament,0.6,100.0,standard,25.0,0.0,1.0,
24,10.0,increament,0.6,100.0,standard,25.0,0.0,1.0,
25,10.0,increament,0.72,120.0,oddball,26.0,0.0,0.0,
26,10.0,increament,0.6,100.0,standard,25.0,0.0,1.0,
27,10.0,increament,0.6,100.0,standard,25.0,0.0,1.0,
28,10.0,increament,0.6,100.0,standard,25.0,0.0,1.0,
29,10.0,increament,0.6,100.0,standard,25.0,0.0,1.0,
30,10.0,decreament,0.6,100.0,standard,21.0,0.0,1.0,
31,10.0,decreament,0.6,100.0,standard,21.0,0.0,1.0,
32,10.0,decreament,0.6,100.0,standard,21.0,0.0,1.0,
33,10.0,decreament,0.6,100.0,standard,21.0,0.0,1.0,
34,10.0,decreament,0.6,100.0,standard,21.0,0.0,1.0,
35,10.0,decreament,0.6,100.0,standard,21.0,0.0,1.0,
36,10.0,decreament,0.6,100.0,standard,21.0,0.0,1.0,
37,10.0,decreament,0.6,100.0,standard,21.0,0.0,1.0,
38,10.0,decreament,0.6,100.0,standard,21.0,0.0,1.0,
39,10.0,decreament,0.6,100.0,standard,21.0,0.0,1.0,
40,10.0,decreament,0.6,100.0,standard,21.0,0.0,1.0,
41,10.0,decreament,0.48,80.0,oddball,24.0,0.0,0.0,
42,10.0,decreament,0.6,100.0,standard,21.0,0.0,1.0,
43,10.0,decreament,0.6,100.0,standard,21.0,0.0,1.0,
44,10.0,decreament,0.6,100.0,standard,21.0,0.0,1.0,
45,10.0,decreament,0.6,100.0,standard,21.0,0.0,1.0,
46,10.0,decreament,0.6,100.0,standard,21.0,0.0,1.0,
47,10.0,decreament,0.6,100.0,standard,21.0,0.0,1.0,
48,10.0,decreament,0.6,100.0,standard,21.0,0.0,1.0,
49,10.0,decreament,0.6,100.0,standard,21.0,0.0,1.0,
50,10.0,decreament,0.36,60.0,oddball,23.0,0.0,1.0,0.7771112001501024
51,10.0,decreament,0.6,100.0,standard,21.0,0.0,1.0,
52,10.0,decreament,0.6,100.0,standard,21.0,0.0,1.0,
53,10.0,decreament,0.6,100.0,standard,21.0,0.0,1.0,
54,10.0,decreament,0.6,100.0,standard,21.0,0.0,1.0,
55,10.0,decreament,0.24,40.0,oddball,22.0,0.0,1.0,0.8014330002479255
56,10.0,decreament,0.6,100.0,standard,21.0,0.0,1.0,
57,10.0,decreament,0.6,100.0,standard,21.0,0.0,1.0,
58,10.0,decreament,0.6,100.0,standard,21.0,0.0,1.0,
59,10.0,decreament,0.6,100.0,standard,21.0,0.0,1.0,
60,10.0,increament,0.6,100.0,standard,25.0,0.0,1.0,
61,10.0,increament,0.6,100.0,standard,25.0,0.0,1.0,
62,10.0,increament,0.6,100.0,standard,25.0,0.0,1.0,
63,10.0,increament,0.6,100.0,standard,25.0,0.0,1.0,
64,10.0,increament,0.6,100.0,standard,25.0,0.0,1.0,
65,10.0,increament,0.84,140.0,oddball,27.0,0.0,1.0,0.7817723001353443
66,10.0,increament,0.6,100.0,standard,25.0,0.0,1.0,
67,10.0,increament,0.6,100.0,standard,25.0,0.0,1.0,
68,10.0,increament,0.6,100.0,standard,25.0,0.0,1.0,
69,10.0,increament,0.6,100.0,standard,25.0,0.0,1.0,
70,10.0,increament,0.6,100.0,standard,25.0,0.0,1.0,
71,10.0,increament,0.6,100.0,standard,25.0,0.0,1.0,
72,10.0,increament,0.6,100.0,standard,25.0,0.0,1.0,
73,10.0,increament,0.6,100.0,standard,25.0,0.0,1.0,
74,10.0,increament,0.6,100.0,standard,25.0,0.0,1.0,
75,10.0,increament,0.72,120.0,oddball,26.0,0.0,1.0,0.567603399977088
76,10.0,increament,0.6,100.0,standard,25.0,0.0,1.0,
77,10.0,increament,0.6,100.0,standard,25.0,0.0,1.0,
78,10.0,increament,0.6,100.0,standard,25.0,0.0,1.0,
79,10.0,increament,0.6,100.0,standard,25.0,0.0,1.0,
80,10.0,increament,0.6,100.0,standard,25.0,0.0,1.0,
81,10.0,increament,0.6,100.0,standard,25.0,0.0,1.0,
82,10.0,increament,0.6,100.0,standard,25.0,0.0,1.0,
83,10.0,increament,0.6,100.0,standard,25.0,0.0,0.0,0.4532808000221848
84,10.0,increament,0.6,100.0,standard,25.0,0.0,1.0,
85,10.0,increament,0.6,100.0,standard,25.0,0.0,1.0,
86,10.0,increament,0.6,100.0,standard,25.0,0.0,1.0,
87,10.0,increament,0.6,100.0,standard,25.0,0.0,1.0,
88,10.0,increament,0.6,100.0,standard,25.0,0.0,1.0,
89,10.0,increament,0.96,160.0,oddball,28.0,0.0,1.0,0.2007190999574959
90,10.0,decreament,0.6,100.0,standard,21.0,0.0,1.0,
91,10.0,decreament,0.6,100.0,standard,21.0,0.0,1.0,
92,10.0,decreament,0.6,100.0,standard,21.0,0.0,1.0,
93,10.0,decreament,0.6,100.0,standard,21.0,0.0,1.0,
94,10.0,decreament,0.6,100.0,standard,21.0,0.0,1.0,
95,10.0,decreament,0.6,100.0,standard,21.0,0.0,1.0,
96,10.0,decreament,0.24,40.0,oddball,22.0,0.0,1.0,0.8640387002378702
97,10.0,decreament,0.6,100.0,standard,21.0,0.0,1.0,
98,10.0,decreament,0.6,100.0,standard,21.0,0.0,1.0,
99,10.0,decreament,0.6,100.0,standard,21.0,0.0,1.0,
100,10.0,decreament,0.6,100.0,standard,21.0,0.0,1.0,
101,10.0,decreament,0.6,100.0,standard,21.0,0.0,1.0,
102,10.0,decreament,0.6,100.0,standard,21.0,0.0,1.0,
103,10.0,decreament,0.6,100.0,standard,21.0,0.0,1.0,
104,10.0,decreament,0.48,80.0,oddball,24.0,0.0,1.0,1.0621168999932706
105,10.0,decreament,0.6,100.0,standard,21.0,0.0,0.0,0.5863260999321938
106,10.0,decreament,0.6,100.0,standard,21.0,0.0,1.0,
107,10.0,decreament,0.6,100.0,standard,21.0,0.0,1.0,
108,10.0,decreament,0.6,100.0,standard,21.0,0.0,1.0,
109,10.0,decreament,0.6,100.0,standard,21.0,0.0,1.0,
110,10.0,decreament,0.36,60.0,oddball,23.0,0.0,1.0,0.7261047000065446
111,10.0,decreament,0.6,100.0,standard,21.0,0.0,1.0,
112,10.0,decreament,0.6,100.0,standard,21.0,0.0,1.0,
113,10.0,decreament,0.6,100.0,standard,21.0,0.0,1.0,
114,10.0,decreament,0.6,100.0,standard,21.0,0.0,1.0,
115,10.0,decreament,0.6,100.0,standard,21.0,0.0,1.0,
116,10.0,decreament,0.6,100.0,standard,21.0,0.0,1.0,
117,10.0,decreament,0.6,100.0,standard,21.0,0.0,1.0,
118,10.0,decreament,0.6,100.0,standard,21.0,0.0,1.0,
119,10.0,decreament,0.6,100.0,standard,21.0,0.0,1.0,
120,10.0,increament,0.6,100.0,standard,25.0,0.0,1.0,
121,10.0,increament,0.6,100.0,standard,25.0,0.0,1.0,
122,10.0,increament,0.6,100.0,standard,25.0,0.0,1.0,
123,10.0,increament,0.6,100.0,standard,25.0,0.0,1.0,
124,10.0,increament,0.6,100.0,standard,25.0,0.0,1.0,
125,10.0,increament,0.6,100.0,standard,25.0,0.0,1.0,
126,10.0,increament,0.96,160.0,oddball,28.0,0.0,1.0,0.4217567997984588
127,10.0,increament,0.6,100.0,standard,25.0,0.0,1.0,
128,10.0,increament,0.6,100.0,standard,25.0,0.0,1.0,
129,10.0,increament,0.6,100.0,standard,25.0,0.0,1.0,
130,10.0,increament,0.6,100.0,standard,25.0,0.0,1.0,
131,10.0,increament,0.72,120.0,oddball,26.0,0.0,0.0,
132,10.0,increament,0.6,100.0,standard,25.0,0.0,1.0,
133,10.0,increament,0.6,100.0,standard,25.0,0.0,1.0,
134,10.0,increament,0.6,100.0,standard,25.0,0.0,1.0,
135,10.0,increament,0.6,100.0,standard,25.0,0.0,1.0,
136,10.0,increament,0.6,100.0,standard,25.0,0.0,1.0,
137,10.0,increament,0.6,100.0,standard,25.0,0.0,1.0,
138,10.0,increament,0.6,100.0,standard,25.0,0.0,1.0,
139,10.0,increament,0.6,100.0,standard,25.0,0.0,1.0,
140,10.0,increament,0.6,100.0,standard,25.0,0.0,1.0,
141,10.0,increament,0.6,100.0,standard,25.0,0.0,1.0,
142,10.0,increament,0.6,100.0,standard,25.0,0.0,1.0,
143,10.0,increament,0.6,100.0,standard,25.0,0.0,1.0,
144,10.0,increament,0.6,100.0,standard,25.0,0.0,1.0,
145,10.0,increament,0.6,100.0,standard,25.0,0.0,1.0,
146,10.0,increament,0.6,100.0,standard,25.0,0.0,1.0,
147,10.0,increament,0.6,100.0,standard,25.0,0.0,1.0,
148,10.0,increament,0.6,100.0,standard,25.0,0.0,1.0,
149,10.0,increament,0.84,140.0,oddball,27.0,0.0,1.0,0.273213000036776
150,10.0,decreament,0.6,100.0,standard,21.0,0.0,1.0,
151,10.0,decreament,0.6,100.0,standard,21.0,0.0,1.0,
152,10.0,decreament,0.6,100.0,standard,21.0,0.0,1.0,
153,10.0,decreament,0.6,100.0,standard,21.0,0.0,1.0,
154,10.0,decreament,0.6,100.0,standard,21.0,0.0,1.0,
155,10.0,decreament,0.6,100.0,standard,21.0,0.0,1.0,
156,10.0,decreament,0.6,100.0,standard,21.0,0.0,1.0,
157,10.0,decreament,0.48,80.0,oddball,24.0,0.0,1.0,0.8283803001977503
158,10.0,decreament,0.6,100.0,standard,21.0,0.0,1.0,
159,10.0,decreament,0.6,100.0,standard,21.0,0.0,1.0,
160,10.0,decreament,0.6,100.0,standard,21.0,0.0,1.0,
161,10.0,decreament,0.6,100.0,standard,21.0,0.0,1.0,
162,10.0,decreament,0.6,100.0,standard,21.0,0.0,1.0,
163,10.0,decreament,0.36,60.0,oddball,23.0,0.0,0.0,
164,10.0,decreament,0.6,100.0,standard,21.0,0.0,1.0,
165,10.0,decreament,0.6,100.0,standard,21.0,0.0,1.0,
166,10.0,decreament,0.6,100.0,standard,21.0,0.0,1.0,
167,10.0,decreament,0.6,100.0,standard,21.0,0.0,1.0,
168,10.0,decreament,0.6,100.0,standard,21.0,0.0,1.0,
169,10.0,decreament,0.6,100.0,standard,21.0,0.0,1.0,
170,10.0,decreament,0.6,100.0,standard,21.0,0.0,1.0,
171,10.0,decreament,0.6,100.0,standard,21.0,0.0,1.0,
172,10.0,decreament,0.6,100.0,standard,21.0,0.0,1.0,
173,10.0,decreament,0.6,100.0,standard,21.0,0.0,1.0,
174,10.0,decreament,0.6,100.0,standard,21.0,0.0,1.0,
175,10.0,decreament,0.6,100.0,standard,21.0,0.0,1.0,
176,10.0,decreament,0.6,100.0,standard,21.0,0.0,1.0,
177,10.0,decreament,0.6,100.0,standard,21.0,0.0,1.0,
178,10.0,decreament,0.24,40.0,oddball,22.0,0.0,1.0,0.6075963997282088
179,10.0,decreament,0.6,100.0,standard,21.0,0.0,1.0,
180,10.0,increament,0.6,100.0,standard,25.0,0.0,1.0,
181,10.0,increament,0.6,100.0,standard,25.0,0.0,1.0,
182,10.0,increament,0.6,100.0,standard,25.0,0.0,1.0,
183,10.0,increament,0.6,100.0,standard,25.0,0.0,1.0,
184,10.0,increament,0.6,100.0,standard,25.0,0.0,1.0,
185,10.0,increament,0.6,100.0,standard,25.0,0.0,1.0,
186,10.0,increament,0.6,100.0,standard,25.0,0.0,1.0,
187,10.0,increament,0.6,100.0,standard,25.0,0.0,1.0,
188,10.0,increament,0.6,100.0,standard,25.0,0.0,1.0,
189,10.0,increament,0.6,100.0,standard,25.0,0.0,1.0,
190,10.0,increament,0.6,100.0,standard,25.0,0.0,1.0,
191,10.0,increament,0.6,100.0,standard,25.0,0.0,1.0,
192,10.0,increament,0.6,100.0,standard,25.0,0.0,1.0,
193,10.0,increament,0.6,100.0,standard,25.0,0.0,1.0,
194,10.0,increament,0.6,100.0,standard,25.0,0.0,1.0,
195,10.0,increament,0.6,100.0,standard,25.0,0.0,1.0,
196,10.0,increament,0.6,100.0,standard,25.0,0.0,1.0,
197,10.0,increament,0.6,100.0,standard,25.0,0.0,1.0,
198,10.0,increament,0.84,140.0,oddball,27.0,0.0,0.0,
199,10.0,increament,0.6,100.0,standard,25.0,0.0,1.0,
200,10.0,increament,0.6,100.0,standard,25.0,0.0,1.0,
201,10.0,increament,0.6,100.0,standard,25.0,0.0,1.0,
202,10.0,increament,0.96,160.0,oddball,28.0,0.0,1.0,0.6309656999073923
203,10.0,increament,0.6,100.0,standard,25.0,0.0,1.0,
204,10.0,increament,0.6,100.0,standard,25.0,0.0,1.0,
205,10.0,increament,0.6,100.0,standard,25.0,0.0,1.0,
206,10.0,increament,0.6,100.0,standard,25.0,0.0,1.0,
207,10.0,increament,0.6,100.0,standard,25.0,0.0,1.0,
208,10.0,increament,0.72,120.0,oddball,26.0,0.0,0.0,
209,10.0,increament,0.6,100.0,standard,25.0,0.0,1.0,
210,10.0,decreament,0.6,100.0,standard,21.0,0.0,1.0,
211,10.0,decreament,0.6,100.0,standard,21.0,0.0,1.0,
212,10.0,decreament,0.6,100.0,standard,21.0,0.0,1.0,
213,10.0,decreament,0.6,100.0,standard,21.0,0.0,1.0,
214,10.0,decreament,0.6,100.0,standard,21.0,0.0,1.0,
215,10.0,decreament,0.6,100.0,standard,21.0,0.0,1.0,
216,10.0,decreament,0.24,40.0,oddball,22.0,0.0,1.0,0.8405622998252511
217,10.0,decreament,0.6,100.0,standard,21.0,0.0,1.0,
218,10.0,decreament,0.6,100.0,standard,21.0,0.0,1.0,
219,10.0,decreament,0.6,100.0,standard,21.0,0.0,1.0,
220,10.0,decreament,0.6,100.0,standard,21.0,0.0,1.0,
221,10.0,decreament,0.6,100.0,standard,21.0,0.0,1.0,
222,10.0,decreament,0.6,100.0,standard,21.0,0.0,1.0,
223,10.0,decreament,0.36,60.0,oddball,23.0,0.0,1.0,0.8034566999413073
224,10.0,decreament,0.6,100.0,standard,21.0,0.0,1.0,
225,10.0,decreament,0.6,100.0,standard,21.0,0.0,1.0,
226,10.0,decreament,0.6,100.0,standard,21.0,0.0,1.0,
227,10.0,decreament,0.6,100.0,standard,21.0,0.0,1.0,
228,10.0,decreament,0.6,100.0,standard,21.0,0.0,1.0,
229,10.0,decreament,0.6,100.0,standard,21.0,0.0,1.0,
230,10.0,decreament,0.6,100.0,standard,21.0,0.0,1.0,
231,10.0,decreament,0.6,100.0,standard,21.0,0.0,1.0,
232,10.0,decreament,0.6,100.0,standard,21.0,0.0,1.0,
233,10.0,decreament,0.48,80.0,oddball,24.0,0.0,0.0,
234,10.0,decreament,0.6,100.0,standard,21.0,0.0,1.0,
235,10.0,decreament,0.6,100.0,standard,21.0,0.0,1.0,
236,10.0,decreament,0.6,100.0,standard,21.0,0.0,1.0,
237,10.0,decreament,0.6,100.0,standard,21.0,0.0,1.0,
238,10.0,decreament,0.6,100.0,standard,21.0,0.0,1.0,
239,10.0,decreament,0.6,100.0,standard,21.0,0.0,1.0,
240,10.0,increament,0.6,100.0,standard,25.0,0.0,1.0,
241,10.0,increament,0.6,100.0,standard,25.0,0.0,1.0,
242,10.0,increament,0.6,100.0,standard,25.0,0.0,1.0,
243,10.0,increament,0.6,100.0,standard,25.0,0.0,1.0,
244,10.0,increament,0.6,100.0,standard,25.0,0.0,1.0,
245,10.0,increament,0.6,100.0,standard,25.0,0.0,1.0,
246,10.0,increament,0.6,100.0,standard,25.0,0.0,1.0,
247,10.0,increament,0.6,100.0,standard,25.0,0.0,1.0,
248,10.0,increament,0.6,100.0,standard,25.0,0.0,1.0,
249,10.0,increament,0.6,100.0,standard,25.0,0.0,1.0,
250,10.0,increament,0.6,100.0,standard,25.0,0.0,1.0,
251,10.0,increament,0.6,100.0,standard,25.0,0.0,1.0,
252,10.0,increament,0.6,100.0,standard,25.0,0.0,1.0,
253,10.0,increament,0.6,100.0,standard,25.0,0.0,1.0,
254,10.0,increament,0.6,100.0,standard,25.0,0.0,1.0,
255,10.0,increament,0.6,100.0,standard,25.0,0.0,1.0,
256,10.0,increament,0.84,140.0,oddball,27.0,0.0,0.0,
257,10.0,increament,0.6,100.0,standard,25.0,0.0,1.0,
258,10.0,increament,0.6,100.0,standard,25.0,0.0,1.0,
259,10.0,increament,0.6,100.0,standard,25.0,0.0,1.0,
260,10.0,increament,0.72,120.0,oddball,26.0,0.0,0.0,
261,10.0,increament,0.6,100.0,standard,25.0,0.0,1.0,
262,10.0,increament,0.6,100.0,standard,25.0,0.0,1.0,
263,10.0,increament,0.6,100.0,standard,25.0,0.0,1.0,
264,10.0,increament,0.6,100.0,standard,25.0,0.0,1.0,
265,10.0,increament,0.6,100.0,standard,25.0,0.0,1.0,
266,10.0,increament,0.6,100.0,standard,25.0,0.0,1.0,
267,10.0,increament,0.6,100.0,standard,25.0,0.0,1.0,
268,10.0,increament,0.96,160.0,oddball,28.0,0.0,0.0,
269,10.0,increament,0.6,100.0,standard,25.0,0.0,1.0,
270,10.0,decreament,0.6,100.0,standard,21.0,0.0,1.0,
271,10.0,decreament,0.6,100.0,standard,21.0,0.0,1.0,
272,10.0,decreament,0.6,100.0,standard,21.0,0.0,1.0,
273,10.0,decreament,0.6,100.0,standard,21.0,0.0,1.0,
274,10.0,decreament,0.6,100.0,standard,21.0,0.0,1.0,
275,10.0,decreament,0.6,100.0,standard,21.0,0.0,1.0,
276,10.0,decreament,0.6,100.0,standard,21.0,0.0,1.0,
277,10.0,decreament,0.6,100.0,standard,21.0,0.0,1.0,
278,10.0,decreament,0.36,60.0,oddball,23.0,0.0,1.0,1.1367542003281417
279,10.0,decreament,0.6,100.0,standard,21.0,0.0,1.0,
280,10.0,decreament,0.6,100.0,standard,21.0,0.0,1.0,
281,10.0,decreament,0.6,100.0,standard,21.0,0.0,1.0,
282,10.0,decreament,0.6,100.0,standard,21.0,0.0,1.0,
283,10.0,decreament,0.6,100.0,standard,21.0,0.0,1.0,
284,10.0,decreament,0.6,100.0,standard,21.0,0.0,1.0,
285,10.0,decreament,0.6,100.0,standard,21.0,0.0,1.0,
286,10.0,decreament,0.6,100.0,standard,21.0,0.0,1.0,
287,10.0,decreament,0.48,80.0,oddball,24.0,0.0,0.0,
288,10.0,decreament,0.6,100.0,standard,21.0,0.0,1.0,
289,10.0,decreament,0.6,100.0,standard,21.0,0.0,1.0,
290,10.0,decreament,0.6,100.0,standard,21.0,0.0,1.0,
291,10.0,decreament,0.6,100.0,standard,21.0,0.0,1.0,
292,10.0,decreament,0.6,100.0,standard,21.0,0.0,1.0,
293,10.0,decreament,0.6,100.0,standard,21.0,0.0,1.0,
294,10.0,decreament,0.6,100.0,standard,21.0,0.0,1.0,
295,10.0,decreament,0.6,100.0,standard,21.0,0.0,1.0,
296,10.0,decreament,0.6,100.0,standard,21.0,0.0,1.0,
297,10.0,decreament,0.24,40.0,oddball,22.0,0.0,1.0,0.8734184997156262
298,10.0,decreament,0.6,100.0,standard,21.0,0.0,1.0,
299,10.0,decreament,0.6,100.0,standard,21.0,0.0,1.0,
300,5.0,increament,0.6,100.0,standard,15.0,1.0,1.0,
301,5.0,increament,0.6,100.0,standard,15.0,1.0,1.0,
302,5.0,increament,0.6,100.0,standard,15.0,1.0,1.0,
303,5.0,increament,0.6,100.0,standard,15.0,1.0,1.0,
304,5.0,increament,0.6,100.0,standard,15.0,1.0,1.0,
305,5.0,increament,0.6,100.0,standard,15.0,1.0,1.0,
306,5.0,increament,0.6,100.0,standard,15.0,1.0,1.0,
307,5.0,increament,0.72,120.0,oddball,16.0,1.0,0.0,
308,5.0,increament,0.6,100.0,standard,15.0,1.0,1.0,
309,5.0,increament,0.6,100.0,standard,15.0,1.0,1.0,
310,5.0,increament,0.6,100.0,standard,15.0,1.0,1.0,
311,5.0,increament,0.6,100.0,standard,15.0,1.0,1.0,
312,5.0,increament,0.6,100.0,standard,15.0,1.0,1.0,
313,5.0,increament,0.6,100.0,standard,15.0,1.0,1.0,
314,5.0,increament,0.6,100.0,standard,15.0,1.0,1.0,
315,5.0,increament,0.6,100.0,standard,15.0,1.0,1.0,
316,5.0,increament,0.6,100.0,standard,15.0,1.0,1.0,
317,5.0,increament,0.6,100.0,standard,15.0,1.0,1.0,
318,5.0,increament,0.6,100.0,standard,15.0,1.0,1.0,
319,5.0,increament,0.6,100.0,standard,15.0,1.0,1.0,
320,5.0,increament,0.84,140.0,oddball,17.0,1.0,1.0,0.57494099996984
321,5.0,increament,0.6,100.0,standard,15.0,1.0,1.0,
322,5.0,increament,0.6,100.0,standard,15.0,1.0,1.0,
323,5.0,increament,0.6,100.0,standard,15.0,1.0,1.0,
324,5.0,increament,0.6,100.0,standard,15.0,1.0,1.0,
325,5.0,increament,0.6,100.0,standard,15.0,1.0,1.0,
326,5.0,increament,0.6,100.0,standard,15.0,1.0,1.0,
327,5.0,increament,0.6,100.0,standard,15.0,1.0,1.0,
328,5.0,increament,0.6,100.0,standard,15.0,1.0,1.0,
329,5.0,increament,0.96,160.0,oddball,18.0,1.0,0.0,
330,5.0,decreament,0.6,100.0,standard,11.0,1.0,1.0,
331,5.0,decreament,0.6,100.0,standard,11.0,1.0,1.0,
332,5.0,decreament,0.6,100.0,standard,11.0,1.0,1.0,
333,5.0,decreament,0.6,100.0,standard,11.0,1.0,1.0,
334,5.0,decreament,0.6,100.0,standard,11.0,1.0,1.0,
335,5.0,decreament,0.6,100.0,standard,11.0,1.0,1.0,
336,5.0,decreament,0.6,100.0,standard,11.0,1.0,1.0,
337,5.0,decreament,0.6,100.0,standard,11.0,1.0,1.0,
338,5.0,decreament,0.6,100.0,standard,11.0,1.0,1.0,
339,5.0,decreament,0.6,100.0,standard,11.0,1.0,1.0,
340,5.0,decreament,0.6,100.0,standard,11.0,1.0,1.0,
341,5.0,decreament,0.6,100.0,standard,11.0,1.0,1.0,
342,5.0,decreament,0.24,40.0,oddball,12.0,1.0,1.0,0.8892978001385927
343,5.0,decreament,0.6,100.0,standard,11.0,1.0,1.0,
344,5.0,decreament,0.6,100.0,standard,11.0,1.0,1.0,
345,5.0,decreament,0.6,100.0,standard,11.0,1.0,1.0,
346,5.0,decreament,0.6,100.0,standard,11.0,1.0,1.0,
347,5.0,decreament,0.36,60.0,oddball,13.0,1.0,1.0,0.8527687001042068
348,5.0,decreament,0.6,100.0,standard,11.0,1.0,1.0,
349,5.0,decreament,0.6,100.0,standard,11.0,1.0,1.0,
350,5.0,decreament,0.6,100.0,standard,11.0,1.0,1.0,
351,5.0,decreament,0.6,100.0,standard,11.0,1.0,1.0,
352,5.0,decreament,0.6,100.0,standard,11.0,1.0,1.0,
353,5.0,decreament,0.6,100.0,standard,11.0,1.0,1.0,
354,5.0,decreament,0.48,80.0,oddball,14.0,1.0,1.0,1.055731600150466
355,5.0,decreament,0.6,100.0,standard,11.0,1.0,1.0,
356,5.0,decreament,0.6,100.0,standard,11.0,1.0,1.0,
357,5.0,decreament,0.6,100.0,standard,11.0,1.0,1.0,
358,5.0,decreament,0.6,100.0,standard,11.0,1.0,1.0,
359,5.0,decreament,0.6,100.0,standard,11.0,1.0,1.0,
360,5.0,increament,0.6,100.0,standard,15.0,1.0,1.0,
361,5.0,increament,0.6,100.0,standard,15.0,1.0,1.0,
362,5.0,increament,0.6,100.0,standard,15.0,1.0,1.0,
363,5.0,increament,0.6,100.0,standard,15.0,1.0,1.0,
364,5.0,increament,0.6,100.0,standard,15.0,1.0,1.0,
365,5.0,increament,0.6,100.0,standard,15.0,1.0,1.0,
366,5.0,increament,0.6,100.0,standard,15.0,1.0,1.0,
367,5.0,increament,0.6,100.0,standard,15.0,1.0,1.0,
368,5.0,increament,0.6,100.0,standard,15.0,1.0,1.0,
369,5.0,increament,0.84,140.0,oddball,17.0,1.0,0.0,
370,5.0,increament,0.6,100.0,standard,15.0,1.0,1.0,
371,5.0,increament,0.6,100.0,standard,15.0,1.0,1.0,
372,5.0,increament,0.6,100.0,standard,15.0,1.0,1.0,
373,5.0,increament,0.6,100.0,standard,15.0,1.0,1.0,
374,5.0,increament,0.72,120.0,oddball,16.0,1.0,1.0,0.8496274999342859
375,5.0,increament,0.6,100.0,standard,15.0,1.0,1.0,
376,5.0,increament,0.6,100.0,standard,15.0,1.0,1.0,
377,5.0,increament,0.6,100.0,standard,15.0,1.0,1.0,
378,5.0,increament,0.6,100.0,standard,15.0,1.0,1.0,
379,5.0,increament,0.6,100.0,standard,15.0,1.0,1.0,
380,5.0,increament,0.6,100.0,standard,15.0,1.0,1.0,
381,5.0,increament,0.96,160.0,oddball,18.0,1.0,1.0,1.3617373001761734
382,5.0,increament,0.6,100.0,standard,15.0,1.0,1.0,
383,5.0,increament,0.6,100.0,standard,15.0,1.0,1.0,
384,5.0,increament,0.6,100.0,standard,15.0,1.0,1.0,
385,5.0,increament,0.6,100.0,standard,15.0,1.0,1.0,
386,5.0,increament,0.6,100.0,standard,15.0,1.0,1.0,
387,5.0,increament,0.6,100.0,standard,15.0,1.0,1.0,
388,5.0,increament,0.6,100.0,standard,15.0,1.0,1.0,
389,5.0,increament,0.6,100.0,standard,15.0,1.0,1.0,
390,5.0,decreament,0.6,100.0,standard,11.0,1.0,1.0,
391,5.0,decreament,0.6,100.0,standard,11.0,1.0,1.0,
392,5.0,decreament,0.6,100.0,standard,11.0,1.0,1.0,
393,5.0,decreament,0.6,100.0,standard,11.0,1.0,1.0,
394,5.0,decreament,0.6,100.0,standard,11.0,1.0,1.0,
395,5.0,decreament,0.6,100.0,standard,11.0,1.0,1.0,
396,5.0,decreament,0.6,100.0,standard,11.0,1.0,1.0,
397,5.0,decreament,0.6,100.0,standard,11.0,1.0,1.0,
398,5.0,decreament,0.6,100.0,standard,11.0,1.0,1.0,
399,5.0,decreament,0.6,100.0,standard,11.0,1.0,1.0,
400,5.0,decreament,0.6,100.0,standard,11.0,1.0,1.0,
401,5.0,decreament,0.6,100.0,standard,11.0,1.0,1.0,
402,5.0,decreament,0.6,100.0,standard,11.0,1.0,1.0,
403,5.0,decreament,0.36,60.0,oddball,13.0,1.0,1.0,0.9712139996699988
404,5.0,decreament,0.6,100.0,standard,11.0,1.0,1.0,
405,5.0,decreament,0.6,100.0,standard,11.0,1.0,1.0,
406,5.0,decreament,0.6,100.0,standard,11.0,1.0,1.0,
407,5.0,decreament,0.6,100.0,standard,11.0,1.0,1.0,
408,5.0,decreament,0.24,40.0,oddball,12.0,1.0,1.0,0.7706014001742005
409,5.0,decreament,0.6,100.0,standard,11.0,1.0,1.0,
410,5.0,decreament,0.6,100.0,standard,11.0,1.0,1.0,
411,5.0,decreament,0.6,100.0,standard,11.0,1.0,1.0,
412,5.0,decreament,0.6,100.0,standard,11.0,1.0,1.0,
413,5.0,decreament,0.48,80.0,oddball,14.0,1.0,0.0,
414,5.0,decreament,0.6,100.0,standard,11.0,1.0,1.0,
415,5.0,decreament,0.6,100.0,standard,11.0,1.0,1.0,
416,5.0,decreament,0.6,100.0,standard,11.0,1.0,1.0,
417,5.0,decreament,0.6,100.0,standard,11.0,1.0,1.0,
418,5.0,decreament,0.6,100.0,standard,11.0,1.0,1.0,
419,5.0,decreament,0.6,100.0,standard,11.0,1.0,1.0,
420,5.0,increament,0.6,100.0,standard,15.0,1.0,1.0,
421,5.0,increament,0.6,100.0,standard,15.0,1.0,1.0,
422,5.0,increament,0.6,100.0,standard,15.0,1.0,1.0,
423,5.0,increament,0.6,100.0,standard,15.0,1.0,1.0,
424,5.0,increament,0.6,100.0,standard,15.0,1.0,1.0,
425,5.0,increament,0.6,100.0,standard,15.0,1.0,1.0,
426,5.0,increament,0.6,100.0,standard,15.0,1.0,1.0,
427,5.0,increament,0.6,100.0,standard,15.0,1.0,1.0,
428,5.0,increament,0.6,100.0,standard,15.0,1.0,1.0,
429,5.0,increament,0.6,100.0,standard,15.0,1.0,1.0,
430,5.0,increament,0.6,100.0,standard,15.0,1.0,1.0,
431,5.0,increament,0.6,100.0,standard,15.0,1.0,1.0,
432,5.0,increament,0.6,100.0,standard,15.0,1.0,1.0,
433,5.0,increament,0.6,100.0,standard,15.0,1.0,1.0,
434,5.0,increament,0.6,100.0,standard,15.0,1.0,1.0,
435,5.0,increament,0.6,100.0,standard,15.0,1.0,1.0,
436,5.0,increament,0.6,100.0,standard,15.0,1.0,1.0,
437,5.0,increament,0.6,100.0,standard,15.0,1.0,1.0,
438,5.0,increament,0.96,160.0,oddball,18.0,1.0,1.0,0.7161727002821863
439,5.0,increament,0.6,100.0,standard,15.0,1.0,1.0,
440,5.0,increament,0.6,100.0,standard,15.0,1.0,1.0,
441,5.0,increament,0.6,100.0,standard,15.0,1.0,1.0,
442,5.0,increament,0.6,100.0,standard,15.0,1.0,1.0,
443,5.0,increament,0.84,140.0,oddball,17.0,1.0,0.0,
444,5.0,increament,0.6,100.0,standard,15.0,1.0,1.0,
445,5.0,increament,0.6,100.0,standard,15.0,1.0,1.0,
446,5.0,increament,0.6,100.0,standard,15.0,1.0,1.0,
447,5.0,increament,0.72,120.0,oddball,16.0,1.0,0.0,
448,5.0,increament,0.6,100.0,standard,15.0,1.0,1.0,
449,5.0,increament,0.6,100.0,standard,15.0,1.0,1.0,
450,5.0,decreament,0.6,100.0,standard,11.0,1.0,1.0,
451,5.0,decreament,0.6,100.0,standard,11.0,1.0,1.0,
452,5.0,decreament,0.6,100.0,standard,11.0,1.0,1.0,
453,5.0,decreament,0.6,100.0,standard,11.0,1.0,1.0,
454,5.0,decreament,0.6,100.0,standard,11.0,1.0,1.0,
455,5.0,decreament,0.6,100.0,standard,11.0,1.0,1.0,
456,5.0,decreament,0.6,100.0,standard,11.0,1.0,1.0,
457,5.0,decreament,0.6,100.0,standard,11.0,1.0,0.0,1.455489999614656
458,5.0,decreament,0.6,100.0,standard,11.0,1.0,1.0,
459,5.0,decreament,0.6,100.0,standard,11.0,1.0,1.0,
460,5.0,decreament,0.48,80.0,oddball,14.0,1.0,0.0,
461,5.0,decreament,0.6,100.0,standard,11.0,1.0,1.0,
462,5.0,decreament,0.6,100.0,standard,11.0,1.0,1.0,
463,5.0,decreament,0.6,100.0,standard,11.0,1.0,1.0,
464,5.0,decreament,0.6,100.0,standard,11.0,1.0,1.0,
465,5.0,decreament,0.6,100.0,standard,11.0,1.0,1.0,
466,5.0,decreament,0.36,60.0,oddball,13.0,1.0,0.0,
467,5.0,decreament,0.6,100.0,standard,11.0,1.0,1.0,
468,5.0,decreament,0.6,100.0,standard,11.0,1.0,1.0,
469,5.0,decreament,0.6,100.0,standard,11.0,1.0,1.0,
470,5.0,decreament,0.6,100.0,standard,11.0,1.0,1.0,
471,5.0,decreament,0.6,100.0,standard,11.0,1.0,1.0,
472,5.0,decreament,0.24,40.0,oddball,12.0,1.0,1.0,0.7178429001942277
473,5.0,decreament,0.6,100.0,standard,11.0,1.0,1.0,
474,5.0,decreament,0.6,100.0,standard,11.0,1.0,1.0,
475,5.0,decreament,0.6,100.0,standard,11.0,1.0,1.0,
476,5.0,decreament,0.6,100.0,standard,11.0,1.0,1.0,
477,5.0,decreament,0.6,100.0,standard,11.0,1.0,1.0,
478,5.0,decreament,0.6,100.0,standard,11.0,1.0,1.0,
479,5.0,decreament,0.6,100.0,standard,11.0,1.0,1.0,
480,5.0,increament,0.6,100.0,standard,15.0,1.0,1.0,
481,5.0,increament,0.6,100.0,standard,15.0,1.0,1.0,
482,5.0,increament,0.6,100.0,standard,15.0,1.0,1.0,
483,5.0,increament,0.6,100.0,standard,15.0,1.0,1.0,
484,5.0,increament,0.6,100.0,standard,15.0,1.0,1.0,
485,5.0,increament,0.6,100.0,standard,15.0,1.0,1.0,
486,5.0,increament,0.6,100.0,standard,15.0,1.0,1.0,
487,5.0,increament,0.6,100.0,standard,15.0,1.0,1.0,
488,5.0,increament,0.96,160.0,oddball,18.0,1.0,0.0,
489,5.0,increament,0.6,100.0,standard,15.0,1.0,1.0,
490,5.0,increament,0.6,100.0,standard,15.0,1.0,1.0,
491,5.0,increament,0.6,100.0,standard,15.0,1.0,1.0,
492,5.0,increament,0.6,100.0,standard,15.0,1.0,1.0,
493,5.0,increament,0.6,100.0,standard,15.0,1.0,1.0,
494,5.0,increament,0.6,100.0,standard,15.0,1.0,1.0,
495,5.0,increament,0.6,100.0,standard,15.0,1.0,1.0,
496,5.0,increament,0.84,140.0,oddball,17.0,1.0,1.0,0.752237600274384
497,5.0,increament,0.6,100.0,standard,15.0,1.0,1.0,
498,5.0,increament,0.6,100.0,standard,15.0,1.0,1.0,
499,5.0,increament,0.6,100.0,standard,15.0,1.0,1.0,
500,5.0,increament,0.6,100.0,standard,15.0,1.0,1.0,
501,5.0,increament,0.6,100.0,standard,15.0,1.0,1.0,
502,5.0,increament,0.6,100.0,standard,15.0,1.0,1.0,
503,5.0,increament,0.6,100.0,standard,15.0,1.0,1.0,
504,5.0,increament,0.6,100.0,standard,15.0,1.0,1.0,
505,5.0,increament,0.6,100.0,standard,15.0,1.0,1.0,
506,5.0,increament,0.6,100.0,standard,15.0,1.0,1.0,
507,5.0,increament,0.6,100.0,standard,15.0,1.0,1.0,
508,5.0,increament,0.6,100.0,standard,15.0,1.0,1.0,
509,5.0,increament,0.72,120.0,oddball,16.0,1.0,1.0,0.8110931003466249
510,5.0,decreament,0.6,100.0,standard,11.0,1.0,1.0,
511,5.0,decreament,0.6,100.0,standard,11.0,1.0,1.0,
512,5.0,decreament,0.6,100.0,standard,11.0,1.0,1.0,
513,5.0,decreament,0.6,100.0,standard,11.0,1.0,1.0,
514,5.0,decreament,0.6,100.0,standard,11.0,1.0,1.0,
515,5.0,decreament,0.6,100.0,standard,11.0,1.0,1.0,
516,5.0,decreament,0.6,100.0,standard,11.0,1.0,1.0,
517,5.0,decreament,0.6,100.0,standard,11.0,1.0,0.0,1.2014020001515746
518,5.0,decreament,0.6,100.0,standard,11.0,1.0,1.0,
519,5.0,decreament,0.6,100.0,standard,11.0,1.0,1.0,
520,5.0,decreament,0.6,100.0,standard,11.0,1.0,1.0,
521,5.0,decreament,0.36,60.0,oddball,13.0,1.0,1.0,1.1469827997498214
522,5.0,decreament,0.6,100.0,standard,11.0,1.0,1.0,
523,5.0,decreament,0.6,100.0,standard,11.0,1.0,1.0,
524,5.0,decreament,0.6,100.0,standard,11.0,1.0,1.0,
525,5.0,decreament,0.24,40.0,oddball,12.0,1.0,1.0,1.165347000118345
526,5.0,decreament,0.6,100.0,standard,11.0,1.0,1.0,
527,5.0,decreament,0.6,100.0,standard,11.0,1.0,1.0,
528,5.0,decreament,0.6,100.0,standard,11.0,1.0,1.0,
529,5.0,decreament,0.6,100.0,standard,11.0,1.0,1.0,
530,5.0,decreament,0.6,100.0,standard,11.0,1.0,1.0,
531,5.0,decreament,0.6,100.0,standard,11.0,1.0,1.0,
532,5.0,decreament,0.48,80.0,oddball,14.0,1.0,0.0,
533,5.0,decreament,0.6,100.0,standard,11.0,1.0,1.0,
534,5.0,decreament,0.6,100.0,standard,11.0,1.0,1.0,
535,5.0,decreament,0.6,100.0,standard,11.0,1.0,1.0,
536,5.0,decreament,0.6,100.0,standard,11.0,1.0,1.0,
537,5.0,decreament,0.6,100.0,standard,11.0,1.0,1.0,
538,5.0,decreament,0.6,100.0,standard,11.0,1.0,1.0,
539,5.0,decreament,0.6,100.0,standard,11.0,1.0,0.0,1.2386789000593126
540,5.0,increament,0.6,100.0,standard,15.0,1.0,1.0,
541,5.0,increament,0.6,100.0,standard,15.0,1.0,1.0,
542,5.0,increament,0.6,100.0,standard,15.0,1.0,1.0,
543,5.0,increament,0.6,100.0,standard,15.0,1.0,1.0,
544,5.0,increament,0.6,100.0,standard,15.0,1.0,1.0,
545,5.0,increament,0.6,100.0,standard,15.0,1.0,1.0,
546,5.0,increament,0.6,100.0,standard,15.0,1.0,1.0,
547,5.0,increament,0.6,100.0,standard,15.0,1.0,1.0,
548,5.0,increament,0.96,160.0,oddball,18.0,1.0,1.0,0.346599199809134
549,5.0,increament,0.6,100.0,standard,15.0,1.0,1.0,
550,5.0,increament,0.6,100.0,standard,15.0,1.0,1.0,
551,5.0,increament,0.6,100.0,standard,15.0,1.0,1.0,
552,5.0,increament,0.6,100.0,standard,15.0,1.0,1.0,
553,5.0,increament,0.6,100.0,standard,15.0,1.0,1.0,
554,5.0,increament,0.6,100.0,standard,15.0,1.0,1.0,
555,5.0,increament,0.6,100.0,standard,15.0,1.0,1.0,
556,5.0,increament,0.72,120.0,oddball,16.0,1.0,0.0,
557,5.0,increament,0.6,100.0,standard,15.0,1.0,1.0,
558,5.0,increament,0.6,100.0,standard,15.0,1.0,1.0,
559,5.0,increament,0.6,100.0,standard,15.0,1.0,1.0,
560,5.0,increament,0.6,100.0,standard,15.0,1.0,1.0,
561,5.0,increament,0.6,100.0,standard,15.0,1.0,1.0,
562,5.0,increament,0.6,100.0,standard,15.0,1.0,1.0,
563,5.0,increament,0.6,100.0,standard,15.0,1.0,1.0,
564,5.0,increament,0.6,100.0,standard,15.0,1.0,1.0,
565,5.0,increament,0.6,100.0,standard,15.0,1.0,1.0,
566,5.0,increament,0.84,140.0,oddball,17.0,1.0,0.0,
567,5.0,increament,0.6,100.0,standard,15.0,1.0,1.0,
568,5.0,increament,0.6,100.0,standard,15.0,1.0,1.0,
569,5.0,increament,0.6,100.0,standard,15.0,1.0,1.0,
570,5.0,decreament,0.6,100.0,standard,11.0,1.0,1.0,
571,5.0,decreament,0.6,100.0,standard,11.0,1.0,1.0,
572,5.0,decreament,0.6,100.0,standard,11.0,1.0,1.0,
573,5.0,decreament,0.6,100.0,standard,11.0,1.0,1.0,
574,5.0,decreament,0.6,100.0,standard,11.0,1.0,1.0,
575,5.0,decreament,0.6,100.0,standard,11.0,1.0,1.0,
576,5.0,decreament,0.6,100.0,standard,11.0,1.0,1.0,
577,5.0,decreament,0.6,100.0,standard,11.0,1.0,1.0,
578,5.0,decreament,0.6,100.0,standard,11.0,1.0,1.0,
579,5.0,decreament,0.36,60.0,oddball,13.0,1.0,1.0,0.9491584002971648
580,5.0,decreament,0.6,100.0,standard,11.0,1.0,1.0,
581,5.0,decreament,0.6,100.0,standard,11.0,1.0,1.0,
582,5.0,decreament,0.6,100.0,standard,11.0,1.0,1.0,
583,5.0,decreament,0.6,100.0,standard,11.0,1.0,1.0,
584,5.0,decreament,0.6,100.0,standard,11.0,1.0,1.0,
585,5.0,decreament,0.6,100.0,standard,11.0,1.0,1.0,
586,5.0,decreament,0.6,100.0,standard,11.0,1.0,1.0,
587,5.0,decreament,0.48,80.0,oddball,14.0,1.0,0.0,
588,5.0,decreament,0.6,100.0,standard,11.0,1.0,1.0,
589,5.0,decreament,0.6,100.0,standard,11.0,1.0,1.0,
590,5.0,decreament,0.6,100.0,standard,11.0,1.0,1.0,
591,5.0,decreament,0.6,100.0,standard,11.0,1.0,1.0,
592,5.0,decreament,0.6,100.0,standard,11.0,1.0,1.0,
593,5.0,decreament,0.6,100.0,standard,11.0,1.0,1.0,
594,5.0,decreament,0.6,100.0,standard,11.0,1.0,1.0,
595,5.0,decreament,0.24,40.0,oddball,12.0,1.0,1.0,0.9827988003380596
596,5.0,decreament,0.6,100.0,standard,11.0,1.0,1.0,
597,5.0,decreament,0.6,100.0,standard,11.0,1.0,1.0,
598,5.0,decreament,0.6,100.0,standard,11.0,1.0,1.0,
599,5.0,decreament,0.6,100.0,standard,11.0,1.0,1.0,
600,0.0,increament,0.6,100.0,standard,5.0,2.0,1.0,
601,0.0,increament,0.6,100.0,standard,5.0,2.0,1.0,
602,0.0,increament,0.6,100.0,standard,5.0,2.0,1.0,
603,0.0,increament,0.6,100.0,standard,5.0,2.0,1.0,
604,0.0,increament,0.6,100.0,standard,5.0,2.0,1.0,
605,0.0,increament,0.6,100.0,standard,5.0,2.0,1.0,
606,0.0,increament,0.6,100.0,standard,5.0,2.0,1.0,
607,0.0,increament,0.6,100.0,standard,5.0,2.0,1.0,
608,0.0,increament,0.6,100.0,standard,5.0,2.0,1.0,
609,0.0,increament,0.6,100.0,standard,5.0,2.0,1.0,
610,0.0,increament,0.72,120.0,oddball,6.0,2.0,0.0,
611,0.0,increament,0.6,100.0,standard,5.0,2.0,1.0,
612,0.0,increament,0.6,100.0,standard,5.0,2.0,1.0,
613,0.0,increament,0.6,100.0,standard,5.0,2.0,1.0,
614,0.0,increament,0.84,140.0,oddball,7.0,2.0,1.0,0.6869517001323402
615,0.0,increament,0.6,100.0,standard,5.0,2.0,1.0,
616,0.0,increament,0.6,100.0,standard,5.0,2.0,1.0,
617,0.0,increament,0.6,100.0,standard,5.0,2.0,1.0,
618,0.0,increament,0.6,100.0,standard,5.0,2.0,1.0,
619,0.0,increament,0.6,100.0,standard,5.0,2.0,1.0,
620,0.0,increament,0.6,100.0,standard,5.0,2.0,1.0,
621,0.0,increament,0.6,100.0,standard,5.0,2.0,1.0,
622,0.0,increament,0.6,100.0,standard,5.0,2.0,1.0,
623,0.0,increament,0.6,100.0,standard,5.0,2.0,1.0,
624,0.0,increament,0.96,160.0,oddball,8.0,2.0,0.0,
625,0.0,increament,0.6,100.0,standard,5.0,2.0,1.0,
626,0.0,increament,0.6,100.0,standard,5.0,2.0,1.0,
627,0.0,increament,0.6,100.0,standard,5.0,2.0,1.0,
628,0.0,increament,0.6,100.0,standard,5.0,2.0,1.0,
629,0.0,increament,0.6,100.0,standard,5.0,2.0,1.0,
630,0.0,decreament,0.6,100.0,standard,1.0,2.0,1.0,
631,0.0,decreament,0.6,100.0,standard,1.0,2.0,1.0,
632,0.0,decreament,0.6,100.0,standard,1.0,2.0,1.0,
633,0.0,decreament,0.6,100.0,standard,1.0,2.0,1.0,
634,0.0,decreament,0.6,100.0,standard,1.0,2.0,1.0,
635,0.0,decreament,0.6,100.0,standard,1.0,2.0,1.0,
636,0.0,decreament,0.6,100.0,standard,1.0,2.0,1.0,
637,0.0,decreament,0.48,80.0,oddball,4.0,2.0,0.0,
638,0.0,decreament,0.6,100.0,standard,1.0,2.0,1.0,
639,0.0,decreament,0.6,100.0,standard,1.0,2.0,1.0,
640,0.0,decreament,0.6,100.0,standard,1.0,2.0,1.0,
641,0.0,decreament,0.6,100.0,standard,1.0,2.0,1.0,
642,0.0,decreament,0.6,100.0,standard,1.0,2.0,1.0,
643,0.0,decreament,0.6,100.0,standard,1.0,2.0,1.0,
644,0.0,decreament,0.6,100.0,standard,1.0,2.0,1.0,
645,0.0,decreament,0.6,100.0,standard,1.0,2.0,1.0,
646,0.0,decreament,0.6,100.0,standard,1.0,2.0,1.0,
647,0.0,decreament,0.6,100.0,standard,1.0,2.0,1.0,
648,0.0,decreament,0.6,100.0,standard,1.0,2.0,1.0,
649,0.0,decreament,0.36,60.0,oddball,3.0,2.0,1.0,0.943087600171566
650,0.0,decreament,0.6,100.0,standard,1.0,2.0,1.0,
651,0.0,decreament,0.6,100.0,standard,1.0,2.0,1.0,
652,0.0,decreament,0.6,100.0,standard,1.0,2.0,1.0,
653,0.0,decreament,0.24,40.0,oddball,2.0,2.0,1.0,0.990987699944526
654,0.0,decreament,0.6,100.0,standard,1.0,2.0,1.0,
655,0.0,decreament,0.6,100.0,standard,1.0,2.0,1.0,
656,0.0,decreament,0.6,100.0,standard,1.0,2.0,1.0,
657,0.0,decreament,0.6,100.0,standard,1.0,2.0,1.0,
658,0.0,decreament,0.6,100.0,standard,1.0,2.0,1.0,
659,0.0,decreament,0.6,100.0,standard,1.0,2.0,1.0,
660,0.0,increament,0.6,100.0,standard,5.0,2.0,1.0,
661,0.0,increament,0.6,100.0,standard,5.0,2.0,1.0,
662,0.0,increament,0.6,100.0,standard,5.0,2.0,1.0,
663,0.0,increament,0.6,100.0,standard,5.0,2.0,1.0,
664,0.0,increament,0.6,100.0,standard,5.0,2.0,1.0,
665,0.0,increament,0.72,120.0,oddball,6.0,2.0,0.0,
666,0.0,increament,0.6,100.0,standard,5.0,2.0,1.0,
667,0.0,increament,0.6,100.0,standard,5.0,2.0,1.0,
668,0.0,increament,0.6,100.0,standard,5.0,2.0,1.0,
669,0.0,increament,0.6,100.0,standard,5.0,2.0,1.0,
670,0.0,increament,0.6,100.0,standard,5.0,2.0,1.0,
671,0.0,increament,0.6,100.0,standard,5.0,2.0,1.0,
672,0.0,increament,0.6,100.0,standard,5.0,2.0,1.0,
673,0.0,increament,0.6,100.0,standard,5.0,2.0,1.0,
674,0.0,increament,0.6,100.0,standard,5.0,2.0,1.0,
675,0.0,increament,0.84,140.0,oddball,7.0,2.0,0.0,
676,0.0,increament,0.6,100.0,standard,5.0,2.0,1.0,
677,0.0,increament,0.6,100.0,standard,5.0,2.0,1.0,
678,0.0,increament,0.6,100.0,standard,5.0,2.0,1.0,
679,0.0,increament,0.6,100.0,standard,5.0,2.0,1.0,
680,0.0,increament,0.6,100.0,standard,5.0,2.0,1.0,
681,0.0,increament,0.6,100.0,standard,5.0,2.0,1.0,
682,0.0,increament,0.6,100.0,standard,5.0,2.0,1.0,
683,0.0,increament,0.6,100.0,standard,5.0,2.0,1.0,
684,0.0,increament,0.6,100.0,standard,5.0,2.0,1.0,
685,0.0,increament,0.6,100.0,standard,5.0,2.0,1.0,
686,0.0,increament,0.6,100.0,standard,5.0,2.0,1.0,
687,0.0,increament,0.6,100.0,standard,5.0,2.0,1.0,
688,0.0,increament,0.96,160.0,oddball,8.0,2.0,1.0,0.6095179999247193
689,0.0,increament,0.6,100.0,standard,5.0,2.0,1.0,
690,0.0,decreament,0.6,100.0,standard,1.0,2.0,1.0,
691,0.0,decreament,0.6,100.0,standard,1.0,2.0,1.0,
692,0.0,decreament,0.6,100.0,standard,1.0,2.0,1.0,
693,0.0,decreament,0.6,100.0,standard,1.0,2.0,1.0,
694,0.0,decreament,0.6,100.0,standard,1.0,2.0,1.0,
695,0.0,decreament,0.6,100.0,standard,1.0,2.0,1.0,
696,0.0,decreament,0.36,60.0,oddball,3.0,2.0,1.0,1.1482970998622477
697,0.0,decreament,0.6,100.0,standard,1.0,2.0,1.0,
698,0.0,decreament,0.6,100.0,standard,1.0,2.0,1.0,
699,0.0,decreament,0.6,100.0,standard,1.0,2.0,1.0,
700,0.0,decreament,0.6,100.0,standard,1.0,2.0,1.0,
701,0.0,decreament,0.6,100.0,standard,1.0,2.0,1.0,
702,0.0,decreament,0.6,100.0,standard,1.0,2.0,1.0,
703,0.0,decreament,0.24,40.0,oddball,2.0,2.0,1.0,0.8200741000473499
704,0.0,decreament,0.6,100.0,standard,1.0,2.0,1.0,
705,0.0,decreament,0.6,100.0,standard,1.0,2.0,1.0,
706,0.0,decreament,0.6,100.0,standard,1.0,2.0,1.0,
707,0.0,decreament,0.6,100.0,standard,1.0,2.0,1.0,
708,0.0,decreament,0.6,100.0,standard,1.0,2.0,1.0,
709,0.0,decreament,0.6,100.0,standard,1.0,2.0,1.0,
710,0.0,decreament,0.48,80.0,oddball,4.0,2.0,0.0,
711,0.0,decreament,0.6,100.0,standard,1.0,2.0,1.0,
712,0.0,decreament,0.6,100.0,standard,1.0,2.0,1.0,
713,0.0,decreament,0.6,100.0,standard,1.0,2.0,1.0,
714,0.0,decreament,0.6,100.0,standard,1.0,2.0,1.0,
715,0.0,decreament,0.6,100.0,standard,1.0,2.0,1.0,
716,0.0,decreament,0.6,100.0,standard,1.0,2.0,1.0,
717,0.0,decreament,0.6,100.0,standard,1.0,2.0,1.0,
718,0.0,decreament,0.6,100.0,standard,1.0,2.0,1.0,
719,0.0,decreament,0.6,100.0,standard,1.0,2.0,1.0,
720,0.0,increament,0.6,100.0,standard,5.0,2.0,1.0,
721,0.0,increament,0.6,100.0,standard,5.0,2.0,1.0,
722,0.0,increament,0.6,100.0,standard,5.0,2.0,1.0,
723,0.0,increament,0.6,100.0,standard,5.0,2.0,1.0,
724,0.0,increament,0.6,100.0,standard,5.0,2.0,1.0,
725,0.0,increament,0.6,100.0,standard,5.0,2.0,1.0,
726,0.0,increament,0.72,120.0,oddball,6.0,2.0,0.0,
727,0.0,increament,0.6,100.0,standard,5.0,2.0,1.0,
728,0.0,increament,0.6,100.0,standard,5.0,2.0,1.0,
729,0.0,increament,0.6,100.0,standard,5.0,2.0,1.0,
730,0.0,increament,0.6,100.0,standard,5.0,2.0,1.0,
731,0.0,increament,0.6,100.0,standard,5.0,2.0,1.0,
732,0.0,increament,0.6,100.0,standard,5.0,2.0,1.0,
733,0.0,increament,0.6,100.0,standard,5.0,2.0,1.0,
734,0.0,increament,0.6,100.0,standard,5.0,2.0,1.0,
735,0.0,increament,0.6,100.0,standard,5.0,2.0,1.0,
736,0.0,increament,0.6,100.0,standard,5.0,2.0,1.0,
737,0.0,increament,0.6,100.0,standard,5.0,2.0,1.0,
738,0.0,increament,0.6,100.0,standard,5.0,2.0,1.0,
739,0.0,increament,0.6,100.0,standard,5.0,2.0,1.0,
740,0.0,increament,0.84,140.0,oddball,7.0,2.0,1.0,0.5987733001820743
741,0.0,increament,0.6,100.0,standard,5.0,2.0,1.0,
742,0.0,increament,0.6,100.0,standard,5.0,2.0,1.0,
743,0.0,increament,0.6,100.0,standard,5.0,2.0,1.0,
744,0.0,increament,0.6,100.0,standard,5.0,2.0,1.0,
745,0.0,increament,0.6,100.0,standard,5.0,2.0,1.0,
746,0.0,increament,0.6,100.0,standard,5.0,2.0,1.0,
747,0.0,increament,0.6,100.0,standard,5.0,2.0,1.0,
748,0.0,increament,0.6,100.0,standard,5.0,2.0,1.0,
749,0.0,increament,0.96,160.0,oddball,8.0,2.0,0.0,
750,0.0,decreament,0.6,100.0,standard,1.0,2.0,1.0,
751,0.0,decreament,0.6,100.0,standard,1.0,2.0,1.0,
752,0.0,decreament,0.6,100.0,standard,1.0,2.0,1.0,
753,0.0,decreament,0.6,100.0,standard,1.0,2.0,1.0,
754,0.0,decreament,0.6,100.0,standard,1.0,2.0,1.0,
755,0.0,decreament,0.6,100.0,standard,1.0,2.0,1.0,
756,0.0,decreament,0.6,100.0,standard,1.0,2.0,1.0,
757,0.0,decreament,0.6,100.0,standard,1.0,2.0,1.0,
758,0.0,decreament,0.6,100.0,standard,1.0,2.0,1.0,
759,0.0,decreament,0.6,100.0,standard,1.0,2.0,1.0,
760,0.0,decreament,0.6,100.0,standard,1.0,2.0,1.0,
761,0.0,decreament,0.6,100.0,standard,1.0,2.0,1.0,
762,0.0,decreament,0.36,60.0,oddball,3.0,2.0,1.0,0.6693910001777112
763,0.0,decreament,0.6,100.0,standard,1.0,2.0,1.0,
764,0.0,decreament,0.6,100.0,standard,1.0,2.0,1.0,
765,0.0,decreament,0.6,100.0,standard,1.0,2.0,1.0,
766,0.0,decreament,0.6,100.0,standard,1.0,2.0,1.0,
767,0.0,decreament,0.6,100.0,standard,1.0,2.0,1.0,
768,0.0,decreament,0.48,80.0,oddball,4.0,2.0,0.0,
769,0.0,decreament,0.6,100.0,standard,1.0,2.0,1.0,
770,0.0,decreament,0.6,100.0,standard,1.0,2.0,1.0,
771,0.0,decreament,0.6,100.0,standard,1.0,2.0,1.0,
772,0.0,decreament,0.6,100.0,standard,1.0,2.0,1.0,
773,0.0,decreament,0.6,100.0,standard,1.0,2.0,1.0,
774,0.0,decreament,0.6,100.0,standard,1.0,2.0,1.0,
775,0.0,decreament,0.6,100.0,standard,1.0,2.0,1.0,
776,0.0,decreament,0.6,100.0,standard,1.0,2.0,1.0,
777,0.0,decreament,0.24,40.0,oddball,2.0,2.0,1.0,0.6680768001824617
778,0.0,decreament,0.6,100.0,standard,1.0,2.0,1.0,
779,0.0,decreament,0.6,100.0,standard,1.0,2.0,1.0,
780,0.0,increament,0.6,100.0,standard,5.0,2.0,1.0,
781,0.0,increament,0.6,100.0,standard,5.0,2.0,1.0,
782,0.0,increament,0.6,100.0,standard,5.0,2.0,1.0,
783,0.0,increament,0.6,100.0,standard,5.0,2.0,1.0,
784,0.0,increament,0.6,100.0,standard,5.0,2.0,1.0,
785,0.0,increament,0.96,160.0,oddball,8.0,2.0,0.0,
786,0.0,increament,0.6,100.0,standard,5.0,2.0,1.0,
787,0.0,increament,0.6,100.0,standard,5.0,2.0,1.0,
788,0.0,increament,0.6,100.0,standard,5.0,2.0,1.0,
789,0.0,increament,0.6,100.0,standard,5.0,2.0,1.0,
790,0.0,increament,0.6,100.0,standard,5.0,2.0,1.0,
791,0.0,increament,0.6,100.0,standard,5.0,2.0,1.0,
792,0.0,increament,0.84,140.0,oddball,7.0,2.0,0.0,
793,0.0,increament,0.6,100.0,standard,5.0,2.0,1.0,
794,0.0,increament,0.6,100.0,standard,5.0,2.0,1.0,
795,0.0,increament,0.6,100.0,standard,5.0,2.0,1.0,
796,0.0,increament,0.6,100.0,standard,5.0,2.0,1.0,
797,0.0,increament,0.6,100.0,standard,5.0,2.0,1.0,
798,0.0,increament,0.72,120.0,oddball,6.0,2.0,1.0,0.6145308003760874
799,0.0,increament,0.6,100.0,standard,5.0,2.0,1.0,
800,0.0,increament,0.6,100.0,standard,5.0,2.0,1.0,
801,0.0,increament,0.6,100.0,standard,5.0,2.0,1.0,
802,0.0,increament,0.6,100.0,standard,5.0,2.0,1.0,
803,0.0,increament,0.6,100.0,standard,5.0,2.0,1.0,
804,0.0,increament,0.6,100.0,standard,5.0,2.0,1.0,
805,0.0,increament,0.6,100.0,standard,5.0,2.0,1.0,
806,0.0,increament,0.6,100.0,standard,5.0,2.0,1.0,
807,0.0,increament,0.6,100.0,standard,5.0,2.0,1.0,
808,0.0,increament,0.6,100.0,standard,5.0,2.0,1.0,
809,0.0,increament,0.6,100.0,standard,5.0,2.0,1.0,
810,0.0,decreament,0.6,100.0,standard,1.0,2.0,1.0,
811,0.0,decreament,0.6,100.0,standard,1.0,2.0,1.0,
812,0.0,decreament,0.6,100.0,standard,1.0,2.0,1.0,
813,0.0,decreament,0.6,100.0,standard,1.0,2.0,1.0,
814,0.0,decreament,0.6,100.0,standard,1.0,2.0,1.0,
815,0.0,decreament,0.48,80.0,oddball,4.0,2.0,0.0,
816,0.0,decreament,0.6,100.0,standard,1.0,2.0,1.0,
817,0.0,decreament,0.6,100.0,standard,1.0,2.0,1.0,
818,0.0,decreament,0.6,100.0,standard,1.0,2.0,1.0,
819,0.0,decreament,0.6,100.0,standard,1.0,2.0,1.0,
820,0.0,decreament,0.6,100.0,standard,1.0,2.0,1.0,
821,0.0,decreament,0.6,100.0,standard,1.0,2.0,1.0,
822,0.0,decreament,0.6,100.0,standard,1.0,2.0,1.0,
823,0.0,decreament,0.6,100.0,standard,1.0,2.0,1.0,
824,0.0,decreament,0.6,100.0,standard,1.0,2.0,1.0,
825,0.0,decreament,0.6,100.0,standard,1.0,2.0,1.0,
826,0.0,decreament,0.6,100.0,standard,1.0,2.0,1.0,
827,0.0,decreament,0.36,60.0,oddball,3.0,2.0,0.0,
828,0.0,decreament,0.6,100.0,standard,1.0,2.0,1.0,
829,0.0,decreament,0.6,100.0,standard,1.0,2.0,1.0,
830,0.0,decreament,0.6,100.0,standard,1.0,2.0,1.0,
831,0.0,decreament,0.6,100.0,standard,1.0,2.0,1.0,
832,0.0,decreament,0.6,100.0,standard,1.0,2.0,1.0,
833,0.0,decreament,0.6,100.0,standard,1.0,2.0,1.0,
834,0.0,decreament,0.24,40.0,oddball,2.0,2.0,1.0,0.945593100041151
835,0.0,decreament,0.6,100.0,standard,1.0,2.0,1.0,
836,0.0,decreament,0.6,100.0,standard,1.0,2.0,1.0,
837,0.0,decreament,0.6,100.0,standard,1.0,2.0,1.0,
838,0.0,decreament,0.6,100.0,standard,1.0,2.0,1.0,
839,0.0,decreament,0.6,100.0,standard,1.0,2.0,1.0,
840,0.0,increament,0.6,100.0,standard,5.0,2.0,1.0,
841,0.0,increament,0.6,100.0,standard,5.0,2.0,1.0,
842,0.0,increament,0.6,100.0,standard,5.0,2.0,1.0,
843,0.0,increament,0.6,100.0,standard,5.0,2.0,1.0,
844,0.0,increament,0.6,100.0,standard,5.0,2.0,1.0,
845,0.0,increament,0.6,100.0,standard,5.0,2.0,1.0,
846,0.0,increament,0.6,100.0,standard,5.0,2.0,1.0,
847,0.0,increament,0.6,100.0,standard,5.0,2.0,1.0,
848,0.0,increament,0.6,100.0,standard,5.0,2.0,1.0,
849,0.0,increament,0.6,100.0,standard,5.0,2.0,1.0,
850,0.0,increament,0.6,100.0,standard,5.0,2.0,1.0,
851,0.0,increament,0.6,100.0,standard,5.0,2.0,1.0,
852,0.0,increament,0.6,100.0,standard,5.0,2.0,1.0,
853,0.0,increament,0.6,100.0,standard,5.0,2.0,1.0,
854,0.0,increament,0.72,120.0,oddball,6.0,2.0,0.0,
855,0.0,increament,0.6,100.0,standard,5.0,2.0,1.0,
856,0.0,increament,0.6,100.0,standard,5.0,2.0,1.0,
857,0.0,increament,0.6,100.0,standard,5.0,2.0,1.0,
858,0.0,increament,0.6,100.0,standard,5.0,2.0,1.0,
859,0.0,increament,0.84,140.0,oddball,7.0,2.0,0.0,
860,0.0,increament,0.6,100.0,standard,5.0,2.0,1.0,
861,0.0,increament,0.6,100.0,standard,5.0,2.0,1.0,
862,0.0,increament,0.6,100.0,standard,5.0,2.0,1.0,
863,0.0,increament,0.96,160.0,oddball,8.0,2.0,1.0,0.7250950997695327
864,0.0,increament,0.6,100.0,standard,5.0,2.0,1.0,
865,0.0,increament,0.6,100.0,standard,5.0,2.0,1.0,
866,0.0,increament,0.6,100.0,standard,5.0,2.0,1.0,
867,0.0,increament,0.6,100.0,standard,5.0,2.0,1.0,
868,0.0,increament,0.6,100.0,standard,5.0,2.0,1.0,
869,0.0,increament,0.6,100.0,standard,5.0,2.0,1.0,
870,0.0,decreament,0.6,100.0,standard,1.0,2.0,1.0,
871,0.0,decreament,0.6,100.0,standard,1.0,2.0,1.0,
872,0.0,decreament,0.6,100.0,standard,1.0,2.0,1.0,
873,0.0,decreament,0.6,100.0,standard,1.0,2.0,1.0,
874,0.0,decreament,0.6,100.0,standard,1.0,2.0,1.0,
875,0.0,decreament,0.6,100.0,standard,1.0,2.0,1.0,
876,0.0,decreament,0.6,100.0,standard,1.0,2.0,1.0,
877,0.0,decreament,0.6,100.0,standard,1.0,2.0,1.0,
878,0.0,decreament,0.48,80.0,oddball,4.0,2.0,0.0,
879,0.0,decreament,0.6,100.0,standard,1.0,2.0,1.0,
880,0.0,decreament,0.6,100.0,standard,1.0,2.0,1.0,
881,0.0,decreament,0.6,100.0,standard,1.0,2.0,1.0,
882,0.0,decreament,0.24,40.0,oddball,2.0,2.0,1.0,0.8964291997253895
883,0.0,decreament,0.6,100.0,standard,1.0,2.0,1.0,
884,0.0,decreament,0.6,100.0,standard,1.0,2.0,1.0,
885,0.0,decreament,0.6,100.0,standard,1.0,2.0,1.0,
886,0.0,decreament,0.6,100.0,standard,1.0,2.0,1.0,
887,0.0,decreament,0.6,100.0,standard,1.0,2.0,1.0,
888,0.0,decreament,0.36,60.0,oddball,3.0,2.0,1.0,1.3053506999276578
889,0.0,decreament,0.6,100.0,standard,1.0,2.0,1.0,
890,0.0,decreament,0.6,100.0,standard,1.0,2.0,1.0,
891,0.0,decreament,0.6,100.0,standard,1.0,2.0,1.0,
892,0.0,decreament,0.6,100.0,standard,1.0,2.0,1.0,
893,0.0,decreament,0.6,100.0,standard,1.0,2.0,1.0,
894,0.0,decreament,0.6,100.0,standard,1.0,2.0,1.0,
895,0.0,decreament,0.6,100.0,standard,1.0,2.0,1.0,
896,0.0,decreament,0.6,100.0,standard,1.0,2.0,1.0,
897,0.0,decreament,0.6,100.0,standard,1.0,2.0,1.0,
898,0.0,decreament,0.6,100.0,standard,1.0,2.0,1.0,
899,0.0,decreament,0.6,100.0,standard,1.0,2.0,1.0,
900,20.0,increament,0.6,100.0,standard,45.0,3.0,1.0,
901,20.0,increament,0.6,100.0,standard,45.0,3.0,1.0,
902,20.0,increament,0.6,100.0,standard,45.0,3.0,1.0,
903,20.0,increament,0.6,100.0,standard,45.0,3.0,1.0,
904,20.0,increament,0.6,100.0,standard,45.0,3.0,1.0,
905,20.0,increament,0.6,100.0,standard,45.0,3.0,1.0,
906,20.0,increament,0.6,100.0,standard,45.0,3.0,1.0,
907,20.0,increament,0.6,100.0,standard,45.0,3.0,1.0,
908,20.0,increament,0.6,100.0,standard,45.0,3.0,1.0,
909,20.0,increament,0.72,120.0,oddball,46.0,3.0,0.0,
910,20.0,increament,0.6,100.0,standard,45.0,3.0,1.0,
911,20.0,increament,0.6,100.0,standard,45.0,3.0,1.0,
912,20.0,increament,0.6,100.0,standard,45.0,3.0,1.0,
913,20.0,increament,0.6,100.0,standard,45.0,3.0,1.0,
914,20.0,increament,0.6,100.0,standard,45.0,3.0,1.0,
915,20.0,increament,0.96,160.0,oddball,48.0,3.0,1.0,0.3569426001049578
916,20.0,increament,0.6,100.0,standard,45.0,3.0,1.0,
917,20.0,increament,0.6,100.0,standard,45.0,3.0,1.0,
918,20.0,increament,0.6,100.0,standard,45.0,3.0,1.0,
919,20.0,increament,0.6,100.0,standard,45.0,3.0,1.0,
920,20.0,increament,0.84,140.0,oddball,47.0,3.0,0.0,
921,20.0,increament,0.6,100.0,standard,45.0,3.0,1.0,
922,20.0,increament,0.6,100.0,standard,45.0,3.0,1.0,
923,20.0,increament,0.6,100.0,standard,45.0,3.0,1.0,
924,20.0,increament,0.6,100.0,standard,45.0,3.0,1.0,
925,20.0,increament,0.6,100.0,standard,45.0,3.0,1.0,
926,20.0,increament,0.6,100.0,standard,45.0,3.0,1.0,
927,20.0,increament,0.6,100.0,standard,45.0,3.0,1.0,
928,20.0,increament,0.6,100.0,standard,45.0,3.0,1.0,
929,20.0,increament,0.6,100.0,standard,45.0,3.0,1.0,
930,20.0,decreament,0.6,100.0,standard,41.0,3.0,1.0,
931,20.0,decreament,0.6,100.0,standard,41.0,3.0,1.0,
932,20.0,decreament,0.6,100.0,standard,41.0,3.0,1.0,
933,20.0,decreament,0.6,100.0,standard,41.0,3.0,1.0,
934,20.0,decreament,0.6,100.0,standard,41.0,3.0,1.0,
935,20.0,decreament,0.6,100.0,standard,41.0,3.0,1.0,
936,20.0,decreament,0.6,100.0,standard,41.0,3.0,1.0,
937,20.0,decreament,0.6,100.0,standard,41.0,3.0,1.0,
938,20.0,decreament,0.24,40.0,oddball,42.0,3.0,0.0,
939,20.0,decreament,0.6,100.0,standard,41.0,3.0,1.0,
940,20.0,decreament,0.6,100.0,standard,41.0,3.0,1.0,
941,20.0,decreament,0.6,100.0,standard,41.0,3.0,1.0,
942,20.0,decreament,0.6,100.0,standard,41.0,3.0,1.0,
943,20.0,decreament,0.6,100.0,standard,41.0,3.0,1.0,
944,20.0,decreament,0.6,100.0,standard,41.0,3.0,1.0,
945,20.0,decreament,0.36,60.0,oddball,43.0,3.0,1.0,0.679626100230962
946,20.0,decreament,0.6,100.0,standard,41.0,3.0,1.0,
947,20.0,decreament,0.6,100.0,standard,41.0,3.0,1.0,
948,20.0,decreament,0.6,100.0,standard,41.0,3.0,1.0,
949,20.0,decreament,0.6,100.0,standard,41.0,3.0,1.0,
950,20.0,decreament,0.6,100.0,standard,41.0,3.0,1.0,
951,20.0,decreament,0.48,80.0,oddball,44.0,3.0,0.0,
952,20.0,decreament,0.6,100.0,standard,41.0,3.0,1.0,
953,20.0,decreament,0.6,100.0,standard,41.0,3.0,1.0,
954,20.0,decreament,0.6,100.0,standard,41.0,3.0,1.0,
955,20.0,decreament,0.6,100.0,standard,41.0,3.0,1.0,
956,20.0,decreament,0.6,100.0,standard,41.0,3.0,1.0,
957,20.0,decreament,0.6,100.0,standard,41.0,3.0,1.0,
958,20.0,decreament,0.6,100.0,standard,41.0,3.0,1.0,
959,20.0,decreament,0.6,100.0,standard,41.0,3.0,1.0,
960,20.0,increament,0.6,100.0,standard,45.0,3.0,1.0,
961,20.0,increament,0.6,100.0,standard,45.0,3.0,1.0,
962,20.0,increament,0.6,100.0,standard,45.0,3.0,1.0,
963,20.0,increament,0.6,100.0,standard,45.0,3.0,1.0,
964,20.0,increament,0.6,100.0,standard,45.0,3.0,1.0,
965,20.0,increament,0.96,160.0,oddball,48.0,3.0,0.0,
966,20.0,increament,0.6,100.0,standard,45.0,3.0,1.0,
967,20.0,increament,0.6,100.0,standard,45.0,3.0,1.0,
968,20.0,increament,0.6,100.0,standard,45.0,3.0,1.0,
969,20.0,increament,0.6,100.0,standard,45.0,3.0,1.0,
970,20.0,increament,0.6,100.0,standard,45.0,3.0,1.0,
971,20.0,increament,0.72,120.0,oddball,46.0,3.0,0.0,
972,20.0,increament,0.6,100.0,standard,45.0,3.0,1.0,
973,20.0,increament,0.6,100.0,standard,45.0,3.0,1.0,
974,20.0,increament,0.6,100.0,standard,45.0,3.0,1.0,
975,20.0,increament,0.6,100.0,standard,45.0,3.0,1.0,
976,20.0,increament,0.6,100.0,standard,45.0,3.0,1.0,
977,20.0,increament,0.6,100.0,standard,45.0,3.0,1.0,
978,20.0,increament,0.6,100.0,standard,45.0,3.0,1.0,
979,20.0,increament,0.6,100.0,standard,45.0,3.0,1.0,
980,20.0,increament,0.84,140.0,oddball,47.0,3.0,0.0,
981,20.0,increament,0.6,100.0,standard,45.0,3.0,1.0,
982,20.0,increament,0.6,100.0,standard,45.0,3.0,1.0,
983,20.0,increament,0.6,100.0,standard,45.0,3.0,1.0,
984,20.0,increament,0.6,100.0,standard,45.0,3.0,1.0,
985,20.0,increament,0.6,100.0,standard,45.0,3.0,1.0,
986,20.0,increament,0.6,100.0,standard,45.0,3.0,1.0,
987,20.0,increament,0.6,100.0,standard,45.0,3.0,1.0,
988,20.0,increament,0.6,100.0,standard,45.0,3.0,1.0,
989,20.0,increament,0.6,100.0,standard,45.0,3.0,1.0,
990,20.0,decreament,0.6,100.0,standard,41.0,3.0,1.0,
991,20.0,decreament,0.6,100.0,standard,41.0,3.0,1.0,
992,20.0,decreament,0.6,100.0,standard,41.0,3.0,1.0,
993,20.0,decreament,0.6,100.0,standard,41.0,3.0,1.0,
994,20.0,decreament,0.6,100.0,standard,41.0,3.0,1.0,
995,20.0,decreament,0.6,100.0,standard,41.0,3.0,1.0,
996,20.0,decreament,0.6,100.0,standard,41.0,3.0,1.0,
997,20.0,decreament,0.6,100.0,standard,41.0,3.0,1.0,
998,20.0,decreament,0.6,100.0,standard,41.0,3.0,1.0,
999,20.0,decreament,0.6,100.0,standard,41.0,3.0,1.0,
1000,20.0,decreament,0.48,80.0,oddball,44.0,3.0,0.0,
1001,20.0,decreament,0.6,100.0,standard,41.0,3.0,1.0,
1002,20.0,decreament,0.6,100.0,standard,41.0,3.0,1.0,
1003,20.0,decreament,0.6,100.0,standard,41.0,3.0,1.0,
1004,20.0,decreament,0.6,100.0,standard,41.0,3.0,1.0,
1005,20.0,decreament,0.6,100.0,standard,41.0,3.0,1.0,
1006,20.0,decreament,0.6,100.0,standard,41.0,3.0,1.0,
1007,20.0,decreament,0.6,100.0,standard,41.0,3.0,1.0,
1008,20.0,decreament,0.36,60.0,oddball,43.0,3.0,1.0,1.0162861002609134
1009,20.0,decreament,0.6,100.0,standard,41.0,3.0,1.0,
1010,20.0,decreament,0.6,100.0,standard,41.0,3.0,1.0,
1011,20.0,decreament,0.6,100.0,standard,41.0,3.0,1.0,
1012,20.0,decreament,0.6,100.0,standard,41.0,3.0,1.0,
1013,20.0,decreament,0.24,40.0,oddball,42.0,3.0,1.0,1.1664006002247334
1014,20.0,decreament,0.6,100.0,standard,41.0,3.0,1.0,
1015,20.0,decreament,0.6,100.0,standard,41.0,3.0,1.0,
1016,20.0,decreament,0.6,100.0,standard,41.0,3.0,1.0,
1017,20.0,decreament,0.6,100.0,standard,41.0,3.0,1.0,
1018,20.0,decreament,0.6,100.0,standard,41.0,3.0,1.0,
1019,20.0,decreament,0.6,100.0,standard,41.0,3.0,1.0,
1020,20.0,increament,0.6,100.0,standard,45.0,3.0,1.0,
1021,20.0,increament,0.6,100.0,standard,45.0,3.0,1.0,
1022,20.0,increament,0.6,100.0,standard,45.0,3.0,1.0,
1023,20.0,increament,0.6,100.0,standard,45.0,3.0,1.0,
1024,20.0,increament,0.6,100.0,standard,45.0,3.0,1.0,
1025,20.0,increament,0.6,100.0,standard,45.0,3.0,1.0,
1026,20.0,increament,0.6,100.0,standard,45.0,3.0,1.0,
1027,20.0,increament,0.6,100.0,standard,45.0,3.0,1.0,
1028,20.0,increament,0.72,120.0,oddball,46.0,3.0,0.0,
1029,20.0,increament,0.6,100.0,standard,45.0,3.0,1.0,
1030,20.0,increament,0.6,100.0,standard,45.0,3.0,1.0,
1031,20.0,increament,0.6,100.0,standard,45.0,3.0,1.0,
1032,20.0,increament,0.84,140.0,oddball,47.0,3.0,1.0,0.5850840997882187
1033,20.0,increament,0.6,100.0,standard,45.0,3.0,1.0,
1034,20.0,increament,0.6,100.0,standard,45.0,3.0,1.0,
1035,20.0,increament,0.6,100.0,standard,45.0,3.0,1.0,
1036,20.0,increament,0.6,100.0,standard,45.0,3.0,1.0,
1037,20.0,increament,0.6,100.0,standard,45.0,3.0,1.0,
1038,20.0,increament,0.6,100.0,standard,45.0,3.0,1.0,
1039,20.0,increament,0.6,100.0,standard,45.0,3.0,1.0,
1040,20.0,increament,0.6,100.0,standard,45.0,3.0,1.0,
1041,20.0,increament,0.6,100.0,standard,45.0,3.0,1.0,
1042,20.0,increament,0.6,100.0,standard,45.0,3.0,1.0,
1043,20.0,increament,0.6,100.0,standard,45.0,3.0,1.0,
1044,20.0,increament,0.6,100.0,standard,45.0,3.0,1.0,
1045,20.0,increament,0.6,100.0,standard,45.0,3.0,1.0,
1046,20.0,increament,0.6,100.0,standard,45.0,3.0,1.0,
1047,20.0,increament,0.6,100.0,standard,45.0,3.0,1.0,
1048,20.0,increament,0.6,100.0,standard,45.0,3.0,1.0,
1049,20.0,increament,0.96,160.0,oddball,48.0,3.0,0.0,
1050,20.0,decreament,0.6,100.0,standard,41.0,3.0,1.0,
1051,20.0,decreament,0.6,100.0,standard,41.0,3.0,1.0,
1052,20.0,decreament,0.6,100.0,standard,41.0,3.0,1.0,
1053,20.0,decreament,0.6,100.0,standard,41.0,3.0,1.0,
1054,20.0,decreament,0.6,100.0,standard,41.0,3.0,1.0,
1055,20.0,decreament,0.6,100.0,standard,41.0,3.0,1.0,
1056,20.0,decreament,0.36,60.0,oddball,43.0,3.0,1.0,1.6393404002301395
1057,20.0,decreament,0.6,100.0,standard,41.0,3.0,1.0,
1058,20.0,decreament,0.6,100.0,standard,41.0,3.0,1.0,
1059,20.0,decreament,0.6,100.0,standard,41.0,3.0,1.0,
1060,20.0,decreament,0.6,100.0,standard,41.0,3.0,1.0,
1061,20.0,decreament,0.48,80.0,oddball,44.0,3.0,0.0,
1062,20.0,decreament,0.6,100.0,standard,41.0,3.0,1.0,
1063,20.0,decreament,0.6,100.0,standard,41.0,3.0,1.0,
1064,20.0,decreament,0.6,100.0,standard,41.0,3.0,1.0,
1065,20.0,decreament,0.6,100.0,standard,41.0,3.0,1.0,
1066,20.0,decreament,0.6,100.0,standard,41.0,3.0,1.0,
1067,20.0,decreament,0.6,100.0,standard,41.0,3.0,1.0,
1068,20.0,decreament,0.6,100.0,standard,41.0,3.0,1.0,
1069,20.0,decreament,0.6,100.0,standard,41.0,3.0,1.0,
1070,20.0,decreament,0.6,100.0,standard,41.0,3.0,1.0,
1071,20.0,decreament,0.6,100.0,standard,41.0,3.0,1.0,
1072,20.0,decreament,0.6,100.0,standard,41.0,3.0,1.0,
1073,20.0,decreament,0.24,40.0,oddball,42.0,3.0,1.0,1.3232945003546774
1074,20.0,decreament,0.6,100.0,standard,41.0,3.0,1.0,
1075,20.0,decreament,0.6,100.0,standard,41.0,3.0,1.0,
1076,20.0,decreament,0.6,100.0,standard,41.0,3.0,1.0,
1077,20.0,decreament,0.6,100.0,standard,41.0,3.0,1.0,
1078,20.0,decreament,0.6,100.0,standard,41.0,3.0,1.0,
1079,20.0,decreament,0.6,100.0,standard,41.0,3.0,1.0,
1080,20.0,increament,0.6,100.0,standard,45.0,3.0,1.0,
1081,20.0,increament,0.6,100.0,standard,45.0,3.0,1.0,
1082,20.0,increament,0.6,100.0,standard,45.0,3.0,1.0,
1083,20.0,increament,0.6,100.0,standard,45.0,3.0,1.0,
1084,20.0,increament,0.6,100.0,standard,45.0,3.0,1.0,
1085,20.0,increament,0.6,100.0,standard,45.0,3.0,1.0,
1086,20.0,increament,0.6,100.0,standard,45.0,3.0,1.0,
1087,20.0,increament,0.6,100.0,standard,45.0,3.0,1.0,
1088,20.0,increament,0.96,160.0,oddball,48.0,3.0,0.0,
1089,20.0,increament,0.6,100.0,standard,45.0,3.0,1.0,
1090,20.0,increament,0.6,100.0,standard,45.0,3.0,1.0,
1091,20.0,increament,0.6,100.0,standard,45.0,3.0,1.0,
1092,20.0,increament,0.6,100.0,standard,45.0,3.0,1.0,
1093,20.0,increament,0.6,100.0,standard,45.0,3.0,1.0,
1094,20.0,increament,0.6,100.0,standard,45.0,3.0,1.0,
1095,20.0,increament,0.6,100.0,standard,45.0,3.0,1.0,
1096,20.0,increament,0.6,100.0,standard,45.0,3.0,1.0,
1097,20.0,increament,0.6,100.0,standard,45.0,3.0,1.0,
1098,20.0,increament,0.6,100.0,standard,45.0,3.0,1.0,
1099,20.0,increament,0.6,100.0,standard,45.0,3.0,1.0,
1100,20.0,increament,0.6,100.0,standard,45.0,3.0,1.0,
1101,20.0,increament,0.84,140.0,oddball,47.0,3.0,0.0,
1102,20.0,increament,0.6,100.0,standard,45.0,3.0,1.0,
1103,20.0,increament,0.6,100.0,standard,45.0,3.0,1.0,
1104,20.0,increament,0.6,100.0,standard,45.0,3.0,1.0,
1105,20.0,increament,0.6,100.0,standard,45.0,3.0,1.0,
1106,20.0,increament,0.6,100.0,standard,45.0,3.0,1.0,
1107,20.0,increament,0.72,120.0,oddball,46.0,3.0,0.0,
1108,20.0,increament,0.6,100.0,standard,45.0,3.0,1.0,
1109,20.0,increament,0.6,100.0,standard,45.0,3.0,1.0,
1110,20.0,decreament,0.6,100.0,standard,41.0,3.0,1.0,
1111,20.0,decreament,0.6,100.0,standard,41.0,3.0,1.0,
1112,20.0,decreament,0.6,100.0,standard,41.0,3.0,1.0,
1113,20.0,decreament,0.6,100.0,standard,41.0,3.0,1.0,
1114,20.0,decreament,0.6,100.0,standard,41.0,3.0,1.0,
1115,20.0,decreament,0.6,100.0,standard,41.0,3.0,1.0,
1116,20.0,decreament,0.6,100.0,standard,41.0,3.0,1.0,
1117,20.0,decreament,0.6,100.0,standard,41.0,3.0,1.0,
1118,20.0,decreament,0.36,60.0,oddball,43.0,3.0,1.0,0.9723933995701372
1119,20.0,decreament,0.6,100.0,standard,41.0,3.0,1.0,
1120,20.0,decreament,0.6,100.0,standard,41.0,3.0,1.0,
1121,20.0,decreament,0.6,100.0,standard,41.0,3.0,1.0,
1122,20.0,decreament,0.24,40.0,oddball,42.0,3.0,1.0,1.1462047998793423
1123,20.0,decreament,0.6,100.0,standard,41.0,3.0,1.0,
1124,20.0,decreament,0.6,100.0,standard,41.0,3.0,1.0,
1125,20.0,decreament,0.6,100.0,standard,41.0,3.0,1.0,
1126,20.0,decreament,0.6,100.0,standard,41.0,3.0,1.0,
1127,20.0,decreament,0.6,100.0,standard,41.0,3.0,1.0,
1128,20.0,decreament,0.6,100.0,standard,41.0,3.0,1.0,
1129,20.0,decreament,0.6,100.0,standard,41.0,3.0,1.0,
1130,20.0,decreament,0.6,100.0,standard,41.0,3.0,1.0,
1131,20.0,decreament,0.6,100.0,standard,41.0,3.0,1.0,
1132,20.0,decreament,0.6,100.0,standard,41.0,3.0,1.0,
1133,20.0,decreament,0.6,100.0,standard,41.0,3.0,1.0,
1134,20.0,decreament,0.6,100.0,standard,41.0,3.0,1.0,
1135,20.0,decreament,0.6,100.0,standard,41.0,3.0,1.0,
1136,20.0,decreament,0.48,80.0,oddball,44.0,3.0,0.0,
1137,20.0,decreament,0.6,100.0,standard,41.0,3.0,1.0,
1138,20.0,decreament,0.6,100.0,standard,41.0,3.0,1.0,
1139,20.0,decreament,0.6,100.0,standard,41.0,3.0,1.0,
1140,20.0,increament,0.6,100.0,standard,45.0,3.0,1.0,
1141,20.0,increament,0.6,100.0,standard,45.0,3.0,1.0,
1142,20.0,increament,0.6,100.0,standard,45.0,3.0,1.0,
1143,20.0,increament,0.6,100.0,standard,45.0,3.0,1.0,
1144,20.0,increament,0.6,100.0,standard,45.0,3.0,1.0,
1145,20.0,increament,0.6,100.0,standard,45.0,3.0,1.0,
1146,20.0,increament,0.6,100.0,standard,45.0,3.0,1.0,
1147,20.0,increament,0.6,100.0,standard,45.0,3.0,1.0,
1148,20.0,increament,0.6,100.0,standard,45.0,3.0,1.0,
1149,20.0,increament,0.6,100.0,standard,45.0,3.0,1.0,
1150,20.0,increament,0.6,100.0,standard,45.0,3.0,1.0,
1151,20.0,increament,0.84,140.0,oddball,47.0,3.0,1.0,0.5684011997655034
1152,20.0,increament,0.6,100.0,standard,45.0,3.0,1.0,
1153,20.0,increament,0.6,100.0,standard,45.0,3.0,1.0,
1154,20.0,increament,0.6,100.0,standard,45.0,3.0,1.0,
1155,20.0,increament,0.72,120.0,oddball,46.0,3.0,0.0,
1156,20.0,increament,0.6,100.0,standard,45.0,3.0,1.0,
1157,20.0,increament,0.6,100.0,standard,45.0,3.0,1.0,
1158,20.0,increament,0.6,100.0,standard,45.0,3.0,1.0,
1159,20.0,increament,0.6,100.0,standard,45.0,3.0,1.0,
1160,20.0,increament,0.6,100.0,standard,45.0,3.0,1.0,
1161,20.0,increament,0.6,100.0,standard,45.0,3.0,1.0,
1162,20.0,increament,0.6,100.0,standard,45.0,3.0,1.0,
1163,20.0,increament,0.6,100.0,standard,45.0,3.0,1.0,
1164,20.0,increament,0.6,100.0,standard,45.0,3.0,1.0,
1165,20.0,increament,0.6,100.0,standard,45.0,3.0,1.0,
1166,20.0,increament,0.6,100.0,standard,45.0,3.0,1.0,
1167,20.0,increament,0.6,100.0,standard,45.0,3.0,1.0,
1168,20.0,increament,0.6,100.0,standard,45.0,3.0,1.0,
1169,20.0,increament,0.96,160.0,oddball,48.0,3.0,0.0,
1170,20.0,decreament,0.6,100.0,standard,41.0,3.0,1.0,
1171,20.0,decreament,0.6,100.0,standard,41.0,3.0,1.0,
1172,20.0,decreament,0.6,100.0,standard,41.0,3.0,1.0,
1173,20.0,decreament,0.6,100.0,standard,41.0,3.0,1.0,
1174,20.0,decreament,0.6,100.0,standard,41.0,3.0,1.0,
1175,20.0,decreament,0.6,100.0,standard,41.0,3.0,1.0,
1176,20.0,decreament,0.6,100.0,standard,41.0,3.0,1.0,
1177,20.0,decreament,0.6,100.0,standard,41.0,3.0,1.0,
1178,20.0,decreament,0.6,100.0,standard,41.0,3.0,1.0,
1179,20.0,decreament,0.24,40.0,oddball,42.0,3.0,1.0,0.8124277000315487
1180,20.0,decreament,0.6,100.0,standard,41.0,3.0,1.0,
1181,20.0,decreament,0.6,100.0,standard,41.0,3.0,1.0,
1182,20.0,decreament,0.6,100.0,standard,41.0,3.0,1.0,
1183,20.0,decreament,0.6,100.0,standard,41.0,3.0,1.0,
1184,20.0,decreament,0.6,100.0,standard,41.0,3.0,1.0,
1185,20.0,decreament,0.6,100.0,standard,41.0,3.0,1.0,
1186,20.0,decreament,0.6,100.0,standard,41.0,3.0,1.0,
1187,20.0,decreament,0.36,60.0,oddball,43.0,3.0,0.0,
1188,20.0,decreament,0.6,100.0,standard,41.0,3.0,1.0,
1189,20.0,decreament,0.6,100.0,standard,41.0,3.0,1.0,
1190,20.0,decreament,0.6,100.0,standard,41.0,3.0,1.0,
1191,20.0,decreament,0.48,80.0,oddball,44.0,3.0,0.0,
1192,20.0,decreament,0.6,100.0,standard,41.0,3.0,1.0,
1193,20.0,decreament,0.6,100.0,standard,41.0,3.0,1.0,
1194,20.0,decreament,0.6,100.0,standard,41.0,3.0,1.0,
1195,20.0,decreament,0.6,100.0,standard,41.0,3.0,1.0,
1196,20.0,decreament,0.6,100.0,standard,41.0,3.0,1.0,
1197,20.0,decreament,0.6,100.0,standard,41.0,3.0,0.0,0.717408699914813
1198,20.0,decreament,0.6,100.0,standard,41.0,3.0,1.0,
1199,20.0,decreament,0.6,100.0,standard,41.0,3.0,1.0,
