,grating_freq,direction,duration,scaling,stim_type,trigger,blocks.thisN,resp.corr,resp.rt
0,5.0,decreament,0.6,100.0,standard,11.0,0.0,1.0,
1,5.0,decreament,0.6,100.0,standard,11.0,0.0,1.0,
2,5.0,decreament,0.6,100.0,standard,11.0,0.0,1.0,
3,5.0,decreament,0.6,100.0,standard,11.0,0.0,1.0,
4,5.0,decreament,0.6,100.0,standard,11.0,0.0,1.0,
5,5.0,decreament,0.6,100.0,standard,11.0,0.0,1.0,
6,5.0,decreament,0.48,80.0,oddball,14.0,0.0,1.0,0.6878662998788059
7,5.0,decreament,0.6,100.0,standard,11.0,0.0,1.0,
8,5.0,decreament,0.6,100.0,standard,11.0,0.0,1.0,
9,5.0,decreament,0.6,100.0,standard,11.0,0.0,1.0,
10,5.0,decreament,0.6,100.0,standard,11.0,0.0,1.0,
11,5.0,decreament,0.6,100.0,standard,11.0,0.0,0.0,0.724282099865377
12,5.0,decreament,0.6,100.0,standard,11.0,0.0,1.0,
13,5.0,decreament,0.36,60.0,oddball,13.0,0.0,1.0,1.0494439997710288
14,5.0,decreament,0.6,100.0,standard,11.0,0.0,1.0,
15,5.0,decreament,0.6,100.0,standard,11.0,0.0,1.0,
16,5.0,decreament,0.6,100.0,standard,11.0,0.0,1.0,
17,5.0,decreament,0.6,100.0,standard,11.0,0.0,1.0,
18,5.0,decreament,0.6,100.0,standard,11.0,0.0,1.0,
19,5.0,decreament,0.6,100.0,standard,11.0,0.0,1.0,
20,5.0,decreament,0.24,40.0,oddball,12.0,0.0,1.0,0.9496431997977196
21,5.0,decreament,0.6,100.0,standard,11.0,0.0,1.0,
22,5.0,decreament,0.6,100.0,standard,11.0,0.0,1.0,
23,5.0,decreament,0.6,100.0,standard,11.0,0.0,1.0,
24,5.0,decreament,0.6,100.0,standard,11.0,0.0,1.0,
25,5.0,decreament,0.6,100.0,standard,11.0,0.0,1.0,
26,5.0,decreament,0.6,100.0,standard,11.0,0.0,1.0,
27,5.0,decreament,0.6,100.0,standard,11.0,0.0,1.0,
28,5.0,decreament,0.6,100.0,standard,11.0,0.0,1.0,
29,5.0,decreament,0.6,100.0,standard,11.0,0.0,1.0,
30,5.0,increament,0.6,100.0,standard,15.0,0.0,1.0,
31,5.0,increament,0.6,100.0,standard,15.0,0.0,1.0,
32,5.0,increament,0.6,100.0,standard,15.0,0.0,1.0,
33,5.0,increament,0.6,100.0,standard,15.0,0.0,1.0,
34,5.0,increament,0.6,100.0,standard,15.0,0.0,1.0,
35,5.0,increament,0.6,100.0,standard,15.0,0.0,1.0,
36,5.0,increament,0.6,100.0,standard,15.0,0.0,1.0,
37,5.0,increament,0.6,100.0,standard,15.0,0.0,1.0,
38,5.0,increament,0.96,160.0,oddball,18.0,0.0,1.0,0.3900703999679535
39,5.0,increament,0.6,100.0,standard,15.0,0.0,1.0,
40,5.0,increament,0.6,100.0,standard,15.0,0.0,1.0,
41,5.0,increament,0.6,100.0,standard,15.0,0.0,1.0,
42,5.0,increament,0.6,100.0,standard,15.0,0.0,1.0,
43,5.0,increament,0.6,100.0,standard,15.0,0.0,1.0,
44,5.0,increament,0.72,120.0,oddball,16.0,0.0,0.0,
45,5.0,increament,0.6,100.0,standard,15.0,0.0,1.0,
46,5.0,increament,0.6,100.0,standard,15.0,0.0,1.0,
47,5.0,increament,0.6,100.0,standard,15.0,0.0,1.0,
48,5.0,increament,0.6,100.0,standard,15.0,0.0,1.0,
49,5.0,increament,0.6,100.0,standard,15.0,0.0,1.0,
50,5.0,increament,0.6,100.0,standard,15.0,0.0,0.0,0.486771099967882
51,5.0,increament,0.84,140.0,oddball,17.0,0.0,0.0,
52,5.0,increament,0.6,100.0,standard,15.0,0.0,1.0,
53,5.0,increament,0.6,100.0,standard,15.0,0.0,1.0,
54,5.0,increament,0.6,100.0,standard,15.0,0.0,1.0,
55,5.0,increament,0.6,100.0,standard,15.0,0.0,1.0,
56,5.0,increament,0.6,100.0,standard,15.0,0.0,0.0,0.3789684998337179
57,5.0,increament,0.6,100.0,standard,15.0,0.0,1.0,
58,5.0,increament,0.6,100.0,standard,15.0,0.0,1.0,
59,5.0,increament,0.6,100.0,standard,15.0,0.0,1.0,
60,5.0,decreament,0.6,100.0,standard,11.0,0.0,1.0,
61,5.0,decreament,0.6,100.0,standard,11.0,0.0,1.0,
62,5.0,decreament,0.6,100.0,standard,11.0,0.0,1.0,
63,5.0,decreament,0.6,100.0,standard,11.0,0.0,1.0,
64,5.0,decreament,0.6,100.0,standard,11.0,0.0,1.0,
65,5.0,decreament,0.6,100.0,standard,11.0,0.0,1.0,
66,5.0,decreament,0.6,100.0,standard,11.0,0.0,1.0,
67,5.0,decreament,0.36,60.0,oddball,13.0,0.0,1.0,0.9353905997704716
68,5.0,decreament,0.6,100.0,standard,11.0,0.0,1.0,
69,5.0,decreament,0.6,100.0,standard,11.0,0.0,1.0,
70,5.0,decreament,0.6,100.0,standard,11.0,0.0,1.0,
71,5.0,decreament,0.6,100.0,standard,11.0,0.0,1.0,
72,5.0,decreament,0.6,100.0,standard,11.0,0.0,0.0,0.8956847998779267
73,5.0,decreament,0.6,100.0,standard,11.0,0.0,1.0,
74,5.0,decreament,0.6,100.0,standard,11.0,0.0,1.0,
75,5.0,decreament,0.48,80.0,oddball,14.0,0.0,1.0,0.965158799663186
76,5.0,decreament,0.6,100.0,standard,11.0,0.0,1.0,
77,5.0,decreament,0.6,100.0,standard,11.0,0.0,1.0,
78,5.0,decreament,0.6,100.0,standard,11.0,0.0,1.0,
79,5.0,decreament,0.6,100.0,standard,11.0,0.0,1.0,
80,5.0,decreament,0.6,100.0,standard,11.0,0.0,0.0,0.9830752997659148
81,5.0,decreament,0.6,100.0,standard,11.0,0.0,1.0,
82,5.0,decreament,0.6,100.0,standard,11.0,0.0,1.0,
83,5.0,decreament,0.6,100.0,standard,11.0,0.0,1.0,
84,5.0,decreament,0.6,100.0,standard,11.0,0.0,1.0,
85,5.0,decreament,0.24,40.0,oddball,12.0,0.0,1.0,0.780846799723804
86,5.0,decreament,0.6,100.0,standard,11.0,0.0,1.0,
87,5.0,decreament,0.6,100.0,standard,11.0,0.0,1.0,
88,5.0,decreament,0.6,100.0,standard,11.0,0.0,1.0,
89,5.0,decreament,0.6,100.0,standard,11.0,0.0,1.0,
90,5.0,increament,0.6,100.0,standard,15.0,0.0,1.0,
91,5.0,increament,0.6,100.0,standard,15.0,0.0,1.0,
92,5.0,increament,0.6,100.0,standard,15.0,0.0,1.0,
93,5.0,increament,0.6,100.0,standard,15.0,0.0,1.0,
94,5.0,increament,0.6,100.0,standard,15.0,0.0,1.0,
95,5.0,increament,0.6,100.0,standard,15.0,0.0,1.0,
96,5.0,increament,0.6,100.0,standard,15.0,0.0,1.0,
97,5.0,increament,0.6,100.0,standard,15.0,0.0,1.0,
98,5.0,increament,0.6,100.0,standard,15.0,0.0,1.0,
99,5.0,increament,0.96,160.0,oddball,18.0,0.0,1.0,0.3624920998699963
100,5.0,increament,0.6,100.0,standard,15.0,0.0,1.0,
101,5.0,increament,0.6,100.0,standard,15.0,0.0,1.0,
102,5.0,increament,0.6,100.0,standard,15.0,0.0,1.0,
103,5.0,increament,0.6,100.0,standard,15.0,0.0,1.0,
104,5.0,increament,0.6,100.0,standard,15.0,0.0,1.0,
105,5.0,increament,0.6,100.0,standard,15.0,0.0,1.0,
106,5.0,increament,0.6,100.0,standard,15.0,0.0,1.0,
107,5.0,increament,0.6,100.0,standard,15.0,0.0,1.0,
108,5.0,increament,0.6,100.0,standard,15.0,0.0,0.0,0.722608899930492
109,5.0,increament,0.6,100.0,standard,15.0,0.0,1.0,
110,5.0,increament,0.6,100.0,standard,15.0,0.0,1.0,
111,5.0,increament,0.72,120.0,oddball,16.0,0.0,0.0,
112,5.0,increament,0.6,100.0,standard,15.0,0.0,1.0,
113,5.0,increament,0.6,100.0,standard,15.0,0.0,1.0,
114,5.0,increament,0.6,100.0,standard,15.0,0.0,0.0,0.477191699668765
115,5.0,increament,0.84,140.0,oddball,17.0,0.0,0.0,
116,5.0,increament,0.6,100.0,standard,15.0,0.0,1.0,
117,5.0,increament,0.6,100.0,standard,15.0,0.0,1.0,
118,5.0,increament,0.6,100.0,standard,15.0,0.0,1.0,
119,5.0,increament,0.6,100.0,standard,15.0,0.0,1.0,
120,5.0,decreament,0.6,100.0,standard,11.0,0.0,1.0,
121,5.0,decreament,0.6,100.0,standard,11.0,0.0,1.0,
122,5.0,decreament,0.6,100.0,standard,11.0,0.0,1.0,
123,5.0,decreament,0.6,100.0,standard,11.0,0.0,1.0,
124,5.0,decreament,0.6,100.0,standard,11.0,0.0,1.0,
125,5.0,decreament,0.6,100.0,standard,11.0,0.0,1.0,
126,5.0,decreament,0.6,100.0,standard,11.0,0.0,1.0,
127,5.0,decreament,0.6,100.0,standard,11.0,0.0,1.0,
128,5.0,decreament,0.6,100.0,standard,11.0,0.0,1.0,
129,5.0,decreament,0.36,60.0,oddball,13.0,0.0,1.0,0.4435789997223764
130,5.0,decreament,0.6,100.0,standard,11.0,0.0,1.0,
131,5.0,decreament,0.6,100.0,standard,11.0,0.0,1.0,
132,5.0,decreament,0.6,100.0,standard,11.0,0.0,1.0,
133,5.0,decreament,0.6,100.0,standard,11.0,0.0,1.0,
134,5.0,decreament,0.6,100.0,standard,11.0,0.0,1.0,
135,5.0,decreament,0.6,100.0,standard,11.0,0.0,1.0,
136,5.0,decreament,0.6,100.0,standard,11.0,0.0,1.0,
137,5.0,decreament,0.6,100.0,standard,11.0,0.0,1.0,
138,5.0,decreament,0.24,40.0,oddball,12.0,0.0,1.0,0.8475358998402953
139,5.0,decreament,0.6,100.0,standard,11.0,0.0,1.0,
140,5.0,decreament,0.6,100.0,standard,11.0,0.0,1.0,
141,5.0,decreament,0.6,100.0,standard,11.0,0.0,1.0,
142,5.0,decreament,0.6,100.0,standard,11.0,0.0,1.0,
143,5.0,decreament,0.6,100.0,standard,11.0,0.0,1.0,
144,5.0,decreament,0.6,100.0,standard,11.0,0.0,1.0,
145,5.0,decreament,0.6,100.0,standard,11.0,0.0,1.0,
146,5.0,decreament,0.6,100.0,standard,11.0,0.0,1.0,
147,5.0,decreament,0.48,80.0,oddball,14.0,0.0,0.0,
148,5.0,decreament,0.6,100.0,standard,11.0,0.0,1.0,
149,5.0,decreament,0.6,100.0,standard,11.0,0.0,1.0,
150,5.0,increament,0.6,100.0,standard,15.0,0.0,1.0,
151,5.0,increament,0.6,100.0,standard,15.0,0.0,1.0,
152,5.0,increament,0.6,100.0,standard,15.0,0.0,1.0,
153,5.0,increament,0.6,100.0,standard,15.0,0.0,1.0,
154,5.0,increament,0.6,100.0,standard,15.0,0.0,1.0,
155,5.0,increament,0.72,120.0,oddball,16.0,0.0,0.0,
156,5.0,increament,0.6,100.0,standard,15.0,0.0,1.0,
157,5.0,increament,0.6,100.0,standard,15.0,0.0,1.0,
158,5.0,increament,0.6,100.0,standard,15.0,0.0,1.0,
159,5.0,increament,0.6,100.0,standard,15.0,0.0,1.0,
160,5.0,increament,0.6,100.0,standard,15.0,0.0,0.0,0.7900865997653455
161,5.0,increament,0.6,100.0,standard,15.0,0.0,1.0,
162,5.0,increament,0.6,100.0,standard,15.0,0.0,1.0,
163,5.0,increament,0.6,100.0,standard,15.0,0.0,1.0,
164,5.0,increament,0.96,160.0,oddball,18.0,0.0,1.0,0.6652760000433773
165,5.0,increament,0.6,100.0,standard,15.0,0.0,1.0,
166,5.0,increament,0.6,100.0,standard,15.0,0.0,1.0,
167,5.0,increament,0.6,100.0,standard,15.0,0.0,1.0,
168,5.0,increament,0.6,100.0,standard,15.0,0.0,1.0,
169,5.0,increament,0.6,100.0,standard,15.0,0.0,1.0,
170,5.0,increament,0.6,100.0,standard,15.0,0.0,1.0,
171,5.0,increament,0.6,100.0,standard,15.0,0.0,1.0,
172,5.0,increament,0.6,100.0,standard,15.0,0.0,1.0,
173,5.0,increament,0.6,100.0,standard,15.0,0.0,1.0,
174,5.0,increament,0.6,100.0,standard,15.0,0.0,1.0,
175,5.0,increament,0.6,100.0,standard,15.0,0.0,1.0,
176,5.0,increament,0.6,100.0,standard,15.0,0.0,1.0,
177,5.0,increament,0.6,100.0,standard,15.0,0.0,0.0,0.5023346000816673
178,5.0,increament,0.84,140.0,oddball,17.0,0.0,1.0,1.2815254998859018
179,5.0,increament,0.6,100.0,standard,15.0,0.0,1.0,
180,5.0,decreament,0.6,100.0,standard,11.0,0.0,1.0,
181,5.0,decreament,0.6,100.0,standard,11.0,0.0,1.0,
182,5.0,decreament,0.6,100.0,standard,11.0,0.0,1.0,
183,5.0,decreament,0.6,100.0,standard,11.0,0.0,1.0,
184,5.0,decreament,0.6,100.0,standard,11.0,0.0,1.0,
185,5.0,decreament,0.6,100.0,standard,11.0,0.0,1.0,
186,5.0,decreament,0.6,100.0,standard,11.0,0.0,1.0,
187,5.0,decreament,0.6,100.0,standard,11.0,0.0,1.0,
188,5.0,decreament,0.6,100.0,standard,11.0,0.0,1.0,
189,5.0,decreament,0.6,100.0,standard,11.0,0.0,1.0,
190,5.0,decreament,0.6,100.0,standard,11.0,0.0,1.0,
191,5.0,decreament,0.6,100.0,standard,11.0,0.0,1.0,
192,5.0,decreament,0.36,60.0,oddball,13.0,0.0,1.0,0.7227438997942954
193,5.0,decreament,0.6,100.0,standard,11.0,0.0,1.0,
194,5.0,decreament,0.6,100.0,standard,11.0,0.0,1.0,
195,5.0,decreament,0.6,100.0,standard,11.0,0.0,1.0,
196,5.0,decreament,0.6,100.0,standard,11.0,0.0,1.0,
197,5.0,decreament,0.6,100.0,standard,11.0,0.0,1.0,
198,5.0,decreament,0.6,100.0,standard,11.0,0.0,1.0,
199,5.0,decreament,0.6,100.0,standard,11.0,0.0,1.0,
200,5.0,decreament,0.6,100.0,standard,11.0,0.0,1.0,
201,5.0,decreament,0.6,100.0,standard,11.0,0.0,1.0,
202,5.0,decreament,0.48,80.0,oddball,14.0,0.0,1.0,0.7072987998835742
203,5.0,decreament,0.6,100.0,standard,11.0,0.0,1.0,
204,5.0,decreament,0.6,100.0,standard,11.0,0.0,1.0,
205,5.0,decreament,0.6,100.0,standard,11.0,0.0,0.0,1.4993446997832507
206,5.0,decreament,0.6,100.0,standard,11.0,0.0,1.0,
207,5.0,decreament,0.6,100.0,standard,11.0,0.0,1.0,
208,5.0,decreament,0.24,40.0,oddball,12.0,0.0,1.0,0.9171124000567944
209,5.0,decreament,0.6,100.0,standard,11.0,0.0,1.0,
210,5.0,increament,0.6,100.0,standard,15.0,0.0,1.0,
211,5.0,increament,0.6,100.0,standard,15.0,0.0,1.0,
212,5.0,increament,0.6,100.0,standard,15.0,0.0,1.0,
213,5.0,increament,0.6,100.0,standard,15.0,0.0,1.0,
214,5.0,increament,0.6,100.0,standard,15.0,0.0,1.0,
215,5.0,increament,0.6,100.0,standard,15.0,0.0,1.0,
216,5.0,increament,0.6,100.0,standard,15.0,0.0,1.0,
217,5.0,increament,0.6,100.0,standard,15.0,0.0,1.0,
218,5.0,increament,0.6,100.0,standard,15.0,0.0,1.0,
219,5.0,increament,0.6,100.0,standard,15.0,0.0,1.0,
220,5.0,increament,0.72,120.0,oddball,16.0,0.0,1.0,0.7799449998419732
221,5.0,increament,0.6,100.0,standard,15.0,0.0,1.0,
222,5.0,increament,0.6,100.0,standard,15.0,0.0,1.0,
223,5.0,increament,0.6,100.0,standard,15.0,0.0,1.0,
224,5.0,increament,0.6,100.0,standard,15.0,0.0,1.0,
225,5.0,increament,0.84,140.0,oddball,17.0,0.0,0.0,
226,5.0,increament,0.6,100.0,standard,15.0,0.0,1.0,
227,5.0,increament,0.6,100.0,standard,15.0,0.0,1.0,
228,5.0,increament,0.6,100.0,standard,15.0,0.0,1.0,
229,5.0,increament,0.6,100.0,standard,15.0,0.0,1.0,
230,5.0,increament,0.6,100.0,standard,15.0,0.0,1.0,
231,5.0,increament,0.6,100.0,standard,15.0,0.0,1.0,
232,5.0,increament,0.96,160.0,oddball,18.0,0.0,1.0,0.5775979997124523
233,5.0,increament,0.6,100.0,standard,15.0,0.0,1.0,
234,5.0,increament,0.6,100.0,standard,15.0,0.0,1.0,
235,5.0,increament,0.6,100.0,standard,15.0,0.0,1.0,
236,5.0,increament,0.6,100.0,standard,15.0,0.0,1.0,
237,5.0,increament,0.6,100.0,standard,15.0,0.0,1.0,
238,5.0,increament,0.6,100.0,standard,15.0,0.0,1.0,
239,5.0,increament,0.6,100.0,standard,15.0,0.0,1.0,
240,5.0,decreament,0.6,100.0,standard,11.0,0.0,1.0,
241,5.0,decreament,0.6,100.0,standard,11.0,0.0,1.0,
242,5.0,decreament,0.6,100.0,standard,11.0,0.0,1.0,
243,5.0,decreament,0.6,100.0,standard,11.0,0.0,1.0,
244,5.0,decreament,0.6,100.0,standard,11.0,0.0,1.0,
245,5.0,decreament,0.6,100.0,standard,11.0,0.0,1.0,
246,5.0,decreament,0.6,100.0,standard,11.0,0.0,1.0,
247,5.0,decreament,0.6,100.0,standard,11.0,0.0,1.0,
248,5.0,decreament,0.36,60.0,oddball,13.0,0.0,1.0,0.8048474998213351
249,5.0,decreament,0.6,100.0,standard,11.0,0.0,1.0,
250,5.0,decreament,0.6,100.0,standard,11.0,0.0,1.0,
251,5.0,decreament,0.6,100.0,standard,11.0,0.0,1.0,
252,5.0,decreament,0.48,80.0,oddball,14.0,0.0,0.0,
253,5.0,decreament,0.6,100.0,standard,11.0,0.0,1.0,
254,5.0,decreament,0.6,100.0,standard,11.0,0.0,1.0,
255,5.0,decreament,0.6,100.0,standard,11.0,0.0,1.0,
256,5.0,decreament,0.24,40.0,oddball,12.0,0.0,1.0,0.9070716998539864
257,5.0,decreament,0.6,100.0,standard,11.0,0.0,1.0,
258,5.0,decreament,0.6,100.0,standard,11.0,0.0,1.0,
259,5.0,decreament,0.6,100.0,standard,11.0,0.0,1.0,
260,5.0,decreament,0.6,100.0,standard,11.0,0.0,0.0,0.8096686999779195
261,5.0,decreament,0.6,100.0,standard,11.0,0.0,1.0,
262,5.0,decreament,0.6,100.0,standard,11.0,0.0,1.0,
263,5.0,decreament,0.6,100.0,standard,11.0,0.0,1.0,
264,5.0,decreament,0.6,100.0,standard,11.0,0.0,1.0,
265,5.0,decreament,0.6,100.0,standard,11.0,0.0,1.0,
266,5.0,decreament,0.6,100.0,standard,11.0,0.0,1.0,
267,5.0,decreament,0.6,100.0,standard,11.0,0.0,1.0,
268,5.0,decreament,0.6,100.0,standard,11.0,0.0,1.0,
269,5.0,decreament,0.6,100.0,standard,11.0,0.0,0.0,0.7303071999922395
270,5.0,increament,0.6,100.0,standard,15.0,0.0,1.0,
271,5.0,increament,0.6,100.0,standard,15.0,0.0,1.0,
272,5.0,increament,0.6,100.0,standard,15.0,0.0,1.0,
273,5.0,increament,0.6,100.0,standard,15.0,0.0,1.0,
274,5.0,increament,0.6,100.0,standard,15.0,0.0,1.0,
275,5.0,increament,0.6,100.0,standard,15.0,0.0,1.0,
276,5.0,increament,0.6,100.0,standard,15.0,0.0,1.0,
277,5.0,increament,0.6,100.0,standard,15.0,0.0,1.0,
278,5.0,increament,0.6,100.0,standard,15.0,0.0,1.0,
279,5.0,increament,0.6,100.0,standard,15.0,0.0,0.0,0.7413267998490483
280,5.0,increament,0.6,100.0,standard,15.0,0.0,1.0,
281,5.0,increament,0.6,100.0,standard,15.0,0.0,1.0,
282,5.0,increament,0.6,100.0,standard,15.0,0.0,1.0,
283,5.0,increament,0.6,100.0,standard,15.0,0.0,1.0,
284,5.0,increament,0.96,160.0,oddball,18.0,0.0,1.0,0.3227446000091731
285,5.0,increament,0.6,100.0,standard,15.0,0.0,1.0,
286,5.0,increament,0.6,100.0,standard,15.0,0.0,1.0,
287,5.0,increament,0.6,100.0,standard,15.0,0.0,1.0,
288,5.0,increament,0.6,100.0,standard,15.0,0.0,1.0,
289,5.0,increament,0.6,100.0,standard,15.0,0.0,1.0,
290,5.0,increament,0.6,100.0,standard,15.0,0.0,1.0,
291,5.0,increament,0.6,100.0,standard,15.0,0.0,1.0,
292,5.0,increament,0.84,140.0,oddball,17.0,0.0,0.0,
293,5.0,increament,0.6,100.0,standard,15.0,0.0,1.0,
294,5.0,increament,0.6,100.0,standard,15.0,0.0,1.0,
295,5.0,increament,0.6,100.0,standard,15.0,0.0,1.0,
296,5.0,increament,0.6,100.0,standard,15.0,0.0,1.0,
297,5.0,increament,0.72,120.0,oddball,16.0,0.0,0.0,
298,5.0,increament,0.6,100.0,standard,15.0,0.0,1.0,
299,5.0,increament,0.6,100.0,standard,15.0,0.0,1.0,
300,0.0,decreament,0.6,100.0,standard,1.0,1.0,1.0,
301,0.0,decreament,0.6,100.0,standard,1.0,1.0,1.0,
302,0.0,decreament,0.6,100.0,standard,1.0,1.0,1.0,
303,0.0,decreament,0.6,100.0,standard,1.0,1.0,1.0,
304,0.0,decreament,0.6,100.0,standard,1.0,1.0,1.0,
305,0.0,decreament,0.6,100.0,standard,1.0,1.0,1.0,
306,0.0,decreament,0.48,80.0,oddball,4.0,1.0,0.0,
307,0.0,decreament,0.6,100.0,standard,1.0,1.0,1.0,
308,0.0,decreament,0.6,100.0,standard,1.0,1.0,1.0,
309,0.0,decreament,0.6,100.0,standard,1.0,1.0,1.0,
310,0.0,decreament,0.6,100.0,standard,1.0,1.0,1.0,
311,0.0,decreament,0.6,100.0,standard,1.0,1.0,0.0,0.9185806999448688
312,0.0,decreament,0.6,100.0,standard,1.0,1.0,1.0,
313,0.0,decreament,0.6,100.0,standard,1.0,1.0,1.0,
314,0.0,decreament,0.36,60.0,oddball,3.0,1.0,1.0,0.9939963999204338
315,0.0,decreament,0.6,100.0,standard,1.0,1.0,1.0,
316,0.0,decreament,0.6,100.0,standard,1.0,1.0,1.0,
317,0.0,decreament,0.6,100.0,standard,1.0,1.0,1.0,
318,0.0,decreament,0.6,100.0,standard,1.0,1.0,1.0,
319,0.0,decreament,0.6,100.0,standard,1.0,1.0,1.0,
320,0.0,decreament,0.6,100.0,standard,1.0,1.0,1.0,
321,0.0,decreament,0.6,100.0,standard,1.0,1.0,1.0,
322,0.0,decreament,0.6,100.0,standard,1.0,1.0,1.0,
323,0.0,decreament,0.6,100.0,standard,1.0,1.0,1.0,
324,0.0,decreament,0.6,100.0,standard,1.0,1.0,1.0,
325,0.0,decreament,0.6,100.0,standard,1.0,1.0,1.0,
326,0.0,decreament,0.24,40.0,oddball,2.0,1.0,1.0,0.7841105998959392
327,0.0,decreament,0.6,100.0,standard,1.0,1.0,1.0,
328,0.0,decreament,0.6,100.0,standard,1.0,1.0,1.0,
329,0.0,decreament,0.6,100.0,standard,1.0,1.0,1.0,
330,0.0,increament,0.6,100.0,standard,5.0,1.0,1.0,
331,0.0,increament,0.6,100.0,standard,5.0,1.0,1.0,
332,0.0,increament,0.6,100.0,standard,5.0,1.0,1.0,
333,0.0,increament,0.6,100.0,standard,5.0,1.0,1.0,
334,0.0,increament,0.6,100.0,standard,5.0,1.0,1.0,
335,0.0,increament,0.6,100.0,standard,5.0,1.0,1.0,
336,0.0,increament,0.6,100.0,standard,5.0,1.0,1.0,
337,0.0,increament,0.6,100.0,standard,5.0,1.0,1.0,
338,0.0,increament,0.6,100.0,standard,5.0,1.0,1.0,
339,0.0,increament,0.6,100.0,standard,5.0,1.0,1.0,
340,0.0,increament,0.6,100.0,standard,5.0,1.0,1.0,
341,0.0,increament,0.6,100.0,standard,5.0,1.0,1.0,
342,0.0,increament,0.6,100.0,standard,5.0,1.0,1.0,
343,0.0,increament,0.6,100.0,standard,5.0,1.0,1.0,
344,0.0,increament,0.6,100.0,standard,5.0,1.0,1.0,
345,0.0,increament,0.6,100.0,standard,5.0,1.0,1.0,
346,0.0,increament,0.6,100.0,standard,5.0,1.0,1.0,
347,0.0,increament,0.84,140.0,oddball,7.0,1.0,0.0,
348,0.0,increament,0.6,100.0,standard,5.0,1.0,1.0,
349,0.0,increament,0.6,100.0,standard,5.0,1.0,0.0,0.3073986999224871
350,0.0,increament,0.6,100.0,standard,5.0,1.0,1.0,
351,0.0,increament,0.96,160.0,oddball,8.0,1.0,1.0,0.4493499998934567
352,0.0,increament,0.6,100.0,standard,5.0,1.0,1.0,
353,0.0,increament,0.6,100.0,standard,5.0,1.0,1.0,
354,0.0,increament,0.6,100.0,standard,5.0,1.0,1.0,
355,0.0,increament,0.6,100.0,standard,5.0,1.0,1.0,
356,0.0,increament,0.72,120.0,oddball,6.0,1.0,0.0,
357,0.0,increament,0.6,100.0,standard,5.0,1.0,1.0,
358,0.0,increament,0.6,100.0,standard,5.0,1.0,1.0,
359,0.0,increament,0.6,100.0,standard,5.0,1.0,1.0,
360,0.0,decreament,0.6,100.0,standard,1.0,1.0,1.0,
361,0.0,decreament,0.6,100.0,standard,1.0,1.0,1.0,
362,0.0,decreament,0.6,100.0,standard,1.0,1.0,1.0,
363,0.0,decreament,0.6,100.0,standard,1.0,1.0,1.0,
364,0.0,decreament,0.6,100.0,standard,1.0,1.0,1.0,
365,0.0,decreament,0.6,100.0,standard,1.0,1.0,1.0,
366,0.0,decreament,0.48,80.0,oddball,4.0,1.0,1.0,0.9056032998487352
367,0.0,decreament,0.6,100.0,standard,1.0,1.0,1.0,
368,0.0,decreament,0.6,100.0,standard,1.0,1.0,1.0,
369,0.0,decreament,0.6,100.0,standard,1.0,1.0,0.0,1.5147469998337328
370,0.0,decreament,0.36,60.0,oddball,3.0,1.0,0.0,
371,0.0,decreament,0.6,100.0,standard,1.0,1.0,1.0,
372,0.0,decreament,0.6,100.0,standard,1.0,1.0,1.0,
373,0.0,decreament,0.6,100.0,standard,1.0,1.0,1.0,
374,0.0,decreament,0.24,40.0,oddball,2.0,1.0,1.0,0.7775835997890681
375,0.0,decreament,0.6,100.0,standard,1.0,1.0,1.0,
376,0.0,decreament,0.6,100.0,standard,1.0,1.0,1.0,
377,0.0,decreament,0.6,100.0,standard,1.0,1.0,1.0,
378,0.0,decreament,0.6,100.0,standard,1.0,1.0,1.0,
379,0.0,decreament,0.6,100.0,standard,1.0,1.0,1.0,
380,0.0,decreament,0.6,100.0,standard,1.0,1.0,1.0,
381,0.0,decreament,0.6,100.0,standard,1.0,1.0,1.0,
382,0.0,decreament,0.6,100.0,standard,1.0,1.0,1.0,
383,0.0,decreament,0.6,100.0,standard,1.0,1.0,1.0,
384,0.0,decreament,0.6,100.0,standard,1.0,1.0,1.0,
385,0.0,decreament,0.6,100.0,standard,1.0,1.0,1.0,
386,0.0,decreament,0.6,100.0,standard,1.0,1.0,0.0,1.0624247000087053
387,0.0,decreament,0.6,100.0,standard,1.0,1.0,1.0,
388,0.0,decreament,0.6,100.0,standard,1.0,1.0,1.0,
389,0.0,decreament,0.6,100.0,standard,1.0,1.0,1.0,
390,0.0,increament,0.6,100.0,standard,5.0,1.0,1.0,
391,0.0,increament,0.6,100.0,standard,5.0,1.0,1.0,
392,0.0,increament,0.6,100.0,standard,5.0,1.0,1.0,
393,0.0,increament,0.6,100.0,standard,5.0,1.0,1.0,
394,0.0,increament,0.6,100.0,standard,5.0,1.0,1.0,
395,0.0,increament,0.72,120.0,oddball,6.0,1.0,0.0,
396,0.0,increament,0.6,100.0,standard,5.0,1.0,1.0,
397,0.0,increament,0.6,100.0,standard,5.0,1.0,1.0,
398,0.0,increament,0.6,100.0,standard,5.0,1.0,1.0,
399,0.0,increament,0.6,100.0,standard,5.0,1.0,1.0,
400,0.0,increament,0.6,100.0,standard,5.0,1.0,1.0,
401,0.0,increament,0.6,100.0,standard,5.0,1.0,1.0,
402,0.0,increament,0.6,100.0,standard,5.0,1.0,0.0,0.2370516997762024
403,0.0,increament,0.6,100.0,standard,5.0,1.0,1.0,
404,0.0,increament,0.6,100.0,standard,5.0,1.0,1.0,
405,0.0,increament,0.6,100.0,standard,5.0,1.0,1.0,
406,0.0,increament,0.6,100.0,standard,5.0,1.0,1.0,
407,0.0,increament,0.84,140.0,oddball,7.0,1.0,1.0,0.6693353999871761
408,0.0,increament,0.6,100.0,standard,5.0,1.0,1.0,
409,0.0,increament,0.6,100.0,standard,5.0,1.0,1.0,
410,0.0,increament,0.6,100.0,standard,5.0,1.0,1.0,
411,0.0,increament,0.6,100.0,standard,5.0,1.0,1.0,
412,0.0,increament,0.96,160.0,oddball,8.0,1.0,1.0,0.4762130999006331
413,0.0,increament,0.6,100.0,standard,5.0,1.0,1.0,
414,0.0,increament,0.6,100.0,standard,5.0,1.0,1.0,
415,0.0,increament,0.6,100.0,standard,5.0,1.0,1.0,
416,0.0,increament,0.6,100.0,standard,5.0,1.0,1.0,
417,0.0,increament,0.6,100.0,standard,5.0,1.0,1.0,
418,0.0,increament,0.6,100.0,standard,5.0,1.0,1.0,
419,0.0,increament,0.6,100.0,standard,5.0,1.0,1.0,
420,0.0,decreament,0.6,100.0,standard,1.0,1.0,1.0,
421,0.0,decreament,0.6,100.0,standard,1.0,1.0,1.0,
422,0.0,decreament,0.6,100.0,standard,1.0,1.0,1.0,
423,0.0,decreament,0.6,100.0,standard,1.0,1.0,1.0,
424,0.0,decreament,0.6,100.0,standard,1.0,1.0,1.0,
425,0.0,decreament,0.6,100.0,standard,1.0,1.0,1.0,
426,0.0,decreament,0.6,100.0,standard,1.0,1.0,1.0,
427,0.0,decreament,0.6,100.0,standard,1.0,1.0,1.0,
428,0.0,decreament,0.6,100.0,standard,1.0,1.0,1.0,
429,0.0,decreament,0.6,100.0,standard,1.0,1.0,1.0,
430,0.0,decreament,0.6,100.0,standard,1.0,1.0,0.0,0.4444387999828905
431,0.0,decreament,0.6,100.0,standard,1.0,1.0,1.0,
432,0.0,decreament,0.6,100.0,standard,1.0,1.0,1.0,
433,0.0,decreament,0.6,100.0,standard,1.0,1.0,1.0,
434,0.0,decreament,0.6,100.0,standard,1.0,1.0,1.0,
435,0.0,decreament,0.6,100.0,standard,1.0,1.0,1.0,
436,0.0,decreament,0.6,100.0,standard,1.0,1.0,0.0,1.5023796998430043
437,0.0,decreament,0.24,40.0,oddball,2.0,1.0,1.0,0.803204600000754
438,0.0,decreament,0.6,100.0,standard,1.0,1.0,1.0,
439,0.0,decreament,0.6,100.0,standard,1.0,1.0,1.0,
440,0.0,decreament,0.6,100.0,standard,1.0,1.0,1.0,
441,0.0,decreament,0.6,100.0,standard,1.0,1.0,1.0,
442,0.0,decreament,0.6,100.0,standard,1.0,1.0,1.0,
443,0.0,decreament,0.6,100.0,standard,1.0,1.0,1.0,
444,0.0,decreament,0.36,60.0,oddball,3.0,1.0,1.0,0.6498751998879015
445,0.0,decreament,0.6,100.0,standard,1.0,1.0,1.0,
446,0.0,decreament,0.6,100.0,standard,1.0,1.0,1.0,
447,0.0,decreament,0.6,100.0,standard,1.0,1.0,1.0,
448,0.0,decreament,0.6,100.0,standard,1.0,1.0,1.0,
449,0.0,decreament,0.48,80.0,oddball,4.0,1.0,0.0,
450,0.0,increament,0.6,100.0,standard,5.0,1.0,1.0,
451,0.0,increament,0.6,100.0,standard,5.0,1.0,1.0,
452,0.0,increament,0.6,100.0,standard,5.0,1.0,1.0,
453,0.0,increament,0.6,100.0,standard,5.0,1.0,1.0,
454,0.0,increament,0.6,100.0,standard,5.0,1.0,1.0,
455,0.0,increament,0.6,100.0,standard,5.0,1.0,1.0,
456,0.0,increament,0.6,100.0,standard,5.0,1.0,1.0,
457,0.0,increament,0.6,100.0,standard,5.0,1.0,1.0,
458,0.0,increament,0.6,100.0,standard,5.0,1.0,0.0,0.6246631999965757
459,0.0,increament,0.6,100.0,standard,5.0,1.0,1.0,
460,0.0,increament,0.6,100.0,standard,5.0,1.0,1.0,
461,0.0,increament,0.6,100.0,standard,5.0,1.0,1.0,
462,0.0,increament,0.6,100.0,standard,5.0,1.0,1.0,
463,0.0,increament,0.72,120.0,oddball,6.0,1.0,0.0,
464,0.0,increament,0.6,100.0,standard,5.0,1.0,1.0,
465,0.0,increament,0.6,100.0,standard,5.0,1.0,1.0,
466,0.0,increament,0.6,100.0,standard,5.0,1.0,1.0,
467,0.0,increament,0.6,100.0,standard,5.0,1.0,1.0,
468,0.0,increament,0.6,100.0,standard,5.0,1.0,1.0,
469,0.0,increament,0.96,160.0,oddball,8.0,1.0,0.0,
470,0.0,increament,0.6,100.0,standard,5.0,1.0,0.0,0.3477026999462396
471,0.0,increament,0.6,100.0,standard,5.0,1.0,1.0,
472,0.0,increament,0.6,100.0,standard,5.0,1.0,1.0,
473,0.0,increament,0.84,140.0,oddball,7.0,1.0,0.0,
474,0.0,increament,0.6,100.0,standard,5.0,1.0,1.0,
475,0.0,increament,0.6,100.0,standard,5.0,1.0,1.0,
476,0.0,increament,0.6,100.0,standard,5.0,1.0,1.0,
477,0.0,increament,0.6,100.0,standard,5.0,1.0,1.0,
478,0.0,increament,0.6,100.0,standard,5.0,1.0,1.0,
479,0.0,increament,0.6,100.0,standard,5.0,1.0,1.0,
480,0.0,decreament,0.6,100.0,standard,1.0,1.0,1.0,
481,0.0,decreament,0.6,100.0,standard,1.0,1.0,1.0,
482,0.0,decreament,0.6,100.0,standard,1.0,1.0,1.0,
483,0.0,decreament,0.6,100.0,standard,1.0,1.0,1.0,
484,0.0,decreament,0.6,100.0,standard,1.0,1.0,1.0,
485,0.0,decreament,0.6,100.0,standard,1.0,1.0,1.0,
486,0.0,decreament,0.6,100.0,standard,1.0,1.0,1.0,
487,0.0,decreament,0.24,40.0,oddball,2.0,1.0,1.0,0.9900213999208064
488,0.0,decreament,0.6,100.0,standard,1.0,1.0,1.0,
489,0.0,decreament,0.6,100.0,standard,1.0,1.0,1.0,
490,0.0,decreament,0.6,100.0,standard,1.0,1.0,1.0,
491,0.0,decreament,0.6,100.0,standard,1.0,1.0,1.0,
492,0.0,decreament,0.6,100.0,standard,1.0,1.0,0.0,0.8422339998651296
493,0.0,decreament,0.6,100.0,standard,1.0,1.0,1.0,
494,0.0,decreament,0.48,80.0,oddball,4.0,1.0,0.0,
495,0.0,decreament,0.6,100.0,standard,1.0,1.0,1.0,
496,0.0,decreament,0.6,100.0,standard,1.0,1.0,1.0,
497,0.0,decreament,0.6,100.0,standard,1.0,1.0,1.0,
498,0.0,decreament,0.6,100.0,standard,1.0,1.0,1.0,
499,0.0,decreament,0.6,100.0,standard,1.0,1.0,1.0,
500,0.0,decreament,0.6,100.0,standard,1.0,1.0,1.0,
501,0.0,decreament,0.36,60.0,oddball,3.0,1.0,1.0,0.7445794998202473
502,0.0,decreament,0.6,100.0,standard,1.0,1.0,1.0,
503,0.0,decreament,0.6,100.0,standard,1.0,1.0,1.0,
504,0.0,decreament,0.6,100.0,standard,1.0,1.0,1.0,
505,0.0,decreament,0.6,100.0,standard,1.0,1.0,1.0,
506,0.0,decreament,0.6,100.0,standard,1.0,1.0,1.0,
507,0.0,decreament,0.6,100.0,standard,1.0,1.0,1.0,
508,0.0,decreament,0.6,100.0,standard,1.0,1.0,1.0,
509,0.0,decreament,0.6,100.0,standard,1.0,1.0,1.0,
510,0.0,increament,0.6,100.0,standard,5.0,1.0,1.0,
511,0.0,increament,0.6,100.0,standard,5.0,1.0,1.0,
512,0.0,increament,0.6,100.0,standard,5.0,1.0,1.0,
513,0.0,increament,0.6,100.0,standard,5.0,1.0,1.0,
514,0.0,increament,0.6,100.0,standard,5.0,1.0,1.0,
515,0.0,increament,0.6,100.0,standard,5.0,1.0,1.0,
516,0.0,increament,0.6,100.0,standard,5.0,1.0,1.0,
517,0.0,increament,0.6,100.0,standard,5.0,1.0,1.0,
518,0.0,increament,0.6,100.0,standard,5.0,1.0,1.0,
519,0.0,increament,0.6,100.0,standard,5.0,1.0,1.0,
520,0.0,increament,0.72,120.0,oddball,6.0,1.0,0.0,
521,0.0,increament,0.6,100.0,standard,5.0,1.0,1.0,
522,0.0,increament,0.6,100.0,standard,5.0,1.0,1.0,
523,0.0,increament,0.6,100.0,standard,5.0,1.0,1.0,
524,0.0,increament,0.6,100.0,standard,5.0,1.0,1.0,
525,0.0,increament,0.84,140.0,oddball,7.0,1.0,1.0,0.1156203998252749
526,0.0,increament,0.6,100.0,standard,5.0,1.0,1.0,
527,0.0,increament,0.6,100.0,standard,5.0,1.0,1.0,
528,0.0,increament,0.6,100.0,standard,5.0,1.0,1.0,
529,0.0,increament,0.6,100.0,standard,5.0,1.0,1.0,
530,0.0,increament,0.6,100.0,standard,5.0,1.0,1.0,
531,0.0,increament,0.6,100.0,standard,5.0,1.0,1.0,
532,0.0,increament,0.96,160.0,oddball,8.0,1.0,1.0,0.025818099733442
533,0.0,increament,0.6,100.0,standard,5.0,1.0,1.0,
534,0.0,increament,0.6,100.0,standard,5.0,1.0,1.0,
535,0.0,increament,0.6,100.0,standard,5.0,1.0,1.0,
536,0.0,increament,0.6,100.0,standard,5.0,1.0,0.0,0.7207492997404188
537,0.0,increament,0.6,100.0,standard,5.0,1.0,1.0,
538,0.0,increament,0.6,100.0,standard,5.0,1.0,1.0,
539,0.0,increament,0.6,100.0,standard,5.0,1.0,1.0,
540,0.0,decreament,0.6,100.0,standard,1.0,1.0,1.0,
541,0.0,decreament,0.6,100.0,standard,1.0,1.0,1.0,
542,0.0,decreament,0.6,100.0,standard,1.0,1.0,1.0,
543,0.0,decreament,0.6,100.0,standard,1.0,1.0,1.0,
544,0.0,decreament,0.6,100.0,standard,1.0,1.0,1.0,
545,0.0,decreament,0.6,100.0,standard,1.0,1.0,1.0,
546,0.0,decreament,0.6,100.0,standard,1.0,1.0,1.0,
547,0.0,decreament,0.6,100.0,standard,1.0,1.0,1.0,
548,0.0,decreament,0.6,100.0,standard,1.0,1.0,1.0,
549,0.0,decreament,0.6,100.0,standard,1.0,1.0,1.0,
550,0.0,decreament,0.6,100.0,standard,1.0,1.0,1.0,
551,0.0,decreament,0.6,100.0,standard,1.0,1.0,1.0,
552,0.0,decreament,0.6,100.0,standard,1.0,1.0,0.0,0.7686371000017971
553,0.0,decreament,0.24,40.0,oddball,2.0,1.0,1.0,0.5904631998855621
554,0.0,decreament,0.6,100.0,standard,1.0,1.0,1.0,
555,0.0,decreament,0.6,100.0,standard,1.0,1.0,1.0,
556,0.0,decreament,0.6,100.0,standard,1.0,1.0,1.0,
557,0.0,decreament,0.6,100.0,standard,1.0,1.0,1.0,
558,0.0,decreament,0.36,60.0,oddball,3.0,1.0,0.0,
559,0.0,decreament,0.6,100.0,standard,1.0,1.0,1.0,
560,0.0,decreament,0.6,100.0,standard,1.0,1.0,0.0,0.5912212997209281
561,0.0,decreament,0.6,100.0,standard,1.0,1.0,1.0,
562,0.0,decreament,0.6,100.0,standard,1.0,1.0,1.0,
563,0.0,decreament,0.6,100.0,standard,1.0,1.0,1.0,
564,0.0,decreament,0.48,80.0,oddball,4.0,1.0,0.0,
565,0.0,decreament,0.6,100.0,standard,1.0,1.0,1.0,
566,0.0,decreament,0.6,100.0,standard,1.0,1.0,1.0,
567,0.0,decreament,0.6,100.0,standard,1.0,1.0,1.0,
568,0.0,decreament,0.6,100.0,standard,1.0,1.0,1.0,
569,0.0,decreament,0.6,100.0,standard,1.0,1.0,1.0,
570,0.0,increament,0.6,100.0,standard,5.0,1.0,1.0,
571,0.0,increament,0.6,100.0,standard,5.0,1.0,1.0,
572,0.0,increament,0.6,100.0,standard,5.0,1.0,1.0,
573,0.0,increament,0.6,100.0,standard,5.0,1.0,1.0,
574,0.0,increament,0.6,100.0,standard,5.0,1.0,1.0,
575,0.0,increament,0.6,100.0,standard,5.0,1.0,1.0,
576,0.0,increament,0.6,100.0,standard,5.0,1.0,1.0,
577,0.0,increament,0.6,100.0,standard,5.0,1.0,1.0,
578,0.0,increament,0.84,140.0,oddball,7.0,1.0,1.0,0.463643099879846
579,0.0,increament,0.6,100.0,standard,5.0,1.0,1.0,
580,0.0,increament,0.6,100.0,standard,5.0,1.0,1.0,
581,0.0,increament,0.6,100.0,standard,5.0,1.0,1.0,
582,0.0,increament,0.6,100.0,standard,5.0,1.0,1.0,
583,0.0,increament,0.6,100.0,standard,5.0,1.0,1.0,
584,0.0,increament,0.6,100.0,standard,5.0,1.0,1.0,
585,0.0,increament,0.6,100.0,standard,5.0,1.0,1.0,
586,0.0,increament,0.6,100.0,standard,5.0,1.0,1.0,
587,0.0,increament,0.6,100.0,standard,5.0,1.0,1.0,
588,0.0,increament,0.6,100.0,standard,5.0,1.0,1.0,
589,0.0,increament,0.6,100.0,standard,5.0,1.0,1.0,
590,0.0,increament,0.6,100.0,standard,5.0,1.0,1.0,
591,0.0,increament,0.6,100.0,standard,5.0,1.0,1.0,
592,0.0,increament,0.6,100.0,standard,5.0,1.0,0.0,0.7177226997446269
593,0.0,increament,0.6,100.0,standard,5.0,1.0,1.0,
594,0.0,increament,0.72,120.0,oddball,6.0,1.0,0.0,
595,0.0,increament,0.6,100.0,standard,5.0,1.0,1.0,
596,0.0,increament,0.6,100.0,standard,5.0,1.0,1.0,
597,0.0,increament,0.6,100.0,standard,5.0,1.0,1.0,
598,0.0,increament,0.6,100.0,standard,5.0,1.0,1.0,
599,0.0,increament,0.96,160.0,oddball,8.0,1.0,0.0,
600,20.0,decreament,0.6,100.0,standard,41.0,2.0,1.0,
601,20.0,decreament,0.6,100.0,standard,41.0,2.0,1.0,
602,20.0,decreament,0.6,100.0,standard,41.0,2.0,1.0,
603,20.0,decreament,0.6,100.0,standard,41.0,2.0,1.0,
604,20.0,decreament,0.6,100.0,standard,41.0,2.0,1.0,
605,20.0,decreament,0.6,100.0,standard,41.0,2.0,1.0,
606,20.0,decreament,0.6,100.0,standard,41.0,2.0,1.0,
607,20.0,decreament,0.6,100.0,standard,41.0,2.0,1.0,
608,20.0,decreament,0.6,100.0,standard,41.0,2.0,1.0,
609,20.0,decreament,0.6,100.0,standard,41.0,2.0,1.0,
610,20.0,decreament,0.6,100.0,standard,41.0,2.0,1.0,
611,20.0,decreament,0.36,60.0,oddball,43.0,2.0,1.0,0.8662845999933779
612,20.0,decreament,0.6,100.0,standard,41.0,2.0,1.0,
613,20.0,decreament,0.6,100.0,standard,41.0,2.0,1.0,
614,20.0,decreament,0.6,100.0,standard,41.0,2.0,1.0,
615,20.0,decreament,0.6,100.0,standard,41.0,2.0,1.0,
616,20.0,decreament,0.6,100.0,standard,41.0,2.0,1.0,
617,20.0,decreament,0.6,100.0,standard,41.0,2.0,1.0,
618,20.0,decreament,0.6,100.0,standard,41.0,2.0,1.0,
619,20.0,decreament,0.6,100.0,standard,41.0,2.0,1.0,
620,20.0,decreament,0.24,40.0,oddball,42.0,2.0,1.0,0.702866300009191
621,20.0,decreament,0.6,100.0,standard,41.0,2.0,0.0,0.8411624999716878
622,20.0,decreament,0.6,100.0,standard,41.0,2.0,1.0,
623,20.0,decreament,0.6,100.0,standard,41.0,2.0,1.0,
624,20.0,decreament,0.6,100.0,standard,41.0,2.0,1.0,
625,20.0,decreament,0.6,100.0,standard,41.0,2.0,1.0,
626,20.0,decreament,0.6,100.0,standard,41.0,2.0,1.0,
627,20.0,decreament,0.6,100.0,standard,41.0,2.0,1.0,
628,20.0,decreament,0.6,100.0,standard,41.0,2.0,1.0,
629,20.0,decreament,0.48,80.0,oddball,44.0,2.0,1.0,1.0263815999496728
630,20.0,increament,0.6,100.0,standard,45.0,2.0,1.0,
631,20.0,increament,0.6,100.0,standard,45.0,2.0,1.0,
632,20.0,increament,0.6,100.0,standard,45.0,2.0,1.0,
633,20.0,increament,0.6,100.0,standard,45.0,2.0,1.0,
634,20.0,increament,0.6,100.0,standard,45.0,2.0,1.0,
635,20.0,increament,0.6,100.0,standard,45.0,2.0,1.0,
636,20.0,increament,0.6,100.0,standard,45.0,2.0,1.0,
637,20.0,increament,0.6,100.0,standard,45.0,2.0,1.0,
638,20.0,increament,0.6,100.0,standard,45.0,2.0,1.0,
639,20.0,increament,0.6,100.0,standard,45.0,2.0,1.0,
640,20.0,increament,0.72,120.0,oddball,46.0,2.0,1.0,0.8189149999525398
641,20.0,increament,0.6,100.0,standard,45.0,2.0,1.0,
642,20.0,increament,0.6,100.0,standard,45.0,2.0,1.0,
643,20.0,increament,0.6,100.0,standard,45.0,2.0,1.0,
644,20.0,increament,0.6,100.0,standard,45.0,2.0,1.0,
645,20.0,increament,0.6,100.0,standard,45.0,2.0,1.0,
646,20.0,increament,0.6,100.0,standard,45.0,2.0,1.0,
647,20.0,increament,0.6,100.0,standard,45.0,2.0,1.0,
648,20.0,increament,0.84,140.0,oddball,47.0,2.0,0.0,
649,20.0,increament,0.6,100.0,standard,45.0,2.0,1.0,
650,20.0,increament,0.6,100.0,standard,45.0,2.0,1.0,
651,20.0,increament,0.6,100.0,standard,45.0,2.0,1.0,
652,20.0,increament,0.6,100.0,standard,45.0,2.0,1.0,
653,20.0,increament,0.96,160.0,oddball,48.0,2.0,1.0,0.446438199840486
654,20.0,increament,0.6,100.0,standard,45.0,2.0,1.0,
655,20.0,increament,0.6,100.0,standard,45.0,2.0,1.0,
656,20.0,increament,0.6,100.0,standard,45.0,2.0,1.0,
657,20.0,increament,0.6,100.0,standard,45.0,2.0,1.0,
658,20.0,increament,0.6,100.0,standard,45.0,2.0,1.0,
659,20.0,increament,0.6,100.0,standard,45.0,2.0,1.0,
660,20.0,decreament,0.6,100.0,standard,41.0,2.0,1.0,
661,20.0,decreament,0.6,100.0,standard,41.0,2.0,1.0,
662,20.0,decreament,0.6,100.0,standard,41.0,2.0,1.0,
663,20.0,decreament,0.6,100.0,standard,41.0,2.0,1.0,
664,20.0,decreament,0.6,100.0,standard,41.0,2.0,1.0,
665,20.0,decreament,0.6,100.0,standard,41.0,2.0,1.0,
666,20.0,decreament,0.6,100.0,standard,41.0,2.0,1.0,
667,20.0,decreament,0.24,40.0,oddball,42.0,2.0,1.0,0.6915658998768777
668,20.0,decreament,0.6,100.0,standard,41.0,2.0,1.0,
669,20.0,decreament,0.6,100.0,standard,41.0,2.0,1.0,
670,20.0,decreament,0.6,100.0,standard,41.0,2.0,1.0,
671,20.0,decreament,0.6,100.0,standard,41.0,2.0,1.0,
672,20.0,decreament,0.6,100.0,standard,41.0,2.0,1.0,
673,20.0,decreament,0.6,100.0,standard,41.0,2.0,1.0,
674,20.0,decreament,0.6,100.0,standard,41.0,2.0,1.0,
675,20.0,decreament,0.6,100.0,standard,41.0,2.0,1.0,
676,20.0,decreament,0.36,60.0,oddball,43.0,2.0,1.0,0.6801108000800014
677,20.0,decreament,0.6,100.0,standard,41.0,2.0,1.0,
678,20.0,decreament,0.6,100.0,standard,41.0,2.0,1.0,
679,20.0,decreament,0.6,100.0,standard,41.0,2.0,1.0,
680,20.0,decreament,0.6,100.0,standard,41.0,2.0,1.0,
681,20.0,decreament,0.48,80.0,oddball,44.0,2.0,0.0,
682,20.0,decreament,0.6,100.0,standard,41.0,2.0,1.0,
683,20.0,decreament,0.6,100.0,standard,41.0,2.0,1.0,
684,20.0,decreament,0.6,100.0,standard,41.0,2.0,1.0,
685,20.0,decreament,0.6,100.0,standard,41.0,2.0,1.0,
686,20.0,decreament,0.6,100.0,standard,41.0,2.0,1.0,
687,20.0,decreament,0.6,100.0,standard,41.0,2.0,1.0,
688,20.0,decreament,0.6,100.0,standard,41.0,2.0,1.0,
689,20.0,decreament,0.6,100.0,standard,41.0,2.0,1.0,
690,20.0,increament,0.6,100.0,standard,45.0,2.0,1.0,
691,20.0,increament,0.6,100.0,standard,45.0,2.0,1.0,
692,20.0,increament,0.6,100.0,standard,45.0,2.0,1.0,
693,20.0,increament,0.6,100.0,standard,45.0,2.0,1.0,
694,20.0,increament,0.6,100.0,standard,45.0,2.0,1.0,
695,20.0,increament,0.6,100.0,standard,45.0,2.0,1.0,
696,20.0,increament,0.6,100.0,standard,45.0,2.0,1.0,
697,20.0,increament,0.6,100.0,standard,45.0,2.0,1.0,
698,20.0,increament,0.6,100.0,standard,45.0,2.0,1.0,
699,20.0,increament,0.6,100.0,standard,45.0,2.0,1.0,
700,20.0,increament,0.96,160.0,oddball,48.0,2.0,1.0,0.5714535997249186
701,20.0,increament,0.6,100.0,standard,45.0,2.0,1.0,
702,20.0,increament,0.6,100.0,standard,45.0,2.0,1.0,
703,20.0,increament,0.6,100.0,standard,45.0,2.0,1.0,
704,20.0,increament,0.6,100.0,standard,45.0,2.0,1.0,
705,20.0,increament,0.6,100.0,standard,45.0,2.0,1.0,
706,20.0,increament,0.84,140.0,oddball,47.0,2.0,0.0,
707,20.0,increament,0.6,100.0,standard,45.0,2.0,1.0,
708,20.0,increament,0.6,100.0,standard,45.0,2.0,1.0,
709,20.0,increament,0.6,100.0,standard,45.0,2.0,1.0,
710,20.0,increament,0.6,100.0,standard,45.0,2.0,0.0,0.6665971998590976
711,20.0,increament,0.6,100.0,standard,45.0,2.0,0.0,0.6102462997660041
712,20.0,increament,0.6,100.0,standard,45.0,2.0,1.0,
713,20.0,increament,0.72,120.0,oddball,46.0,2.0,0.0,
714,20.0,increament,0.6,100.0,standard,45.0,2.0,1.0,
715,20.0,increament,0.6,100.0,standard,45.0,2.0,1.0,
716,20.0,increament,0.6,100.0,standard,45.0,2.0,1.0,
717,20.0,increament,0.6,100.0,standard,45.0,2.0,1.0,
718,20.0,increament,0.6,100.0,standard,45.0,2.0,1.0,
719,20.0,increament,0.6,100.0,standard,45.0,2.0,1.0,
720,20.0,decreament,0.6,100.0,standard,41.0,2.0,1.0,
721,20.0,decreament,0.6,100.0,standard,41.0,2.0,1.0,
722,20.0,decreament,0.6,100.0,standard,41.0,2.0,1.0,
723,20.0,decreament,0.6,100.0,standard,41.0,2.0,1.0,
724,20.0,decreament,0.6,100.0,standard,41.0,2.0,1.0,
725,20.0,decreament,0.24,40.0,oddball,42.0,2.0,1.0,1.0778072997927666
726,20.0,decreament,0.6,100.0,standard,41.0,2.0,1.0,
727,20.0,decreament,0.6,100.0,standard,41.0,2.0,1.0,
728,20.0,decreament,0.6,100.0,standard,41.0,2.0,1.0,
729,20.0,decreament,0.6,100.0,standard,41.0,2.0,1.0,
730,20.0,decreament,0.6,100.0,standard,41.0,2.0,1.0,
731,20.0,decreament,0.6,100.0,standard,41.0,2.0,1.0,
732,20.0,decreament,0.6,100.0,standard,41.0,2.0,0.0,0.7164073998574167
733,20.0,decreament,0.6,100.0,standard,41.0,2.0,1.0,
734,20.0,decreament,0.6,100.0,standard,41.0,2.0,1.0,
735,20.0,decreament,0.6,100.0,standard,41.0,2.0,1.0,
736,20.0,decreament,0.6,100.0,standard,41.0,2.0,1.0,
737,20.0,decreament,0.6,100.0,standard,41.0,2.0,1.0,
738,20.0,decreament,0.6,100.0,standard,41.0,2.0,0.0,0.7164304999168962
739,20.0,decreament,0.6,100.0,standard,41.0,2.0,1.0,
740,20.0,decreament,0.6,100.0,standard,41.0,2.0,1.0,
741,20.0,decreament,0.6,100.0,standard,41.0,2.0,1.0,
742,20.0,decreament,0.6,100.0,standard,41.0,2.0,1.0,
743,20.0,decreament,0.48,80.0,oddball,44.0,2.0,1.0,0.484676499851048
744,20.0,decreament,0.6,100.0,standard,41.0,2.0,1.0,
745,20.0,decreament,0.6,100.0,standard,41.0,2.0,1.0,
746,20.0,decreament,0.6,100.0,standard,41.0,2.0,1.0,
747,20.0,decreament,0.36,60.0,oddball,43.0,2.0,1.0,0.7157265997957438
748,20.0,decreament,0.6,100.0,standard,41.0,2.0,1.0,
749,20.0,decreament,0.6,100.0,standard,41.0,2.0,1.0,
750,20.0,increament,0.6,100.0,standard,45.0,2.0,1.0,
751,20.0,increament,0.6,100.0,standard,45.0,2.0,1.0,
752,20.0,increament,0.6,100.0,standard,45.0,2.0,1.0,
753,20.0,increament,0.6,100.0,standard,45.0,2.0,1.0,
754,20.0,increament,0.6,100.0,standard,45.0,2.0,1.0,
755,20.0,increament,0.72,120.0,oddball,46.0,2.0,0.0,
756,20.0,increament,0.6,100.0,standard,45.0,2.0,1.0,
757,20.0,increament,0.6,100.0,standard,45.0,2.0,0.0,0.5126422999892384
758,20.0,increament,0.6,100.0,standard,45.0,2.0,1.0,
759,20.0,increament,0.6,100.0,standard,45.0,2.0,1.0,
760,20.0,increament,0.6,100.0,standard,45.0,2.0,1.0,
761,20.0,increament,0.6,100.0,standard,45.0,2.0,1.0,
762,20.0,increament,0.6,100.0,standard,45.0,2.0,1.0,
763,20.0,increament,0.6,100.0,standard,45.0,2.0,1.0,
764,20.0,increament,0.6,100.0,standard,45.0,2.0,1.0,
765,20.0,increament,0.84,140.0,oddball,47.0,2.0,1.0,0.4642494998406619
766,20.0,increament,0.6,100.0,standard,45.0,2.0,1.0,
767,20.0,increament,0.6,100.0,standard,45.0,2.0,1.0,
768,20.0,increament,0.6,100.0,standard,45.0,2.0,1.0,
769,20.0,increament,0.6,100.0,standard,45.0,2.0,1.0,
770,20.0,increament,0.6,100.0,standard,45.0,2.0,1.0,
771,20.0,increament,0.6,100.0,standard,45.0,2.0,1.0,
772,20.0,increament,0.96,160.0,oddball,48.0,2.0,1.0,0.4515004998538643
773,20.0,increament,0.6,100.0,standard,45.0,2.0,1.0,
774,20.0,increament,0.6,100.0,standard,45.0,2.0,1.0,
775,20.0,increament,0.6,100.0,standard,45.0,2.0,1.0,
776,20.0,increament,0.6,100.0,standard,45.0,2.0,1.0,
777,20.0,increament,0.6,100.0,standard,45.0,2.0,1.0,
778,20.0,increament,0.6,100.0,standard,45.0,2.0,0.0,0.5419566996861249
779,20.0,increament,0.6,100.0,standard,45.0,2.0,1.0,
780,20.0,decreament,0.6,100.0,standard,41.0,2.0,1.0,
781,20.0,decreament,0.6,100.0,standard,41.0,2.0,1.0,
782,20.0,decreament,0.6,100.0,standard,41.0,2.0,1.0,
783,20.0,decreament,0.6,100.0,standard,41.0,2.0,1.0,
784,20.0,decreament,0.6,100.0,standard,41.0,2.0,1.0,
785,20.0,decreament,0.6,100.0,standard,41.0,2.0,1.0,
786,20.0,decreament,0.6,100.0,standard,41.0,2.0,1.0,
787,20.0,decreament,0.6,100.0,standard,41.0,2.0,1.0,
788,20.0,decreament,0.6,100.0,standard,41.0,2.0,1.0,
789,20.0,decreament,0.6,100.0,standard,41.0,2.0,0.0,0.6642978000454605
790,20.0,decreament,0.6,100.0,standard,41.0,2.0,1.0,
791,20.0,decreament,0.6,100.0,standard,41.0,2.0,1.0,
792,20.0,decreament,0.6,100.0,standard,41.0,2.0,1.0,
793,20.0,decreament,0.6,100.0,standard,41.0,2.0,1.0,
794,20.0,decreament,0.6,100.0,standard,41.0,2.0,1.0,
795,20.0,decreament,0.6,100.0,standard,41.0,2.0,1.0,
796,20.0,decreament,0.24,40.0,oddball,42.0,2.0,1.0,0.7192764999344945
797,20.0,decreament,0.6,100.0,standard,41.0,2.0,1.0,
798,20.0,decreament,0.6,100.0,standard,41.0,2.0,1.0,
799,20.0,decreament,0.6,100.0,standard,41.0,2.0,1.0,
800,20.0,decreament,0.36,60.0,oddball,43.0,2.0,0.0,
801,20.0,decreament,0.6,100.0,standard,41.0,2.0,1.0,
802,20.0,decreament,0.6,100.0,standard,41.0,2.0,1.0,
803,20.0,decreament,0.6,100.0,standard,41.0,2.0,1.0,
804,20.0,decreament,0.48,80.0,oddball,44.0,2.0,0.0,
805,20.0,decreament,0.6,100.0,standard,41.0,2.0,1.0,
806,20.0,decreament,0.6,100.0,standard,41.0,2.0,1.0,
807,20.0,decreament,0.6,100.0,standard,41.0,2.0,1.0,
808,20.0,decreament,0.6,100.0,standard,41.0,2.0,1.0,
809,20.0,decreament,0.6,100.0,standard,41.0,2.0,1.0,
810,20.0,increament,0.6,100.0,standard,45.0,2.0,1.0,
811,20.0,increament,0.6,100.0,standard,45.0,2.0,1.0,
812,20.0,increament,0.6,100.0,standard,45.0,2.0,1.0,
813,20.0,increament,0.6,100.0,standard,45.0,2.0,1.0,
814,20.0,increament,0.6,100.0,standard,45.0,2.0,1.0,
815,20.0,increament,0.6,100.0,standard,45.0,2.0,1.0,
816,20.0,increament,0.6,100.0,standard,45.0,2.0,1.0,
817,20.0,increament,0.6,100.0,standard,45.0,2.0,1.0,
818,20.0,increament,0.6,100.0,standard,45.0,2.0,1.0,
819,20.0,increament,0.6,100.0,standard,45.0,2.0,0.0,0.7225825998466462
820,20.0,increament,0.6,100.0,standard,45.0,2.0,1.0,
821,20.0,increament,0.6,100.0,standard,45.0,2.0,1.0,
822,20.0,increament,0.6,100.0,standard,45.0,2.0,1.0,
823,20.0,increament,0.6,100.0,standard,45.0,2.0,1.0,
824,20.0,increament,0.6,100.0,standard,45.0,2.0,1.0,
825,20.0,increament,0.96,160.0,oddball,48.0,2.0,1.0,0.6413169000297785
826,20.0,increament,0.6,100.0,standard,45.0,2.0,1.0,
827,20.0,increament,0.6,100.0,standard,45.0,2.0,1.0,
828,20.0,increament,0.6,100.0,standard,45.0,2.0,1.0,
829,20.0,increament,0.6,100.0,standard,45.0,2.0,0.0,0.6138990998733789
830,20.0,increament,0.6,100.0,standard,45.0,2.0,1.0,
831,20.0,increament,0.6,100.0,standard,45.0,2.0,1.0,
832,20.0,increament,0.6,100.0,standard,45.0,2.0,1.0,
833,20.0,increament,0.6,100.0,standard,45.0,2.0,1.0,
834,20.0,increament,0.72,120.0,oddball,46.0,2.0,0.0,
835,20.0,increament,0.6,100.0,standard,45.0,2.0,1.0,
836,20.0,increament,0.6,100.0,standard,45.0,2.0,0.0,0.6674960998352617
837,20.0,increament,0.6,100.0,standard,45.0,2.0,1.0,
838,20.0,increament,0.84,140.0,oddball,47.0,2.0,0.0,
839,20.0,increament,0.6,100.0,standard,45.0,2.0,1.0,
840,20.0,decreament,0.6,100.0,standard,41.0,2.0,1.0,
841,20.0,decreament,0.6,100.0,standard,41.0,2.0,1.0,
842,20.0,decreament,0.6,100.0,standard,41.0,2.0,1.0,
843,20.0,decreament,0.6,100.0,standard,41.0,2.0,1.0,
844,20.0,decreament,0.6,100.0,standard,41.0,2.0,1.0,
845,20.0,decreament,0.24,40.0,oddball,42.0,2.0,1.0,1.980407000053674
846,20.0,decreament,0.6,100.0,standard,41.0,2.0,1.0,
847,20.0,decreament,0.6,100.0,standard,41.0,2.0,1.0,
848,20.0,decreament,0.6,100.0,standard,41.0,2.0,1.0,
849,20.0,decreament,0.48,80.0,oddball,44.0,2.0,1.0,0.8401251998730004
850,20.0,decreament,0.6,100.0,standard,41.0,2.0,1.0,
851,20.0,decreament,0.6,100.0,standard,41.0,2.0,1.0,
852,20.0,decreament,0.6,100.0,standard,41.0,2.0,1.0,
853,20.0,decreament,0.6,100.0,standard,41.0,2.0,1.0,
854,20.0,decreament,0.6,100.0,standard,41.0,2.0,1.0,
855,20.0,decreament,0.6,100.0,standard,41.0,2.0,1.0,
856,20.0,decreament,0.6,100.0,standard,41.0,2.0,1.0,
857,20.0,decreament,0.6,100.0,standard,41.0,2.0,1.0,
858,20.0,decreament,0.6,100.0,standard,41.0,2.0,0.0,0.6759388998616487
859,20.0,decreament,0.6,100.0,standard,41.0,2.0,1.0,
860,20.0,decreament,0.6,100.0,standard,41.0,2.0,1.0,
861,20.0,decreament,0.6,100.0,standard,41.0,2.0,0.0,0.8282941000070423
862,20.0,decreament,0.6,100.0,standard,41.0,2.0,1.0,
863,20.0,decreament,0.6,100.0,standard,41.0,2.0,1.0,
864,20.0,decreament,0.6,100.0,standard,41.0,2.0,1.0,
865,20.0,decreament,0.6,100.0,standard,41.0,2.0,1.0,
866,20.0,decreament,0.6,100.0,standard,41.0,2.0,1.0,
867,20.0,decreament,0.6,100.0,standard,41.0,2.0,0.0,0.7758409997913986
868,20.0,decreament,0.36,60.0,oddball,43.0,2.0,0.0,
869,20.0,decreament,0.6,100.0,standard,41.0,2.0,1.0,
870,20.0,increament,0.6,100.0,standard,45.0,2.0,1.0,
871,20.0,increament,0.6,100.0,standard,45.0,2.0,1.0,
872,20.0,increament,0.6,100.0,standard,45.0,2.0,1.0,
873,20.0,increament,0.6,100.0,standard,45.0,2.0,1.0,
874,20.0,increament,0.6,100.0,standard,45.0,2.0,1.0,
875,20.0,increament,0.6,100.0,standard,45.0,2.0,0.0,0.7278826998081058
876,20.0,increament,0.6,100.0,standard,45.0,2.0,1.0,
877,20.0,increament,0.6,100.0,standard,45.0,2.0,1.0,
878,20.0,increament,0.6,100.0,standard,45.0,2.0,1.0,
879,20.0,increament,0.6,100.0,standard,45.0,2.0,1.0,
880,20.0,increament,0.6,100.0,standard,45.0,2.0,1.0,
881,20.0,increament,0.6,100.0,standard,45.0,2.0,1.0,
882,20.0,increament,0.6,100.0,standard,45.0,2.0,1.0,
883,20.0,increament,0.6,100.0,standard,45.0,2.0,1.0,
884,20.0,increament,0.96,160.0,oddball,48.0,2.0,1.0,0.5555463000200689
885,20.0,increament,0.6,100.0,standard,45.0,2.0,1.0,
886,20.0,increament,0.6,100.0,standard,45.0,2.0,1.0,
887,20.0,increament,0.6,100.0,standard,45.0,2.0,1.0,
888,20.0,increament,0.6,100.0,standard,45.0,2.0,1.0,
889,20.0,increament,0.6,100.0,standard,45.0,2.0,1.0,
890,20.0,increament,0.6,100.0,standard,45.0,2.0,1.0,
891,20.0,increament,0.6,100.0,standard,45.0,2.0,1.0,
892,20.0,increament,0.6,100.0,standard,45.0,2.0,1.0,
893,20.0,increament,0.6,100.0,standard,45.0,2.0,1.0,
894,20.0,increament,0.72,120.0,oddball,46.0,2.0,1.0,0.5483293000143021
895,20.0,increament,0.6,100.0,standard,45.0,2.0,1.0,
896,20.0,increament,0.6,100.0,standard,45.0,2.0,1.0,
897,20.0,increament,0.6,100.0,standard,45.0,2.0,1.0,
898,20.0,increament,0.84,140.0,oddball,47.0,2.0,1.0,0.5777082997374237
899,20.0,increament,0.6,100.0,standard,45.0,2.0,1.0,
900,10.0,decreament,0.6,100.0,standard,21.0,3.0,1.0,
901,10.0,decreament,0.6,100.0,standard,21.0,3.0,1.0,
902,10.0,decreament,0.6,100.0,standard,21.0,3.0,1.0,
903,10.0,decreament,0.6,100.0,standard,21.0,3.0,1.0,
904,10.0,decreament,0.6,100.0,standard,21.0,3.0,1.0,
905,10.0,decreament,0.6,100.0,standard,21.0,3.0,1.0,
906,10.0,decreament,0.6,100.0,standard,21.0,3.0,0.0,0.7084222000557929
907,10.0,decreament,0.6,100.0,standard,21.0,3.0,1.0,
908,10.0,decreament,0.6,100.0,standard,21.0,3.0,1.0,
909,10.0,decreament,0.6,100.0,standard,21.0,3.0,1.0,
910,10.0,decreament,0.6,100.0,standard,21.0,3.0,1.0,
911,10.0,decreament,0.6,100.0,standard,21.0,3.0,1.0,
912,10.0,decreament,0.6,100.0,standard,21.0,3.0,1.0,
913,10.0,decreament,0.6,100.0,standard,21.0,3.0,1.0,
914,10.0,decreament,0.6,100.0,standard,21.0,3.0,1.0,
915,10.0,decreament,0.6,100.0,standard,21.0,3.0,0.0,0.9273782998789102
916,10.0,decreament,0.24,40.0,oddball,22.0,3.0,1.0,0.5978741999715567
917,10.0,decreament,0.6,100.0,standard,21.0,3.0,1.0,
918,10.0,decreament,0.6,100.0,standard,21.0,3.0,1.0,
919,10.0,decreament,0.6,100.0,standard,21.0,3.0,1.0,
920,10.0,decreament,0.6,100.0,standard,21.0,3.0,1.0,
921,10.0,decreament,0.6,100.0,standard,21.0,3.0,1.0,
922,10.0,decreament,0.6,100.0,standard,21.0,3.0,1.0,
923,10.0,decreament,0.48,80.0,oddball,24.0,3.0,0.0,
924,10.0,decreament,0.6,100.0,standard,21.0,3.0,1.0,
925,10.0,decreament,0.6,100.0,standard,21.0,3.0,1.0,
926,10.0,decreament,0.6,100.0,standard,21.0,3.0,1.0,
927,10.0,decreament,0.6,100.0,standard,21.0,3.0,1.0,
928,10.0,decreament,0.36,60.0,oddball,23.0,3.0,1.0,0.6747374997939914
929,10.0,decreament,0.6,100.0,standard,21.0,3.0,1.0,
930,10.0,increament,0.6,100.0,standard,25.0,3.0,1.0,
931,10.0,increament,0.6,100.0,standard,25.0,3.0,1.0,
932,10.0,increament,0.6,100.0,standard,25.0,3.0,1.0,
933,10.0,increament,0.6,100.0,standard,25.0,3.0,1.0,
934,10.0,increament,0.6,100.0,standard,25.0,3.0,1.0,
935,10.0,increament,0.6,100.0,standard,25.0,3.0,1.0,
936,10.0,increament,0.6,100.0,standard,25.0,3.0,1.0,
937,10.0,increament,0.6,100.0,standard,25.0,3.0,1.0,
938,10.0,increament,0.6,100.0,standard,25.0,3.0,1.0,
939,10.0,increament,0.6,100.0,standard,25.0,3.0,1.0,
940,10.0,increament,0.6,100.0,standard,25.0,3.0,1.0,
941,10.0,increament,0.6,100.0,standard,25.0,3.0,1.0,
942,10.0,increament,0.72,120.0,oddball,26.0,3.0,0.0,
943,10.0,increament,0.6,100.0,standard,25.0,3.0,0.0,0.5168843998108059
944,10.0,increament,0.6,100.0,standard,25.0,3.0,0.0,0.7030072000343353
945,10.0,increament,0.6,100.0,standard,25.0,3.0,1.0,
946,10.0,increament,0.84,140.0,oddball,27.0,3.0,1.0,0.7873841999098659
947,10.0,increament,0.6,100.0,standard,25.0,3.0,1.0,
948,10.0,increament,0.6,100.0,standard,25.0,3.0,1.0,
949,10.0,increament,0.6,100.0,standard,25.0,3.0,1.0,
950,10.0,increament,0.6,100.0,standard,25.0,3.0,1.0,
951,10.0,increament,0.6,100.0,standard,25.0,3.0,0.0,0.6622325000353158
952,10.0,increament,0.6,100.0,standard,25.0,3.0,1.0,
953,10.0,increament,0.6,100.0,standard,25.0,3.0,1.0,
954,10.0,increament,0.6,100.0,standard,25.0,3.0,1.0,
955,10.0,increament,0.6,100.0,standard,25.0,3.0,0.0,0.8546616998501122
956,10.0,increament,0.96,160.0,oddball,28.0,3.0,1.0,0.6151776998303831
957,10.0,increament,0.6,100.0,standard,25.0,3.0,1.0,
958,10.0,increament,0.6,100.0,standard,25.0,3.0,1.0,
959,10.0,increament,0.6,100.0,standard,25.0,3.0,1.0,
960,10.0,decreament,0.6,100.0,standard,21.0,3.0,1.0,
961,10.0,decreament,0.6,100.0,standard,21.0,3.0,1.0,
962,10.0,decreament,0.6,100.0,standard,21.0,3.0,1.0,
963,10.0,decreament,0.6,100.0,standard,21.0,3.0,1.0,
964,10.0,decreament,0.6,100.0,standard,21.0,3.0,1.0,
965,10.0,decreament,0.6,100.0,standard,21.0,3.0,1.0,
966,10.0,decreament,0.6,100.0,standard,21.0,3.0,1.0,
967,10.0,decreament,0.6,100.0,standard,21.0,3.0,1.0,
968,10.0,decreament,0.24,40.0,oddball,22.0,3.0,1.0,0.718960199970752
969,10.0,decreament,0.6,100.0,standard,21.0,3.0,1.0,
970,10.0,decreament,0.6,100.0,standard,21.0,3.0,1.0,
971,10.0,decreament,0.6,100.0,standard,21.0,3.0,1.0,
972,10.0,decreament,0.6,100.0,standard,21.0,3.0,1.0,
973,10.0,decreament,0.6,100.0,standard,21.0,3.0,1.0,
974,10.0,decreament,0.36,60.0,oddball,23.0,3.0,1.0,0.6105252997949719
975,10.0,decreament,0.6,100.0,standard,21.0,3.0,1.0,
976,10.0,decreament,0.6,100.0,standard,21.0,3.0,1.0,
977,10.0,decreament,0.6,100.0,standard,21.0,3.0,1.0,
978,10.0,decreament,0.48,80.0,oddball,24.0,3.0,1.0,1.4985299999825656
979,10.0,decreament,0.6,100.0,standard,21.0,3.0,1.0,
980,10.0,decreament,0.6,100.0,standard,21.0,3.0,1.0,
981,10.0,decreament,0.6,100.0,standard,21.0,3.0,1.0,
982,10.0,decreament,0.6,100.0,standard,21.0,3.0,1.0,
983,10.0,decreament,0.6,100.0,standard,21.0,3.0,1.0,
984,10.0,decreament,0.6,100.0,standard,21.0,3.0,1.0,
985,10.0,decreament,0.6,100.0,standard,21.0,3.0,1.0,
986,10.0,decreament,0.6,100.0,standard,21.0,3.0,1.0,
987,10.0,decreament,0.6,100.0,standard,21.0,3.0,1.0,
988,10.0,decreament,0.6,100.0,standard,21.0,3.0,1.0,
989,10.0,decreament,0.6,100.0,standard,21.0,3.0,1.0,
990,10.0,increament,0.6,100.0,standard,25.0,3.0,1.0,
991,10.0,increament,0.6,100.0,standard,25.0,3.0,1.0,
992,10.0,increament,0.6,100.0,standard,25.0,3.0,1.0,
993,10.0,increament,0.6,100.0,standard,25.0,3.0,1.0,
994,10.0,increament,0.6,100.0,standard,25.0,3.0,1.0,
995,10.0,increament,0.6,100.0,standard,25.0,3.0,1.0,
996,10.0,increament,0.6,100.0,standard,25.0,3.0,1.0,
997,10.0,increament,0.6,100.0,standard,25.0,3.0,0.0,1.1182838999666274
998,10.0,increament,0.6,100.0,standard,25.0,3.0,1.0,
999,10.0,increament,0.6,100.0,standard,25.0,3.0,1.0,
1000,10.0,increament,0.6,100.0,standard,25.0,3.0,1.0,
1001,10.0,increament,0.6,100.0,standard,25.0,3.0,1.0,
1002,10.0,increament,0.6,100.0,standard,25.0,3.0,1.0,
1003,10.0,increament,0.6,100.0,standard,25.0,3.0,1.0,
1004,10.0,increament,0.6,100.0,standard,25.0,3.0,1.0,
1005,10.0,increament,0.84,140.0,oddball,27.0,3.0,1.0,1.683603100012988
1006,10.0,increament,0.6,100.0,standard,25.0,3.0,1.0,
1007,10.0,increament,0.6,100.0,standard,25.0,3.0,1.0,
1008,10.0,increament,0.6,100.0,standard,25.0,3.0,1.0,
1009,10.0,increament,0.72,120.0,oddball,26.0,3.0,0.0,
1010,10.0,increament,0.6,100.0,standard,25.0,3.0,1.0,
1011,10.0,increament,0.6,100.0,standard,25.0,3.0,1.0,
1012,10.0,increament,0.6,100.0,standard,25.0,3.0,1.0,
1013,10.0,increament,0.6,100.0,standard,25.0,3.0,1.0,
1014,10.0,increament,0.6,100.0,standard,25.0,3.0,0.0,0.8202600998338312
1015,10.0,increament,0.6,100.0,standard,25.0,3.0,1.0,
1016,10.0,increament,0.6,100.0,standard,25.0,3.0,1.0,
1017,10.0,increament,0.96,160.0,oddball,28.0,3.0,0.0,
1018,10.0,increament,0.6,100.0,standard,25.0,3.0,1.0,
1019,10.0,increament,0.6,100.0,standard,25.0,3.0,1.0,
1020,10.0,decreament,0.6,100.0,standard,21.0,3.0,1.0,
1021,10.0,decreament,0.6,100.0,standard,21.0,3.0,1.0,
1022,10.0,decreament,0.6,100.0,standard,21.0,3.0,1.0,
1023,10.0,decreament,0.6,100.0,standard,21.0,3.0,1.0,
1024,10.0,decreament,0.6,100.0,standard,21.0,3.0,1.0,
1025,10.0,decreament,0.6,100.0,standard,21.0,3.0,1.0,
1026,10.0,decreament,0.6,100.0,standard,21.0,3.0,0.0,1.386923799989745
1027,10.0,decreament,0.6,100.0,standard,21.0,3.0,1.0,
1028,10.0,decreament,0.6,100.0,standard,21.0,3.0,1.0,
1029,10.0,decreament,0.6,100.0,standard,21.0,3.0,1.0,
1030,10.0,decreament,0.6,100.0,standard,21.0,3.0,1.0,
1031,10.0,decreament,0.6,100.0,standard,21.0,3.0,1.0,
1032,10.0,decreament,0.6,100.0,standard,21.0,3.0,1.0,
1033,10.0,decreament,0.6,100.0,standard,21.0,3.0,1.0,
1034,10.0,decreament,0.6,100.0,standard,21.0,3.0,1.0,
1035,10.0,decreament,0.6,100.0,standard,21.0,3.0,0.0,0.5493326999712735
1036,10.0,decreament,0.6,100.0,standard,21.0,3.0,1.0,
1037,10.0,decreament,0.48,80.0,oddball,24.0,3.0,0.0,
1038,10.0,decreament,0.6,100.0,standard,21.0,3.0,1.0,
1039,10.0,decreament,0.6,100.0,standard,21.0,3.0,1.0,
1040,10.0,decreament,0.6,100.0,standard,21.0,3.0,1.0,
1041,10.0,decreament,0.6,100.0,standard,21.0,3.0,0.0,0.8389818998984993
1042,10.0,decreament,0.24,40.0,oddball,22.0,3.0,1.0,0.6324688999447972
1043,10.0,decreament,0.6,100.0,standard,21.0,3.0,1.0,
1044,10.0,decreament,0.6,100.0,standard,21.0,3.0,1.0,
1045,10.0,decreament,0.6,100.0,standard,21.0,3.0,1.0,
1046,10.0,decreament,0.36,60.0,oddball,23.0,3.0,1.0,0.8570093996822834
1047,10.0,decreament,0.6,100.0,standard,21.0,3.0,1.0,
1048,10.0,decreament,0.6,100.0,standard,21.0,3.0,1.0,
1049,10.0,decreament,0.6,100.0,standard,21.0,3.0,1.0,
1050,10.0,increament,0.6,100.0,standard,25.0,3.0,1.0,
1051,10.0,increament,0.6,100.0,standard,25.0,3.0,1.0,
1052,10.0,increament,0.6,100.0,standard,25.0,3.0,1.0,
1053,10.0,increament,0.6,100.0,standard,25.0,3.0,1.0,
1054,10.0,increament,0.6,100.0,standard,25.0,3.0,1.0,
1055,10.0,increament,0.6,100.0,standard,25.0,3.0,1.0,
1056,10.0,increament,0.6,100.0,standard,25.0,3.0,1.0,
1057,10.0,increament,0.6,100.0,standard,25.0,3.0,1.0,
1058,10.0,increament,0.6,100.0,standard,25.0,3.0,1.0,
1059,10.0,increament,0.6,100.0,standard,25.0,3.0,1.0,
1060,10.0,increament,0.6,100.0,standard,25.0,3.0,0.0,0.570919499732554
1061,10.0,increament,0.6,100.0,standard,25.0,3.0,1.0,
1062,10.0,increament,0.6,100.0,standard,25.0,3.0,1.0,
1063,10.0,increament,0.6,100.0,standard,25.0,3.0,1.0,
1064,10.0,increament,0.96,160.0,oddball,28.0,3.0,0.0,
1065,10.0,increament,0.6,100.0,standard,25.0,3.0,1.0,
1066,10.0,increament,0.6,100.0,standard,25.0,3.0,1.0,
1067,10.0,increament,0.6,100.0,standard,25.0,3.0,1.0,
1068,10.0,increament,0.6,100.0,standard,25.0,3.0,1.0,
1069,10.0,increament,0.6,100.0,standard,25.0,3.0,1.0,
1070,10.0,increament,0.6,100.0,standard,25.0,3.0,1.0,
1071,10.0,increament,0.6,100.0,standard,25.0,3.0,0.0,0.2285955999977886
1072,10.0,increament,0.6,100.0,standard,25.0,3.0,1.0,
1073,10.0,increament,0.72,120.0,oddball,26.0,3.0,0.0,
1074,10.0,increament,0.6,100.0,standard,25.0,3.0,1.0,
1075,10.0,increament,0.6,100.0,standard,25.0,3.0,0.0,0.3784346997272223
1076,10.0,increament,0.6,100.0,standard,25.0,3.0,1.0,
1077,10.0,increament,0.84,140.0,oddball,27.0,3.0,0.0,
1078,10.0,increament,0.6,100.0,standard,25.0,3.0,1.0,
1079,10.0,increament,0.6,100.0,standard,25.0,3.0,1.0,
1080,10.0,decreament,0.6,100.0,standard,21.0,3.0,1.0,
1081,10.0,decreament,0.6,100.0,standard,21.0,3.0,1.0,
1082,10.0,decreament,0.6,100.0,standard,21.0,3.0,1.0,
1083,10.0,decreament,0.6,100.0,standard,21.0,3.0,1.0,
1084,10.0,decreament,0.6,100.0,standard,21.0,3.0,1.0,
1085,10.0,decreament,0.48,80.0,oddball,24.0,3.0,0.0,
1086,10.0,decreament,0.6,100.0,standard,21.0,3.0,1.0,
1087,10.0,decreament,0.6,100.0,standard,21.0,3.0,1.0,
1088,10.0,decreament,0.6,100.0,standard,21.0,3.0,1.0,
1089,10.0,decreament,0.6,100.0,standard,21.0,3.0,1.0,
1090,10.0,decreament,0.24,40.0,oddball,22.0,3.0,1.0,0.6490196997765452
1091,10.0,decreament,0.6,100.0,standard,21.0,3.0,1.0,
1092,10.0,decreament,0.6,100.0,standard,21.0,3.0,1.0,
1093,10.0,decreament,0.6,100.0,standard,21.0,3.0,1.0,
1094,10.0,decreament,0.6,100.0,standard,21.0,3.0,1.0,
1095,10.0,decreament,0.6,100.0,standard,21.0,3.0,1.0,
1096,10.0,decreament,0.6,100.0,standard,21.0,3.0,1.0,
1097,10.0,decreament,0.6,100.0,standard,21.0,3.0,0.0,0.6268195996526629
1098,10.0,decreament,0.6,100.0,standard,21.0,3.0,1.0,
1099,10.0,decreament,0.6,100.0,standard,21.0,3.0,1.0,
1100,10.0,decreament,0.36,60.0,oddball,23.0,3.0,1.0,0.6892493998166174
1101,10.0,decreament,0.6,100.0,standard,21.0,3.0,1.0,
1102,10.0,decreament,0.6,100.0,standard,21.0,3.0,1.0,
1103,10.0,decreament,0.6,100.0,standard,21.0,3.0,1.0,
1104,10.0,decreament,0.6,100.0,standard,21.0,3.0,1.0,
1105,10.0,decreament,0.6,100.0,standard,21.0,3.0,1.0,
1106,10.0,decreament,0.6,100.0,standard,21.0,3.0,1.0,
1107,10.0,decreament,0.6,100.0,standard,21.0,3.0,1.0,
1108,10.0,decreament,0.6,100.0,standard,21.0,3.0,1.0,
1109,10.0,decreament,0.6,100.0,standard,21.0,3.0,1.0,
1110,10.0,increament,0.6,100.0,standard,25.0,3.0,1.0,
1111,10.0,increament,0.6,100.0,standard,25.0,3.0,1.0,
1112,10.0,increament,0.6,100.0,standard,25.0,3.0,1.0,
1113,10.0,increament,0.6,100.0,standard,25.0,3.0,1.0,
1114,10.0,increament,0.6,100.0,standard,25.0,3.0,1.0,
1115,10.0,increament,0.6,100.0,standard,25.0,3.0,1.0,
1116,10.0,increament,0.6,100.0,standard,25.0,3.0,1.0,
1117,10.0,increament,0.6,100.0,standard,25.0,3.0,1.0,
1118,10.0,increament,0.6,100.0,standard,25.0,3.0,1.0,
1119,10.0,increament,0.6,100.0,standard,25.0,3.0,1.0,
1120,10.0,increament,0.6,100.0,standard,25.0,3.0,0.0,0.617583499988541
1121,10.0,increament,0.96,160.0,oddball,28.0,3.0,1.0,0.6659201998263597
1122,10.0,increament,0.6,100.0,standard,25.0,3.0,1.0,
1123,10.0,increament,0.6,100.0,standard,25.0,3.0,1.0,
1124,10.0,increament,0.6,100.0,standard,25.0,3.0,1.0,
1125,10.0,increament,0.6,100.0,standard,25.0,3.0,1.0,
1126,10.0,increament,0.6,100.0,standard,25.0,3.0,1.0,
1127,10.0,increament,0.6,100.0,standard,25.0,3.0,1.0,
1128,10.0,increament,0.6,100.0,standard,25.0,3.0,1.0,
1129,10.0,increament,0.6,100.0,standard,25.0,3.0,1.0,
1130,10.0,increament,0.84,140.0,oddball,27.0,3.0,0.0,
1131,10.0,increament,0.6,100.0,standard,25.0,3.0,1.0,
1132,10.0,increament,0.6,100.0,standard,25.0,3.0,1.0,
1133,10.0,increament,0.6,100.0,standard,25.0,3.0,1.0,
1134,10.0,increament,0.6,100.0,standard,25.0,3.0,0.0,0.424798599909991
1135,10.0,increament,0.6,100.0,standard,25.0,3.0,1.0,
1136,10.0,increament,0.6,100.0,standard,25.0,3.0,1.0,
1137,10.0,increament,0.72,120.0,oddball,26.0,3.0,0.0,
1138,10.0,increament,0.6,100.0,standard,25.0,3.0,1.0,
1139,10.0,increament,0.6,100.0,standard,25.0,3.0,1.0,
1140,10.0,decreament,0.6,100.0,standard,21.0,3.0,1.0,
1141,10.0,decreament,0.6,100.0,standard,21.0,3.0,1.0,
1142,10.0,decreament,0.6,100.0,standard,21.0,3.0,1.0,
1143,10.0,decreament,0.6,100.0,standard,21.0,3.0,1.0,
1144,10.0,decreament,0.6,100.0,standard,21.0,3.0,1.0,
1145,10.0,decreament,0.6,100.0,standard,21.0,3.0,1.0,
1146,10.0,decreament,0.6,100.0,standard,21.0,3.0,1.0,
1147,10.0,decreament,0.6,100.0,standard,21.0,3.0,0.0,1.6668032000306994
1148,10.0,decreament,0.6,100.0,standard,21.0,3.0,1.0,
1149,10.0,decreament,0.24,40.0,oddball,22.0,3.0,1.0,0.8592894996982068
1150,10.0,decreament,0.6,100.0,standard,21.0,3.0,1.0,
1151,10.0,decreament,0.6,100.0,standard,21.0,3.0,1.0,
1152,10.0,decreament,0.6,100.0,standard,21.0,3.0,1.0,
1153,10.0,decreament,0.6,100.0,standard,21.0,3.0,0.0,0.8234578999690711
1154,10.0,decreament,0.6,100.0,standard,21.0,3.0,1.0,
1155,10.0,decreament,0.6,100.0,standard,21.0,3.0,1.0,
1156,10.0,decreament,0.6,100.0,standard,21.0,3.0,1.0,
1157,10.0,decreament,0.48,80.0,oddball,24.0,3.0,0.0,
1158,10.0,decreament,0.6,100.0,standard,21.0,3.0,1.0,
1159,10.0,decreament,0.6,100.0,standard,21.0,3.0,1.0,
1160,10.0,decreament,0.6,100.0,standard,21.0,3.0,0.0,0.4387833997607231
1161,10.0,decreament,0.6,100.0,standard,21.0,3.0,1.0,
1162,10.0,decreament,0.6,100.0,standard,21.0,3.0,1.0,
1163,10.0,decreament,0.6,100.0,standard,21.0,3.0,1.0,
1164,10.0,decreament,0.6,100.0,standard,21.0,3.0,1.0,
1165,10.0,decreament,0.6,100.0,standard,21.0,3.0,1.0,
1166,10.0,decreament,0.36,60.0,oddball,23.0,3.0,1.0,0.8013605999294668
1167,10.0,decreament,0.6,100.0,standard,21.0,3.0,1.0,
1168,10.0,decreament,0.6,100.0,standard,21.0,3.0,1.0,
1169,10.0,decreament,0.6,100.0,standard,21.0,3.0,1.0,
1170,10.0,increament,0.6,100.0,standard,25.0,3.0,1.0,
1171,10.0,increament,0.6,100.0,standard,25.0,3.0,1.0,
1172,10.0,increament,0.6,100.0,standard,25.0,3.0,1.0,
1173,10.0,increament,0.6,100.0,standard,25.0,3.0,1.0,
1174,10.0,increament,0.6,100.0,standard,25.0,3.0,1.0,
1175,10.0,increament,0.6,100.0,standard,25.0,3.0,1.0,
1176,10.0,increament,0.6,100.0,standard,25.0,3.0,1.0,
1177,10.0,increament,0.6,100.0,standard,25.0,3.0,1.0,
1178,10.0,increament,0.6,100.0,standard,25.0,3.0,1.0,
1179,10.0,increament,0.6,100.0,standard,25.0,3.0,1.0,
1180,10.0,increament,0.6,100.0,standard,25.0,3.0,1.0,
1181,10.0,increament,0.6,100.0,standard,25.0,3.0,1.0,
1182,10.0,increament,0.6,100.0,standard,25.0,3.0,1.0,
1183,10.0,increament,0.6,100.0,standard,25.0,3.0,1.0,
1184,10.0,increament,0.84,140.0,oddball,27.0,3.0,1.0,0.2889468998182565
1185,10.0,increament,0.6,100.0,standard,25.0,3.0,1.0,
1186,10.0,increament,0.6,100.0,standard,25.0,3.0,1.0,
1187,10.0,increament,0.6,100.0,standard,25.0,3.0,1.0,
1188,10.0,increament,0.96,160.0,oddball,28.0,3.0,1.0,0.4636487998068332
1189,10.0,increament,0.6,100.0,standard,25.0,3.0,1.0,
1190,10.0,increament,0.6,100.0,standard,25.0,3.0,1.0,
1191,10.0,increament,0.6,100.0,standard,25.0,3.0,1.0,
1192,10.0,increament,0.6,100.0,standard,25.0,3.0,0.0,1.349821499781683
1193,10.0,increament,0.6,100.0,standard,25.0,3.0,1.0,
1194,10.0,increament,0.6,100.0,standard,25.0,3.0,1.0,
1195,10.0,increament,0.72,120.0,oddball,26.0,3.0,0.0,
1196,10.0,increament,0.6,100.0,standard,25.0,3.0,1.0,
1197,10.0,increament,0.6,100.0,standard,25.0,3.0,1.0,
1198,10.0,increament,0.6,100.0,standard,25.0,3.0,1.0,
1199,10.0,increament,0.6,100.0,standard,25.0,3.0,1.0,
