,grating_freq,direction,duration,scaling,stim_type,trigger,blocks.thisN,resp.corr,resp.rt
0,5.0,decreament,0.6,100.0,standard,11.0,0.0,1.0,
1,5.0,decreament,0.6,100.0,standard,11.0,0.0,1.0,
2,5.0,decreament,0.6,100.0,standard,11.0,0.0,1.0,
3,5.0,decreament,0.6,100.0,standard,11.0,0.0,1.0,
4,5.0,decreament,0.6,100.0,standard,11.0,0.0,1.0,
5,5.0,decreament,0.6,100.0,standard,11.0,0.0,1.0,
6,5.0,decreament,0.36,60.0,oddball,13.0,0.0,1.0,0.6342075001448393
7,5.0,decreament,0.6,100.0,standard,11.0,0.0,1.0,
8,5.0,decreament,0.6,100.0,standard,11.0,0.0,1.0,
9,5.0,decreament,0.6,100.0,standard,11.0,0.0,1.0,
10,5.0,decreament,0.6,100.0,standard,11.0,0.0,1.0,
11,5.0,decreament,0.48,80.0,oddball,14.0,0.0,1.0,1.0728659997694194
12,5.0,decreament,0.6,100.0,standard,11.0,0.0,1.0,
13,5.0,decreament,0.6,100.0,standard,11.0,0.0,1.0,
14,5.0,decreament,0.6,100.0,standard,11.0,0.0,1.0,
15,5.0,decreament,0.24,40.0,oddball,12.0,0.0,1.0,0.792767200153321
16,5.0,decreament,0.6,100.0,standard,11.0,0.0,1.0,
17,5.0,decreament,0.6,100.0,standard,11.0,0.0,1.0,
18,5.0,decreament,0.6,100.0,standard,11.0,0.0,1.0,
19,5.0,decreament,0.6,100.0,standard,11.0,0.0,1.0,
20,5.0,decreament,0.6,100.0,standard,11.0,0.0,1.0,
21,5.0,decreament,0.6,100.0,standard,11.0,0.0,1.0,
22,5.0,decreament,0.6,100.0,standard,11.0,0.0,1.0,
23,5.0,decreament,0.6,100.0,standard,11.0,0.0,1.0,
24,5.0,decreament,0.6,100.0,standard,11.0,0.0,1.0,
25,5.0,decreament,0.6,100.0,standard,11.0,0.0,1.0,
26,5.0,decreament,0.6,100.0,standard,11.0,0.0,0.0,1.0102987997233868
27,5.0,decreament,0.6,100.0,standard,11.0,0.0,1.0,
28,5.0,decreament,0.6,100.0,standard,11.0,0.0,1.0,
29,5.0,decreament,0.6,100.0,standard,11.0,0.0,1.0,
30,5.0,increament,0.6,100.0,standard,15.0,0.0,1.0,
31,5.0,increament,0.6,100.0,standard,15.0,0.0,1.0,
32,5.0,increament,0.6,100.0,standard,15.0,0.0,1.0,
33,5.0,increament,0.6,100.0,standard,15.0,0.0,1.0,
34,5.0,increament,0.6,100.0,standard,15.0,0.0,1.0,
35,5.0,increament,0.6,100.0,standard,15.0,0.0,1.0,
36,5.0,increament,0.6,100.0,standard,15.0,0.0,1.0,
37,5.0,increament,0.6,100.0,standard,15.0,0.0,1.0,
38,5.0,increament,0.6,100.0,standard,15.0,0.0,1.0,
39,5.0,increament,0.6,100.0,standard,15.0,0.0,1.0,
40,5.0,increament,0.6,100.0,standard,15.0,0.0,1.0,
41,5.0,increament,0.6,100.0,standard,15.0,0.0,1.0,
42,5.0,increament,0.6,100.0,standard,15.0,0.0,1.0,
43,5.0,increament,0.6,100.0,standard,15.0,0.0,1.0,
44,5.0,increament,0.6,100.0,standard,15.0,0.0,1.0,
45,5.0,increament,0.6,100.0,standard,15.0,0.0,1.0,
46,5.0,increament,0.96,160.0,oddball,18.0,0.0,1.0,0.5525200003758073
47,5.0,increament,0.6,100.0,standard,15.0,0.0,1.0,
48,5.0,increament,0.6,100.0,standard,15.0,0.0,1.0,
49,5.0,increament,0.6,100.0,standard,15.0,0.0,1.0,
50,5.0,increament,0.6,100.0,standard,15.0,0.0,1.0,
51,5.0,increament,0.6,100.0,standard,15.0,0.0,1.0,
52,5.0,increament,0.6,100.0,standard,15.0,0.0,1.0,
53,5.0,increament,0.84,140.0,oddball,17.0,0.0,0.0,
54,5.0,increament,0.6,100.0,standard,15.0,0.0,1.0,
55,5.0,increament,0.6,100.0,standard,15.0,0.0,1.0,
56,5.0,increament,0.6,100.0,standard,15.0,0.0,1.0,
57,5.0,increament,0.72,120.0,oddball,16.0,0.0,0.0,
58,5.0,increament,0.6,100.0,standard,15.0,0.0,1.0,
59,5.0,increament,0.6,100.0,standard,15.0,0.0,1.0,
60,5.0,decreament,0.6,100.0,standard,11.0,0.0,1.0,
61,5.0,decreament,0.6,100.0,standard,11.0,0.0,1.0,
62,5.0,decreament,0.6,100.0,standard,11.0,0.0,1.0,
63,5.0,decreament,0.6,100.0,standard,11.0,0.0,1.0,
64,5.0,decreament,0.6,100.0,standard,11.0,0.0,1.0,
65,5.0,decreament,0.6,100.0,standard,11.0,0.0,1.0,
66,5.0,decreament,0.6,100.0,standard,11.0,0.0,1.0,
67,5.0,decreament,0.48,80.0,oddball,14.0,0.0,0.0,
68,5.0,decreament,0.6,100.0,standard,11.0,0.0,1.0,
69,5.0,decreament,0.6,100.0,standard,11.0,0.0,1.0,
70,5.0,decreament,0.6,100.0,standard,11.0,0.0,1.0,
71,5.0,decreament,0.6,100.0,standard,11.0,0.0,1.0,
72,5.0,decreament,0.6,100.0,standard,11.0,0.0,0.0,0.8881359999068081
73,5.0,decreament,0.6,100.0,standard,11.0,0.0,1.0,
74,5.0,decreament,0.6,100.0,standard,11.0,0.0,1.0,
75,5.0,decreament,0.6,100.0,standard,11.0,0.0,1.0,
76,5.0,decreament,0.6,100.0,standard,11.0,0.0,1.0,
77,5.0,decreament,0.24,40.0,oddball,12.0,0.0,1.0,0.727659999858588
78,5.0,decreament,0.6,100.0,standard,11.0,0.0,1.0,
79,5.0,decreament,0.6,100.0,standard,11.0,0.0,1.0,
80,5.0,decreament,0.6,100.0,standard,11.0,0.0,1.0,
81,5.0,decreament,0.6,100.0,standard,11.0,0.0,1.0,
82,5.0,decreament,0.6,100.0,standard,11.0,0.0,1.0,
83,5.0,decreament,0.6,100.0,standard,11.0,0.0,1.0,
84,5.0,decreament,0.6,100.0,standard,11.0,0.0,0.0,1.3856047000735998
85,5.0,decreament,0.6,100.0,standard,11.0,0.0,1.0,
86,5.0,decreament,0.6,100.0,standard,11.0,0.0,1.0,
87,5.0,decreament,0.36,60.0,oddball,13.0,0.0,1.0,0.5515364003367722
88,5.0,decreament,0.6,100.0,standard,11.0,0.0,1.0,
89,5.0,decreament,0.6,100.0,standard,11.0,0.0,1.0,
90,5.0,increament,0.6,100.0,standard,15.0,0.0,1.0,
91,5.0,increament,0.6,100.0,standard,15.0,0.0,1.0,
92,5.0,increament,0.6,100.0,standard,15.0,0.0,1.0,
93,5.0,increament,0.6,100.0,standard,15.0,0.0,1.0,
94,5.0,increament,0.6,100.0,standard,15.0,0.0,1.0,
95,5.0,increament,0.6,100.0,standard,15.0,0.0,1.0,
96,5.0,increament,0.6,100.0,standard,15.0,0.0,1.0,
97,5.0,increament,0.6,100.0,standard,15.0,0.0,1.0,
98,5.0,increament,0.6,100.0,standard,15.0,0.0,1.0,
99,5.0,increament,0.6,100.0,standard,15.0,0.0,1.0,
100,5.0,increament,0.6,100.0,standard,15.0,0.0,1.0,
101,5.0,increament,0.6,100.0,standard,15.0,0.0,1.0,
102,5.0,increament,0.6,100.0,standard,15.0,0.0,1.0,
103,5.0,increament,0.6,100.0,standard,15.0,0.0,1.0,
104,5.0,increament,0.6,100.0,standard,15.0,0.0,1.0,
105,5.0,increament,0.6,100.0,standard,15.0,0.0,1.0,
106,5.0,increament,0.84,140.0,oddball,17.0,0.0,0.0,
107,5.0,increament,0.6,100.0,standard,15.0,0.0,1.0,
108,5.0,increament,0.6,100.0,standard,15.0,0.0,1.0,
109,5.0,increament,0.6,100.0,standard,15.0,0.0,1.0,
110,5.0,increament,0.6,100.0,standard,15.0,0.0,1.0,
111,5.0,increament,0.6,100.0,standard,15.0,0.0,1.0,
112,5.0,increament,0.6,100.0,standard,15.0,0.0,1.0,
113,5.0,increament,0.6,100.0,standard,15.0,0.0,1.0,
114,5.0,increament,0.72,120.0,oddball,16.0,0.0,0.0,
115,5.0,increament,0.6,100.0,standard,15.0,0.0,1.0,
116,5.0,increament,0.6,100.0,standard,15.0,0.0,1.0,
117,5.0,increament,0.6,100.0,standard,15.0,0.0,1.0,
118,5.0,increament,0.96,160.0,oddball,18.0,0.0,0.0,
119,5.0,increament,0.6,100.0,standard,15.0,0.0,1.0,
120,5.0,decreament,0.6,100.0,standard,11.0,0.0,1.0,
121,5.0,decreament,0.6,100.0,standard,11.0,0.0,1.0,
122,5.0,decreament,0.6,100.0,standard,11.0,0.0,1.0,
123,5.0,decreament,0.6,100.0,standard,11.0,0.0,1.0,
124,5.0,decreament,0.6,100.0,standard,11.0,0.0,1.0,
125,5.0,decreament,0.6,100.0,standard,11.0,0.0,1.0,
126,5.0,decreament,0.6,100.0,standard,11.0,0.0,1.0,
127,5.0,decreament,0.48,80.0,oddball,14.0,0.0,0.0,
128,5.0,decreament,0.6,100.0,standard,11.0,0.0,1.0,
129,5.0,decreament,0.6,100.0,standard,11.0,0.0,1.0,
130,5.0,decreament,0.6,100.0,standard,11.0,0.0,1.0,
131,5.0,decreament,0.6,100.0,standard,11.0,0.0,1.0,
132,5.0,decreament,0.6,100.0,standard,11.0,0.0,1.0,
133,5.0,decreament,0.6,100.0,standard,11.0,0.0,1.0,
134,5.0,decreament,0.6,100.0,standard,11.0,0.0,1.0,
135,5.0,decreament,0.6,100.0,standard,11.0,0.0,1.0,
136,5.0,decreament,0.6,100.0,standard,11.0,0.0,1.0,
137,5.0,decreament,0.6,100.0,standard,11.0,0.0,1.0,
138,5.0,decreament,0.6,100.0,standard,11.0,0.0,1.0,
139,5.0,decreament,0.6,100.0,standard,11.0,0.0,1.0,
140,5.0,decreament,0.6,100.0,standard,11.0,0.0,1.0,
141,5.0,decreament,0.6,100.0,standard,11.0,0.0,1.0,
142,5.0,decreament,0.24,40.0,oddball,12.0,0.0,1.0,0.5707788998261094
143,5.0,decreament,0.6,100.0,standard,11.0,0.0,1.0,
144,5.0,decreament,0.6,100.0,standard,11.0,0.0,1.0,
145,5.0,decreament,0.6,100.0,standard,11.0,0.0,1.0,
146,5.0,decreament,0.6,100.0,standard,11.0,0.0,1.0,
147,5.0,decreament,0.36,60.0,oddball,13.0,0.0,1.0,1.4472954999655483
148,5.0,decreament,0.6,100.0,standard,11.0,0.0,1.0,
149,5.0,decreament,0.6,100.0,standard,11.0,0.0,1.0,
150,5.0,increament,0.6,100.0,standard,15.0,0.0,1.0,
151,5.0,increament,0.6,100.0,standard,15.0,0.0,1.0,
152,5.0,increament,0.6,100.0,standard,15.0,0.0,1.0,
153,5.0,increament,0.6,100.0,standard,15.0,0.0,1.0,
154,5.0,increament,0.6,100.0,standard,15.0,0.0,1.0,
155,5.0,increament,0.6,100.0,standard,15.0,0.0,1.0,
156,5.0,increament,0.6,100.0,standard,15.0,0.0,1.0,
157,5.0,increament,0.6,100.0,standard,15.0,0.0,1.0,
158,5.0,increament,0.6,100.0,standard,15.0,0.0,1.0,
159,5.0,increament,0.72,120.0,oddball,16.0,0.0,0.0,
160,5.0,increament,0.6,100.0,standard,15.0,0.0,1.0,
161,5.0,increament,0.6,100.0,standard,15.0,0.0,1.0,
162,5.0,increament,0.6,100.0,standard,15.0,0.0,1.0,
163,5.0,increament,0.6,100.0,standard,15.0,0.0,1.0,
164,5.0,increament,0.6,100.0,standard,15.0,0.0,1.0,
165,5.0,increament,0.6,100.0,standard,15.0,0.0,1.0,
166,5.0,increament,0.6,100.0,standard,15.0,0.0,1.0,
167,5.0,increament,0.6,100.0,standard,15.0,0.0,1.0,
168,5.0,increament,0.6,100.0,standard,15.0,0.0,1.0,
169,5.0,increament,0.6,100.0,standard,15.0,0.0,1.0,
170,5.0,increament,0.84,140.0,oddball,17.0,0.0,1.0,0.873218699824065
171,5.0,increament,0.6,100.0,standard,15.0,0.0,1.0,
172,5.0,increament,0.6,100.0,standard,15.0,0.0,1.0,
173,5.0,increament,0.6,100.0,standard,15.0,0.0,1.0,
174,5.0,increament,0.6,100.0,standard,15.0,0.0,1.0,
175,5.0,increament,0.6,100.0,standard,15.0,0.0,1.0,
176,5.0,increament,0.6,100.0,standard,15.0,0.0,1.0,
177,5.0,increament,0.96,160.0,oddball,18.0,0.0,0.0,
178,5.0,increament,0.6,100.0,standard,15.0,0.0,1.0,
179,5.0,increament,0.6,100.0,standard,15.0,0.0,1.0,
180,5.0,decreament,0.6,100.0,standard,11.0,0.0,1.0,
181,5.0,decreament,0.6,100.0,standard,11.0,0.0,1.0,
182,5.0,decreament,0.6,100.0,standard,11.0,0.0,1.0,
183,5.0,decreament,0.6,100.0,standard,11.0,0.0,1.0,
184,5.0,decreament,0.6,100.0,standard,11.0,0.0,1.0,
185,5.0,decreament,0.24,40.0,oddball,12.0,0.0,1.0,0.588977700099349
186,5.0,decreament,0.6,100.0,standard,11.0,0.0,1.0,
187,5.0,decreament,0.6,100.0,standard,11.0,0.0,1.0,
188,5.0,decreament,0.6,100.0,standard,11.0,0.0,1.0,
189,5.0,decreament,0.6,100.0,standard,11.0,0.0,1.0,
190,5.0,decreament,0.6,100.0,standard,11.0,0.0,1.0,
191,5.0,decreament,0.6,100.0,standard,11.0,0.0,1.0,
192,5.0,decreament,0.6,100.0,standard,11.0,0.0,1.0,
193,5.0,decreament,0.6,100.0,standard,11.0,0.0,1.0,
194,5.0,decreament,0.6,100.0,standard,11.0,0.0,1.0,
195,5.0,decreament,0.6,100.0,standard,11.0,0.0,1.0,
196,5.0,decreament,0.6,100.0,standard,11.0,0.0,1.0,
197,5.0,decreament,0.6,100.0,standard,11.0,0.0,1.0,
198,5.0,decreament,0.48,80.0,oddball,14.0,0.0,1.0,0.639187500346452
199,5.0,decreament,0.6,100.0,standard,11.0,0.0,1.0,
200,5.0,decreament,0.6,100.0,standard,11.0,0.0,1.0,
201,5.0,decreament,0.6,100.0,standard,11.0,0.0,1.0,
202,5.0,decreament,0.6,100.0,standard,11.0,0.0,1.0,
203,5.0,decreament,0.6,100.0,standard,11.0,0.0,1.0,
204,5.0,decreament,0.6,100.0,standard,11.0,0.0,1.0,
205,5.0,decreament,0.36,60.0,oddball,13.0,0.0,1.0,0.9489104999229312
206,5.0,decreament,0.6,100.0,standard,11.0,0.0,1.0,
207,5.0,decreament,0.6,100.0,standard,11.0,0.0,1.0,
208,5.0,decreament,0.6,100.0,standard,11.0,0.0,1.0,
209,5.0,decreament,0.6,100.0,standard,11.0,0.0,1.0,
210,5.0,increament,0.6,100.0,standard,15.0,0.0,1.0,
211,5.0,increament,0.6,100.0,standard,15.0,0.0,1.0,
212,5.0,increament,0.6,100.0,standard,15.0,0.0,1.0,
213,5.0,increament,0.6,100.0,standard,15.0,0.0,1.0,
214,5.0,increament,0.6,100.0,standard,15.0,0.0,1.0,
215,5.0,increament,0.6,100.0,standard,15.0,0.0,1.0,
216,5.0,increament,0.96,160.0,oddball,18.0,0.0,0.0,
217,5.0,increament,0.6,100.0,standard,15.0,0.0,1.0,
218,5.0,increament,0.6,100.0,standard,15.0,0.0,1.0,
219,5.0,increament,0.6,100.0,standard,15.0,0.0,1.0,
220,5.0,increament,0.6,100.0,standard,15.0,0.0,1.0,
221,5.0,increament,0.6,100.0,standard,15.0,0.0,1.0,
222,5.0,increament,0.6,100.0,standard,15.0,0.0,1.0,
223,5.0,increament,0.6,100.0,standard,15.0,0.0,1.0,
224,5.0,increament,0.6,100.0,standard,15.0,0.0,1.0,
225,5.0,increament,0.6,100.0,standard,15.0,0.0,1.0,
226,5.0,increament,0.6,100.0,standard,15.0,0.0,1.0,
227,5.0,increament,0.6,100.0,standard,15.0,0.0,1.0,
228,5.0,increament,0.72,120.0,oddball,16.0,0.0,0.0,
229,5.0,increament,0.6,100.0,standard,15.0,0.0,1.0,
230,5.0,increament,0.6,100.0,standard,15.0,0.0,1.0,
231,5.0,increament,0.6,100.0,standard,15.0,0.0,1.0,
232,5.0,increament,0.6,100.0,standard,15.0,0.0,1.0,
233,5.0,increament,0.6,100.0,standard,15.0,0.0,1.0,
234,5.0,increament,0.6,100.0,standard,15.0,0.0,1.0,
235,5.0,increament,0.6,100.0,standard,15.0,0.0,0.0,0.8119985000230372
236,5.0,increament,0.84,140.0,oddball,17.0,0.0,0.0,
237,5.0,increament,0.6,100.0,standard,15.0,0.0,1.0,
238,5.0,increament,0.6,100.0,standard,15.0,0.0,1.0,
239,5.0,increament,0.6,100.0,standard,15.0,0.0,1.0,
240,5.0,decreament,0.6,100.0,standard,11.0,0.0,1.0,
241,5.0,decreament,0.6,100.0,standard,11.0,0.0,1.0,
242,5.0,decreament,0.6,100.0,standard,11.0,0.0,1.0,
243,5.0,decreament,0.6,100.0,standard,11.0,0.0,1.0,
244,5.0,decreament,0.6,100.0,standard,11.0,0.0,1.0,
245,5.0,decreament,0.6,100.0,standard,11.0,0.0,1.0,
246,5.0,decreament,0.6,100.0,standard,11.0,0.0,1.0,
247,5.0,decreament,0.6,100.0,standard,11.0,0.0,1.0,
248,5.0,decreament,0.6,100.0,standard,11.0,0.0,1.0,
249,5.0,decreament,0.6,100.0,standard,11.0,0.0,1.0,
250,5.0,decreament,0.36,60.0,oddball,13.0,0.0,1.0,0.7472985996864736
251,5.0,decreament,0.6,100.0,standard,11.0,0.0,1.0,
252,5.0,decreament,0.6,100.0,standard,11.0,0.0,1.0,
253,5.0,decreament,0.6,100.0,standard,11.0,0.0,0.0,1.1070079002529385
254,5.0,decreament,0.24,40.0,oddball,12.0,0.0,1.0,0.8100022999569774
255,5.0,decreament,0.6,100.0,standard,11.0,0.0,1.0,
256,5.0,decreament,0.6,100.0,standard,11.0,0.0,1.0,
257,5.0,decreament,0.6,100.0,standard,11.0,0.0,1.0,
258,5.0,decreament,0.6,100.0,standard,11.0,0.0,1.0,
259,5.0,decreament,0.6,100.0,standard,11.0,0.0,0.0,1.2824554000981152
260,5.0,decreament,0.6,100.0,standard,11.0,0.0,1.0,
261,5.0,decreament,0.6,100.0,standard,11.0,0.0,1.0,
262,5.0,decreament,0.6,100.0,standard,11.0,0.0,1.0,
263,5.0,decreament,0.6,100.0,standard,11.0,0.0,1.0,
264,5.0,decreament,0.48,80.0,oddball,14.0,0.0,0.0,
265,5.0,decreament,0.6,100.0,standard,11.0,0.0,1.0,
266,5.0,decreament,0.6,100.0,standard,11.0,0.0,1.0,
267,5.0,decreament,0.6,100.0,standard,11.0,0.0,1.0,
268,5.0,decreament,0.6,100.0,standard,11.0,0.0,1.0,
269,5.0,decreament,0.6,100.0,standard,11.0,0.0,1.0,
270,5.0,increament,0.6,100.0,standard,15.0,0.0,1.0,
271,5.0,increament,0.6,100.0,standard,15.0,0.0,1.0,
272,5.0,increament,0.6,100.0,standard,15.0,0.0,1.0,
273,5.0,increament,0.6,100.0,standard,15.0,0.0,1.0,
274,5.0,increament,0.6,100.0,standard,15.0,0.0,1.0,
275,5.0,increament,0.96,160.0,oddball,18.0,0.0,0.0,
276,5.0,increament,0.6,100.0,standard,15.0,0.0,1.0,
277,5.0,increament,0.6,100.0,standard,15.0,0.0,1.0,
278,5.0,increament,0.6,100.0,standard,15.0,0.0,1.0,
279,5.0,increament,0.6,100.0,standard,15.0,0.0,1.0,
280,5.0,increament,0.6,100.0,standard,15.0,0.0,1.0,
281,5.0,increament,0.6,100.0,standard,15.0,0.0,1.0,
282,5.0,increament,0.6,100.0,standard,15.0,0.0,1.0,
283,5.0,increament,0.6,100.0,standard,15.0,0.0,1.0,
284,5.0,increament,0.6,100.0,standard,15.0,0.0,1.0,
285,5.0,increament,0.6,100.0,standard,15.0,0.0,1.0,
286,5.0,increament,0.6,100.0,standard,15.0,0.0,1.0,
287,5.0,increament,0.6,100.0,standard,15.0,0.0,1.0,
288,5.0,increament,0.6,100.0,standard,15.0,0.0,1.0,
289,5.0,increament,0.6,100.0,standard,15.0,0.0,0.0,0.677228800021112
290,5.0,increament,0.6,100.0,standard,15.0,0.0,1.0,
291,5.0,increament,0.84,140.0,oddball,17.0,0.0,1.0,0.5670811999589205
292,5.0,increament,0.6,100.0,standard,15.0,0.0,1.0,
293,5.0,increament,0.6,100.0,standard,15.0,0.0,1.0,
294,5.0,increament,0.6,100.0,standard,15.0,0.0,1.0,
295,5.0,increament,0.6,100.0,standard,15.0,0.0,1.0,
296,5.0,increament,0.72,120.0,oddball,16.0,0.0,0.0,
297,5.0,increament,0.6,100.0,standard,15.0,0.0,1.0,
298,5.0,increament,0.6,100.0,standard,15.0,0.0,1.0,
299,5.0,increament,0.6,100.0,standard,15.0,0.0,1.0,
300,0.0,decreament,0.6,100.0,standard,1.0,1.0,1.0,
301,0.0,decreament,0.6,100.0,standard,1.0,1.0,1.0,
302,0.0,decreament,0.6,100.0,standard,1.0,1.0,1.0,
303,0.0,decreament,0.6,100.0,standard,1.0,1.0,1.0,
304,0.0,decreament,0.6,100.0,standard,1.0,1.0,1.0,
305,0.0,decreament,0.6,100.0,standard,1.0,1.0,1.0,
306,0.0,decreament,0.6,100.0,standard,1.0,1.0,1.0,
307,0.0,decreament,0.24,40.0,oddball,2.0,1.0,1.0,1.190006600227207
308,0.0,decreament,0.6,100.0,standard,1.0,1.0,1.0,
309,0.0,decreament,0.6,100.0,standard,1.0,1.0,1.0,
310,0.0,decreament,0.6,100.0,standard,1.0,1.0,1.0,
311,0.0,decreament,0.6,100.0,standard,1.0,1.0,1.0,
312,0.0,decreament,0.6,100.0,standard,1.0,1.0,1.0,
313,0.0,decreament,0.6,100.0,standard,1.0,1.0,1.0,
314,0.0,decreament,0.36,60.0,oddball,3.0,1.0,1.0,0.5787511002272367
315,0.0,decreament,0.6,100.0,standard,1.0,1.0,1.0,
316,0.0,decreament,0.6,100.0,standard,1.0,1.0,1.0,
317,0.0,decreament,0.6,100.0,standard,1.0,1.0,1.0,
318,0.0,decreament,0.48,80.0,oddball,4.0,1.0,0.0,
319,0.0,decreament,0.6,100.0,standard,1.0,1.0,1.0,
320,0.0,decreament,0.6,100.0,standard,1.0,1.0,1.0,
321,0.0,decreament,0.6,100.0,standard,1.0,1.0,1.0,
322,0.0,decreament,0.6,100.0,standard,1.0,1.0,1.0,
323,0.0,decreament,0.6,100.0,standard,1.0,1.0,1.0,
324,0.0,decreament,0.6,100.0,standard,1.0,1.0,1.0,
325,0.0,decreament,0.6,100.0,standard,1.0,1.0,1.0,
326,0.0,decreament,0.6,100.0,standard,1.0,1.0,1.0,
327,0.0,decreament,0.6,100.0,standard,1.0,1.0,0.0,0.6309412997215986
328,0.0,decreament,0.6,100.0,standard,1.0,1.0,0.0,0.7871877001598477
329,0.0,decreament,0.6,100.0,standard,1.0,1.0,1.0,
330,0.0,increament,0.6,100.0,standard,5.0,1.0,1.0,
331,0.0,increament,0.6,100.0,standard,5.0,1.0,1.0,
332,0.0,increament,0.6,100.0,standard,5.0,1.0,1.0,
333,0.0,increament,0.6,100.0,standard,5.0,1.0,1.0,
334,0.0,increament,0.6,100.0,standard,5.0,1.0,1.0,
335,0.0,increament,0.72,120.0,oddball,6.0,1.0,0.0,
336,0.0,increament,0.6,100.0,standard,5.0,1.0,1.0,
337,0.0,increament,0.6,100.0,standard,5.0,1.0,1.0,
338,0.0,increament,0.6,100.0,standard,5.0,1.0,1.0,
339,0.0,increament,0.6,100.0,standard,5.0,1.0,1.0,
340,0.0,increament,0.6,100.0,standard,5.0,1.0,1.0,
341,0.0,increament,0.6,100.0,standard,5.0,1.0,1.0,
342,0.0,increament,0.6,100.0,standard,5.0,1.0,1.0,
343,0.0,increament,0.6,100.0,standard,5.0,1.0,1.0,
344,0.0,increament,0.6,100.0,standard,5.0,1.0,1.0,
345,0.0,increament,0.6,100.0,standard,5.0,1.0,1.0,
346,0.0,increament,0.96,160.0,oddball,8.0,1.0,1.0,0.619232399854809
347,0.0,increament,0.6,100.0,standard,5.0,1.0,1.0,
348,0.0,increament,0.6,100.0,standard,5.0,1.0,1.0,
349,0.0,increament,0.6,100.0,standard,5.0,1.0,1.0,
350,0.0,increament,0.6,100.0,standard,5.0,1.0,1.0,
351,0.0,increament,0.6,100.0,standard,5.0,1.0,1.0,
352,0.0,increament,0.6,100.0,standard,5.0,1.0,1.0,
353,0.0,increament,0.6,100.0,standard,5.0,1.0,1.0,
354,0.0,increament,0.6,100.0,standard,5.0,1.0,1.0,
355,0.0,increament,0.6,100.0,standard,5.0,1.0,1.0,
356,0.0,increament,0.84,140.0,oddball,7.0,1.0,1.0,1.3189137000590565
357,0.0,increament,0.6,100.0,standard,5.0,1.0,1.0,
358,0.0,increament,0.6,100.0,standard,5.0,1.0,1.0,
359,0.0,increament,0.6,100.0,standard,5.0,1.0,1.0,
360,0.0,decreament,0.6,100.0,standard,1.0,1.0,1.0,
361,0.0,decreament,0.6,100.0,standard,1.0,1.0,1.0,
362,0.0,decreament,0.6,100.0,standard,1.0,1.0,1.0,
363,0.0,decreament,0.6,100.0,standard,1.0,1.0,1.0,
364,0.0,decreament,0.6,100.0,standard,1.0,1.0,1.0,
365,0.0,decreament,0.36,60.0,oddball,3.0,1.0,1.0,0.6450296998955309
366,0.0,decreament,0.6,100.0,standard,1.0,1.0,0.0,0.6044601001776755
367,0.0,decreament,0.6,100.0,standard,1.0,1.0,1.0,
368,0.0,decreament,0.6,100.0,standard,1.0,1.0,1.0,
369,0.0,decreament,0.6,100.0,standard,1.0,1.0,1.0,
370,0.0,decreament,0.6,100.0,standard,1.0,1.0,1.0,
371,0.0,decreament,0.6,100.0,standard,1.0,1.0,1.0,
372,0.0,decreament,0.6,100.0,standard,1.0,1.0,1.0,
373,0.0,decreament,0.6,100.0,standard,1.0,1.0,1.0,
374,0.0,decreament,0.6,100.0,standard,1.0,1.0,1.0,
375,0.0,decreament,0.6,100.0,standard,1.0,1.0,1.0,
376,0.0,decreament,0.6,100.0,standard,1.0,1.0,1.0,
377,0.0,decreament,0.6,100.0,standard,1.0,1.0,1.0,
378,0.0,decreament,0.6,100.0,standard,1.0,1.0,1.0,
379,0.0,decreament,0.6,100.0,standard,1.0,1.0,1.0,
380,0.0,decreament,0.48,80.0,oddball,4.0,1.0,0.0,
381,0.0,decreament,0.6,100.0,standard,1.0,1.0,1.0,
382,0.0,decreament,0.6,100.0,standard,1.0,1.0,1.0,
383,0.0,decreament,0.6,100.0,standard,1.0,1.0,1.0,
384,0.0,decreament,0.24,40.0,oddball,2.0,1.0,1.0,0.6186875998973846
385,0.0,decreament,0.6,100.0,standard,1.0,1.0,1.0,
386,0.0,decreament,0.6,100.0,standard,1.0,1.0,1.0,
387,0.0,decreament,0.6,100.0,standard,1.0,1.0,1.0,
388,0.0,decreament,0.6,100.0,standard,1.0,1.0,1.0,
389,0.0,decreament,0.6,100.0,standard,1.0,1.0,1.0,
390,0.0,increament,0.6,100.0,standard,5.0,1.0,1.0,
391,0.0,increament,0.6,100.0,standard,5.0,1.0,1.0,
392,0.0,increament,0.6,100.0,standard,5.0,1.0,1.0,
393,0.0,increament,0.6,100.0,standard,5.0,1.0,1.0,
394,0.0,increament,0.6,100.0,standard,5.0,1.0,1.0,
395,0.0,increament,0.6,100.0,standard,5.0,1.0,0.0,0.7983350995928049
396,0.0,increament,0.96,160.0,oddball,8.0,1.0,1.0,0.4939808999188244
397,0.0,increament,0.6,100.0,standard,5.0,1.0,1.0,
398,0.0,increament,0.6,100.0,standard,5.0,1.0,1.0,
399,0.0,increament,0.6,100.0,standard,5.0,1.0,1.0,
400,0.0,increament,0.6,100.0,standard,5.0,1.0,1.0,
401,0.0,increament,0.6,100.0,standard,5.0,1.0,1.0,
402,0.0,increament,0.6,100.0,standard,5.0,1.0,1.0,
403,0.0,increament,0.6,100.0,standard,5.0,1.0,1.0,
404,0.0,increament,0.6,100.0,standard,5.0,1.0,1.0,
405,0.0,increament,0.6,100.0,standard,5.0,1.0,1.0,
406,0.0,increament,0.6,100.0,standard,5.0,1.0,1.0,
407,0.0,increament,0.84,140.0,oddball,7.0,1.0,1.0,0.5165089997462928
408,0.0,increament,0.6,100.0,standard,5.0,1.0,1.0,
409,0.0,increament,0.6,100.0,standard,5.0,1.0,1.0,
410,0.0,increament,0.6,100.0,standard,5.0,1.0,1.0,
411,0.0,increament,0.6,100.0,standard,5.0,1.0,1.0,
412,0.0,increament,0.6,100.0,standard,5.0,1.0,1.0,
413,0.0,increament,0.6,100.0,standard,5.0,1.0,1.0,
414,0.0,increament,0.6,100.0,standard,5.0,1.0,1.0,
415,0.0,increament,0.6,100.0,standard,5.0,1.0,1.0,
416,0.0,increament,0.72,120.0,oddball,6.0,1.0,0.0,
417,0.0,increament,0.6,100.0,standard,5.0,1.0,1.0,
418,0.0,increament,0.6,100.0,standard,5.0,1.0,1.0,
419,0.0,increament,0.6,100.0,standard,5.0,1.0,1.0,
420,0.0,decreament,0.6,100.0,standard,1.0,1.0,1.0,
421,0.0,decreament,0.6,100.0,standard,1.0,1.0,1.0,
422,0.0,decreament,0.6,100.0,standard,1.0,1.0,1.0,
423,0.0,decreament,0.6,100.0,standard,1.0,1.0,1.0,
424,0.0,decreament,0.6,100.0,standard,1.0,1.0,1.0,
425,0.0,decreament,0.6,100.0,standard,1.0,1.0,1.0,
426,0.0,decreament,0.6,100.0,standard,1.0,1.0,1.0,
427,0.0,decreament,0.6,100.0,standard,1.0,1.0,1.0,
428,0.0,decreament,0.6,100.0,standard,1.0,1.0,1.0,
429,0.0,decreament,0.6,100.0,standard,1.0,1.0,1.0,
430,0.0,decreament,0.6,100.0,standard,1.0,1.0,1.0,
431,0.0,decreament,0.6,100.0,standard,1.0,1.0,1.0,
432,0.0,decreament,0.6,100.0,standard,1.0,1.0,1.0,
433,0.0,decreament,0.6,100.0,standard,1.0,1.0,1.0,
434,0.0,decreament,0.24,40.0,oddball,2.0,1.0,1.0,0.5673348996788263
435,0.0,decreament,0.6,100.0,standard,1.0,1.0,1.0,
436,0.0,decreament,0.6,100.0,standard,1.0,1.0,1.0,
437,0.0,decreament,0.6,100.0,standard,1.0,1.0,1.0,
438,0.0,decreament,0.6,100.0,standard,1.0,1.0,1.0,
439,0.0,decreament,0.48,80.0,oddball,4.0,1.0,1.0,0.574526899959892
440,0.0,decreament,0.6,100.0,standard,1.0,1.0,1.0,
441,0.0,decreament,0.6,100.0,standard,1.0,1.0,1.0,
442,0.0,decreament,0.6,100.0,standard,1.0,1.0,1.0,
443,0.0,decreament,0.6,100.0,standard,1.0,1.0,1.0,
444,0.0,decreament,0.6,100.0,standard,1.0,1.0,1.0,
445,0.0,decreament,0.6,100.0,standard,1.0,1.0,1.0,
446,0.0,decreament,0.6,100.0,standard,1.0,1.0,1.0,
447,0.0,decreament,0.6,100.0,standard,1.0,1.0,1.0,
448,0.0,decreament,0.36,60.0,oddball,3.0,1.0,1.0,0.5718141999095678
449,0.0,decreament,0.6,100.0,standard,1.0,1.0,1.0,
450,0.0,increament,0.6,100.0,standard,5.0,1.0,1.0,
451,0.0,increament,0.6,100.0,standard,5.0,1.0,1.0,
452,0.0,increament,0.6,100.0,standard,5.0,1.0,1.0,
453,0.0,increament,0.6,100.0,standard,5.0,1.0,1.0,
454,0.0,increament,0.6,100.0,standard,5.0,1.0,1.0,
455,0.0,increament,0.6,100.0,standard,5.0,1.0,1.0,
456,0.0,increament,0.72,120.0,oddball,6.0,1.0,1.0,0.657368500251323
457,0.0,increament,0.6,100.0,standard,5.0,1.0,1.0,
458,0.0,increament,0.6,100.0,standard,5.0,1.0,1.0,
459,0.0,increament,0.6,100.0,standard,5.0,1.0,1.0,
460,0.0,increament,0.6,100.0,standard,5.0,1.0,1.0,
461,0.0,increament,0.6,100.0,standard,5.0,1.0,1.0,
462,0.0,increament,0.6,100.0,standard,5.0,1.0,1.0,
463,0.0,increament,0.6,100.0,standard,5.0,1.0,1.0,
464,0.0,increament,0.6,100.0,standard,5.0,1.0,1.0,
465,0.0,increament,0.6,100.0,standard,5.0,1.0,1.0,
466,0.0,increament,0.6,100.0,standard,5.0,1.0,1.0,
467,0.0,increament,0.84,140.0,oddball,7.0,1.0,1.0,0.5428017000667751
468,0.0,increament,0.6,100.0,standard,5.0,1.0,1.0,
469,0.0,increament,0.6,100.0,standard,5.0,1.0,1.0,
470,0.0,increament,0.6,100.0,standard,5.0,1.0,1.0,
471,0.0,increament,0.6,100.0,standard,5.0,1.0,1.0,
472,0.0,increament,0.6,100.0,standard,5.0,1.0,1.0,
473,0.0,increament,0.96,160.0,oddball,8.0,1.0,1.0,0.5678367000073195
474,0.0,increament,0.6,100.0,standard,5.0,1.0,1.0,
475,0.0,increament,0.6,100.0,standard,5.0,1.0,1.0,
476,0.0,increament,0.6,100.0,standard,5.0,1.0,1.0,
477,0.0,increament,0.6,100.0,standard,5.0,1.0,1.0,
478,0.0,increament,0.6,100.0,standard,5.0,1.0,1.0,
479,0.0,increament,0.6,100.0,standard,5.0,1.0,1.0,
480,0.0,decreament,0.6,100.0,standard,1.0,1.0,1.0,
481,0.0,decreament,0.6,100.0,standard,1.0,1.0,1.0,
482,0.0,decreament,0.6,100.0,standard,1.0,1.0,1.0,
483,0.0,decreament,0.6,100.0,standard,1.0,1.0,1.0,
484,0.0,decreament,0.6,100.0,standard,1.0,1.0,1.0,
485,0.0,decreament,0.6,100.0,standard,1.0,1.0,1.0,
486,0.0,decreament,0.6,100.0,standard,1.0,1.0,1.0,
487,0.0,decreament,0.6,100.0,standard,1.0,1.0,1.0,
488,0.0,decreament,0.6,100.0,standard,1.0,1.0,1.0,
489,0.0,decreament,0.6,100.0,standard,1.0,1.0,1.0,
490,0.0,decreament,0.48,80.0,oddball,4.0,1.0,0.0,
491,0.0,decreament,0.6,100.0,standard,1.0,1.0,1.0,
492,0.0,decreament,0.6,100.0,standard,1.0,1.0,1.0,
493,0.0,decreament,0.6,100.0,standard,1.0,1.0,1.0,
494,0.0,decreament,0.24,40.0,oddball,2.0,1.0,1.0,0.6163453999906778
495,0.0,decreament,0.6,100.0,standard,1.0,1.0,1.0,
496,0.0,decreament,0.6,100.0,standard,1.0,1.0,1.0,
497,0.0,decreament,0.6,100.0,standard,1.0,1.0,1.0,
498,0.0,decreament,0.6,100.0,standard,1.0,1.0,1.0,
499,0.0,decreament,0.36,60.0,oddball,3.0,1.0,1.0,0.8490260001271963
500,0.0,decreament,0.6,100.0,standard,1.0,1.0,1.0,
501,0.0,decreament,0.6,100.0,standard,1.0,1.0,1.0,
502,0.0,decreament,0.6,100.0,standard,1.0,1.0,1.0,
503,0.0,decreament,0.6,100.0,standard,1.0,1.0,1.0,
504,0.0,decreament,0.6,100.0,standard,1.0,1.0,1.0,
505,0.0,decreament,0.6,100.0,standard,1.0,1.0,1.0,
506,0.0,decreament,0.6,100.0,standard,1.0,1.0,1.0,
507,0.0,decreament,0.6,100.0,standard,1.0,1.0,1.0,
508,0.0,decreament,0.6,100.0,standard,1.0,1.0,1.0,
509,0.0,decreament,0.6,100.0,standard,1.0,1.0,1.0,
510,0.0,increament,0.6,100.0,standard,5.0,1.0,1.0,
511,0.0,increament,0.6,100.0,standard,5.0,1.0,1.0,
512,0.0,increament,0.6,100.0,standard,5.0,1.0,1.0,
513,0.0,increament,0.6,100.0,standard,5.0,1.0,1.0,
514,0.0,increament,0.6,100.0,standard,5.0,1.0,1.0,
515,0.0,increament,0.6,100.0,standard,5.0,1.0,1.0,
516,0.0,increament,0.6,100.0,standard,5.0,1.0,1.0,
517,0.0,increament,0.6,100.0,standard,5.0,1.0,1.0,
518,0.0,increament,0.6,100.0,standard,5.0,1.0,1.0,
519,0.0,increament,0.6,100.0,standard,5.0,1.0,1.0,
520,0.0,increament,0.6,100.0,standard,5.0,1.0,1.0,
521,0.0,increament,0.6,100.0,standard,5.0,1.0,1.0,
522,0.0,increament,0.6,100.0,standard,5.0,1.0,1.0,
523,0.0,increament,0.6,100.0,standard,5.0,1.0,1.0,
524,0.0,increament,0.72,120.0,oddball,6.0,1.0,0.0,
525,0.0,increament,0.6,100.0,standard,5.0,1.0,1.0,
526,0.0,increament,0.6,100.0,standard,5.0,1.0,1.0,
527,0.0,increament,0.6,100.0,standard,5.0,1.0,1.0,
528,0.0,increament,0.6,100.0,standard,5.0,1.0,1.0,
529,0.0,increament,0.6,100.0,standard,5.0,1.0,1.0,
530,0.0,increament,0.84,140.0,oddball,7.0,1.0,0.0,
531,0.0,increament,0.6,100.0,standard,5.0,1.0,1.0,
532,0.0,increament,0.6,100.0,standard,5.0,1.0,1.0,
533,0.0,increament,0.6,100.0,standard,5.0,1.0,1.0,
534,0.0,increament,0.6,100.0,standard,5.0,1.0,1.0,
535,0.0,increament,0.6,100.0,standard,5.0,1.0,1.0,
536,0.0,increament,0.6,100.0,standard,5.0,1.0,1.0,
537,0.0,increament,0.6,100.0,standard,5.0,1.0,0.0,1.2733049998059869
538,0.0,increament,0.6,100.0,standard,5.0,1.0,1.0,
539,0.0,increament,0.96,160.0,oddball,8.0,1.0,1.0,0.7348512001335621
540,0.0,decreament,0.6,100.0,standard,1.0,1.0,1.0,
541,0.0,decreament,0.6,100.0,standard,1.0,1.0,1.0,
542,0.0,decreament,0.6,100.0,standard,1.0,1.0,1.0,
543,0.0,decreament,0.6,100.0,standard,1.0,1.0,1.0,
544,0.0,decreament,0.6,100.0,standard,1.0,1.0,1.0,
545,0.0,decreament,0.6,100.0,standard,1.0,1.0,1.0,
546,0.0,decreament,0.6,100.0,standard,1.0,1.0,1.0,
547,0.0,decreament,0.6,100.0,standard,1.0,1.0,1.0,
548,0.0,decreament,0.6,100.0,standard,1.0,1.0,1.0,
549,0.0,decreament,0.6,100.0,standard,1.0,1.0,1.0,
550,0.0,decreament,0.6,100.0,standard,1.0,1.0,1.0,
551,0.0,decreament,0.6,100.0,standard,1.0,1.0,1.0,
552,0.0,decreament,0.6,100.0,standard,1.0,1.0,1.0,
553,0.0,decreament,0.24,40.0,oddball,2.0,1.0,1.0,0.6327321999706328
554,0.0,decreament,0.6,100.0,standard,1.0,1.0,1.0,
555,0.0,decreament,0.6,100.0,standard,1.0,1.0,1.0,
556,0.0,decreament,0.6,100.0,standard,1.0,1.0,1.0,
557,0.0,decreament,0.6,100.0,standard,1.0,1.0,1.0,
558,0.0,decreament,0.6,100.0,standard,1.0,1.0,1.0,
559,0.0,decreament,0.6,100.0,standard,1.0,1.0,1.0,
560,0.0,decreament,0.6,100.0,standard,1.0,1.0,1.0,
561,0.0,decreament,0.6,100.0,standard,1.0,1.0,1.0,
562,0.0,decreament,0.6,100.0,standard,1.0,1.0,1.0,
563,0.0,decreament,0.6,100.0,standard,1.0,1.0,1.0,
564,0.0,decreament,0.6,100.0,standard,1.0,1.0,1.0,
565,0.0,decreament,0.36,60.0,oddball,3.0,1.0,1.0,0.5696988999843597
566,0.0,decreament,0.6,100.0,standard,1.0,1.0,1.0,
567,0.0,decreament,0.6,100.0,standard,1.0,1.0,1.0,
568,0.0,decreament,0.6,100.0,standard,1.0,1.0,1.0,
569,0.0,decreament,0.48,80.0,oddball,4.0,1.0,0.0,
570,0.0,increament,0.6,100.0,standard,5.0,1.0,1.0,
571,0.0,increament,0.6,100.0,standard,5.0,1.0,1.0,
572,0.0,increament,0.6,100.0,standard,5.0,1.0,1.0,
573,0.0,increament,0.6,100.0,standard,5.0,1.0,1.0,
574,0.0,increament,0.6,100.0,standard,5.0,1.0,1.0,
575,0.0,increament,0.6,100.0,standard,5.0,1.0,1.0,
576,0.0,increament,0.6,100.0,standard,5.0,1.0,1.0,
577,0.0,increament,0.72,120.0,oddball,6.0,1.0,0.0,
578,0.0,increament,0.6,100.0,standard,5.0,1.0,1.0,
579,0.0,increament,0.6,100.0,standard,5.0,1.0,1.0,
580,0.0,increament,0.6,100.0,standard,5.0,1.0,1.0,
581,0.0,increament,0.6,100.0,standard,5.0,1.0,1.0,
582,0.0,increament,0.6,100.0,standard,5.0,1.0,1.0,
583,0.0,increament,0.6,100.0,standard,5.0,1.0,1.0,
584,0.0,increament,0.6,100.0,standard,5.0,1.0,1.0,
585,0.0,increament,0.6,100.0,standard,5.0,1.0,0.0,0.836693299934268
586,0.0,increament,0.6,100.0,standard,5.0,1.0,1.0,
587,0.0,increament,0.96,160.0,oddball,8.0,1.0,1.0,0.6082052998244762
588,0.0,increament,0.6,100.0,standard,5.0,1.0,1.0,
589,0.0,increament,0.6,100.0,standard,5.0,1.0,1.0,
590,0.0,increament,0.6,100.0,standard,5.0,1.0,1.0,
591,0.0,increament,0.6,100.0,standard,5.0,1.0,1.0,
592,0.0,increament,0.6,100.0,standard,5.0,1.0,1.0,
593,0.0,increament,0.6,100.0,standard,5.0,1.0,1.0,
594,0.0,increament,0.6,100.0,standard,5.0,1.0,1.0,
595,0.0,increament,0.84,140.0,oddball,7.0,1.0,1.0,1.1015213998034596
596,0.0,increament,0.6,100.0,standard,5.0,1.0,1.0,
597,0.0,increament,0.6,100.0,standard,5.0,1.0,1.0,
598,0.0,increament,0.6,100.0,standard,5.0,1.0,1.0,
599,0.0,increament,0.6,100.0,standard,5.0,1.0,1.0,
600,10.0,decreament,0.6,100.0,standard,21.0,2.0,1.0,
601,10.0,decreament,0.6,100.0,standard,21.0,2.0,1.0,
602,10.0,decreament,0.6,100.0,standard,21.0,2.0,1.0,
603,10.0,decreament,0.6,100.0,standard,21.0,2.0,1.0,
604,10.0,decreament,0.6,100.0,standard,21.0,2.0,1.0,
605,10.0,decreament,0.24,40.0,oddball,22.0,2.0,1.0,0.79879380017519
606,10.0,decreament,0.6,100.0,standard,21.0,2.0,1.0,
607,10.0,decreament,0.6,100.0,standard,21.0,2.0,1.0,
608,10.0,decreament,0.6,100.0,standard,21.0,2.0,1.0,
609,10.0,decreament,0.6,100.0,standard,21.0,2.0,1.0,
610,10.0,decreament,0.6,100.0,standard,21.0,2.0,1.0,
611,10.0,decreament,0.6,100.0,standard,21.0,2.0,1.0,
612,10.0,decreament,0.6,100.0,standard,21.0,2.0,1.0,
613,10.0,decreament,0.6,100.0,standard,21.0,2.0,1.0,
614,10.0,decreament,0.6,100.0,standard,21.0,2.0,1.0,
615,10.0,decreament,0.6,100.0,standard,21.0,2.0,1.0,
616,10.0,decreament,0.36,60.0,oddball,23.0,2.0,1.0,0.4522266001440584
617,10.0,decreament,0.6,100.0,standard,21.0,2.0,1.0,
618,10.0,decreament,0.6,100.0,standard,21.0,2.0,1.0,
619,10.0,decreament,0.6,100.0,standard,21.0,2.0,1.0,
620,10.0,decreament,0.6,100.0,standard,21.0,2.0,1.0,
621,10.0,decreament,0.6,100.0,standard,21.0,2.0,1.0,
622,10.0,decreament,0.48,80.0,oddball,24.0,2.0,0.0,
623,10.0,decreament,0.6,100.0,standard,21.0,2.0,1.0,
624,10.0,decreament,0.6,100.0,standard,21.0,2.0,1.0,
625,10.0,decreament,0.6,100.0,standard,21.0,2.0,1.0,
626,10.0,decreament,0.6,100.0,standard,21.0,2.0,1.0,
627,10.0,decreament,0.6,100.0,standard,21.0,2.0,1.0,
628,10.0,decreament,0.6,100.0,standard,21.0,2.0,1.0,
629,10.0,decreament,0.6,100.0,standard,21.0,2.0,1.0,
630,10.0,increament,0.6,100.0,standard,25.0,2.0,1.0,
631,10.0,increament,0.6,100.0,standard,25.0,2.0,1.0,
632,10.0,increament,0.6,100.0,standard,25.0,2.0,1.0,
633,10.0,increament,0.6,100.0,standard,25.0,2.0,1.0,
634,10.0,increament,0.6,100.0,standard,25.0,2.0,1.0,
635,10.0,increament,0.6,100.0,standard,25.0,2.0,1.0,
636,10.0,increament,0.6,100.0,standard,25.0,2.0,1.0,
637,10.0,increament,0.6,100.0,standard,25.0,2.0,1.0,
638,10.0,increament,0.6,100.0,standard,25.0,2.0,1.0,
639,10.0,increament,0.6,100.0,standard,25.0,2.0,1.0,
640,10.0,increament,0.84,140.0,oddball,27.0,2.0,0.0,
641,10.0,increament,0.6,100.0,standard,25.0,2.0,1.0,
642,10.0,increament,0.6,100.0,standard,25.0,2.0,1.0,
643,10.0,increament,0.6,100.0,standard,25.0,2.0,1.0,
644,10.0,increament,0.6,100.0,standard,25.0,2.0,1.0,
645,10.0,increament,0.6,100.0,standard,25.0,2.0,1.0,
646,10.0,increament,0.6,100.0,standard,25.0,2.0,1.0,
647,10.0,increament,0.6,100.0,standard,25.0,2.0,1.0,
648,10.0,increament,0.6,100.0,standard,25.0,2.0,1.0,
649,10.0,increament,0.6,100.0,standard,25.0,2.0,1.0,
650,10.0,increament,0.6,100.0,standard,25.0,2.0,1.0,
651,10.0,increament,0.72,120.0,oddball,26.0,2.0,1.0,0.5461601996794343
652,10.0,increament,0.6,100.0,standard,25.0,2.0,1.0,
653,10.0,increament,0.6,100.0,standard,25.0,2.0,1.0,
654,10.0,increament,0.6,100.0,standard,25.0,2.0,1.0,
655,10.0,increament,0.6,100.0,standard,25.0,2.0,1.0,
656,10.0,increament,0.96,160.0,oddball,28.0,2.0,1.0,0.7859124997630715
657,10.0,increament,0.6,100.0,standard,25.0,2.0,1.0,
658,10.0,increament,0.6,100.0,standard,25.0,2.0,1.0,
659,10.0,increament,0.6,100.0,standard,25.0,2.0,1.0,
660,10.0,decreament,0.6,100.0,standard,21.0,2.0,1.0,
661,10.0,decreament,0.6,100.0,standard,21.0,2.0,1.0,
662,10.0,decreament,0.6,100.0,standard,21.0,2.0,1.0,
663,10.0,decreament,0.6,100.0,standard,21.0,2.0,1.0,
664,10.0,decreament,0.6,100.0,standard,21.0,2.0,1.0,
665,10.0,decreament,0.6,100.0,standard,21.0,2.0,1.0,
666,10.0,decreament,0.6,100.0,standard,21.0,2.0,1.0,
667,10.0,decreament,0.6,100.0,standard,21.0,2.0,1.0,
668,10.0,decreament,0.6,100.0,standard,21.0,2.0,1.0,
669,10.0,decreament,0.6,100.0,standard,21.0,2.0,1.0,
670,10.0,decreament,0.6,100.0,standard,21.0,2.0,1.0,
671,10.0,decreament,0.24,40.0,oddball,22.0,2.0,1.0,0.5219550998881459
672,10.0,decreament,0.6,100.0,standard,21.0,2.0,1.0,
673,10.0,decreament,0.6,100.0,standard,21.0,2.0,0.0,0.6161194001324475
674,10.0,decreament,0.6,100.0,standard,21.0,2.0,1.0,
675,10.0,decreament,0.6,100.0,standard,21.0,2.0,1.0,
676,10.0,decreament,0.6,100.0,standard,21.0,2.0,1.0,
677,10.0,decreament,0.6,100.0,standard,21.0,2.0,1.0,
678,10.0,decreament,0.6,100.0,standard,21.0,2.0,1.0,
679,10.0,decreament,0.6,100.0,standard,21.0,2.0,1.0,
680,10.0,decreament,0.48,80.0,oddball,24.0,2.0,0.0,
681,10.0,decreament,0.6,100.0,standard,21.0,2.0,1.0,
682,10.0,decreament,0.6,100.0,standard,21.0,2.0,1.0,
683,10.0,decreament,0.6,100.0,standard,21.0,2.0,1.0,
684,10.0,decreament,0.6,100.0,standard,21.0,2.0,1.0,
685,10.0,decreament,0.6,100.0,standard,21.0,2.0,1.0,
686,10.0,decreament,0.36,60.0,oddball,23.0,2.0,1.0,0.7178636998869479
687,10.0,decreament,0.6,100.0,standard,21.0,2.0,1.0,
688,10.0,decreament,0.6,100.0,standard,21.0,2.0,1.0,
689,10.0,decreament,0.6,100.0,standard,21.0,2.0,1.0,
690,10.0,increament,0.6,100.0,standard,25.0,2.0,1.0,
691,10.0,increament,0.6,100.0,standard,25.0,2.0,1.0,
692,10.0,increament,0.6,100.0,standard,25.0,2.0,1.0,
693,10.0,increament,0.6,100.0,standard,25.0,2.0,1.0,
694,10.0,increament,0.6,100.0,standard,25.0,2.0,1.0,
695,10.0,increament,0.6,100.0,standard,25.0,2.0,1.0,
696,10.0,increament,0.6,100.0,standard,25.0,2.0,1.0,
697,10.0,increament,0.96,160.0,oddball,28.0,2.0,0.0,
698,10.0,increament,0.6,100.0,standard,25.0,2.0,1.0,
699,10.0,increament,0.6,100.0,standard,25.0,2.0,1.0,
700,10.0,increament,0.6,100.0,standard,25.0,2.0,1.0,
701,10.0,increament,0.84,140.0,oddball,27.0,2.0,1.0,0.3761394997127354
702,10.0,increament,0.6,100.0,standard,25.0,2.0,1.0,
703,10.0,increament,0.6,100.0,standard,25.0,2.0,1.0,
704,10.0,increament,0.6,100.0,standard,25.0,2.0,1.0,
705,10.0,increament,0.6,100.0,standard,25.0,2.0,1.0,
706,10.0,increament,0.6,100.0,standard,25.0,2.0,0.0,1.0607292000204325
707,10.0,increament,0.72,120.0,oddball,26.0,2.0,0.0,
708,10.0,increament,0.6,100.0,standard,25.0,2.0,1.0,
709,10.0,increament,0.6,100.0,standard,25.0,2.0,1.0,
710,10.0,increament,0.6,100.0,standard,25.0,2.0,1.0,
711,10.0,increament,0.6,100.0,standard,25.0,2.0,1.0,
712,10.0,increament,0.6,100.0,standard,25.0,2.0,1.0,
713,10.0,increament,0.6,100.0,standard,25.0,2.0,1.0,
714,10.0,increament,0.6,100.0,standard,25.0,2.0,1.0,
715,10.0,increament,0.6,100.0,standard,25.0,2.0,1.0,
716,10.0,increament,0.6,100.0,standard,25.0,2.0,1.0,
717,10.0,increament,0.6,100.0,standard,25.0,2.0,1.0,
718,10.0,increament,0.6,100.0,standard,25.0,2.0,1.0,
719,10.0,increament,0.6,100.0,standard,25.0,2.0,1.0,
720,10.0,decreament,0.6,100.0,standard,21.0,2.0,1.0,
721,10.0,decreament,0.6,100.0,standard,21.0,2.0,1.0,
722,10.0,decreament,0.6,100.0,standard,21.0,2.0,1.0,
723,10.0,decreament,0.6,100.0,standard,21.0,2.0,1.0,
724,10.0,decreament,0.6,100.0,standard,21.0,2.0,1.0,
725,10.0,decreament,0.36,60.0,oddball,23.0,2.0,1.0,1.0030974997207522
726,10.0,decreament,0.6,100.0,standard,21.0,2.0,1.0,
727,10.0,decreament,0.6,100.0,standard,21.0,2.0,1.0,
728,10.0,decreament,0.6,100.0,standard,21.0,2.0,1.0,
729,10.0,decreament,0.6,100.0,standard,21.0,2.0,1.0,
730,10.0,decreament,0.6,100.0,standard,21.0,2.0,1.0,
731,10.0,decreament,0.6,100.0,standard,21.0,2.0,1.0,
732,10.0,decreament,0.6,100.0,standard,21.0,2.0,1.0,
733,10.0,decreament,0.6,100.0,standard,21.0,2.0,1.0,
734,10.0,decreament,0.24,40.0,oddball,22.0,2.0,1.0,0.7015462000854313
735,10.0,decreament,0.6,100.0,standard,21.0,2.0,1.0,
736,10.0,decreament,0.6,100.0,standard,21.0,2.0,1.0,
737,10.0,decreament,0.6,100.0,standard,21.0,2.0,1.0,
738,10.0,decreament,0.6,100.0,standard,21.0,2.0,1.0,
739,10.0,decreament,0.6,100.0,standard,21.0,2.0,1.0,
740,10.0,decreament,0.6,100.0,standard,21.0,2.0,1.0,
741,10.0,decreament,0.6,100.0,standard,21.0,2.0,1.0,
742,10.0,decreament,0.6,100.0,standard,21.0,2.0,1.0,
743,10.0,decreament,0.6,100.0,standard,21.0,2.0,1.0,
744,10.0,decreament,0.6,100.0,standard,21.0,2.0,1.0,
745,10.0,decreament,0.6,100.0,standard,21.0,2.0,1.0,
746,10.0,decreament,0.6,100.0,standard,21.0,2.0,1.0,
747,10.0,decreament,0.48,80.0,oddball,24.0,2.0,0.0,
748,10.0,decreament,0.6,100.0,standard,21.0,2.0,1.0,
749,10.0,decreament,0.6,100.0,standard,21.0,2.0,1.0,
750,10.0,increament,0.6,100.0,standard,25.0,2.0,1.0,
751,10.0,increament,0.6,100.0,standard,25.0,2.0,1.0,
752,10.0,increament,0.6,100.0,standard,25.0,2.0,1.0,
753,10.0,increament,0.6,100.0,standard,25.0,2.0,1.0,
754,10.0,increament,0.6,100.0,standard,25.0,2.0,1.0,
755,10.0,increament,0.6,100.0,standard,25.0,2.0,1.0,
756,10.0,increament,0.6,100.0,standard,25.0,2.0,1.0,
757,10.0,increament,0.6,100.0,standard,25.0,2.0,1.0,
758,10.0,increament,0.84,140.0,oddball,27.0,2.0,0.0,
759,10.0,increament,0.6,100.0,standard,25.0,2.0,1.0,
760,10.0,increament,0.6,100.0,standard,25.0,2.0,1.0,
761,10.0,increament,0.6,100.0,standard,25.0,2.0,1.0,
762,10.0,increament,0.72,120.0,oddball,26.0,2.0,0.0,
763,10.0,increament,0.6,100.0,standard,25.0,2.0,1.0,
764,10.0,increament,0.6,100.0,standard,25.0,2.0,1.0,
765,10.0,increament,0.6,100.0,standard,25.0,2.0,1.0,
766,10.0,increament,0.6,100.0,standard,25.0,2.0,1.0,
767,10.0,increament,0.6,100.0,standard,25.0,2.0,1.0,
768,10.0,increament,0.6,100.0,standard,25.0,2.0,1.0,
769,10.0,increament,0.6,100.0,standard,25.0,2.0,1.0,
770,10.0,increament,0.6,100.0,standard,25.0,2.0,1.0,
771,10.0,increament,0.6,100.0,standard,25.0,2.0,1.0,
772,10.0,increament,0.6,100.0,standard,25.0,2.0,1.0,
773,10.0,increament,0.6,100.0,standard,25.0,2.0,1.0,
774,10.0,increament,0.6,100.0,standard,25.0,2.0,1.0,
775,10.0,increament,0.6,100.0,standard,25.0,2.0,1.0,
776,10.0,increament,0.6,100.0,standard,25.0,2.0,1.0,
777,10.0,increament,0.6,100.0,standard,25.0,2.0,1.0,
778,10.0,increament,0.96,160.0,oddball,28.0,2.0,1.0,0.3933684001676738
779,10.0,increament,0.6,100.0,standard,25.0,2.0,1.0,
780,10.0,decreament,0.6,100.0,standard,21.0,2.0,1.0,
781,10.0,decreament,0.6,100.0,standard,21.0,2.0,1.0,
782,10.0,decreament,0.6,100.0,standard,21.0,2.0,1.0,
783,10.0,decreament,0.6,100.0,standard,21.0,2.0,1.0,
784,10.0,decreament,0.6,100.0,standard,21.0,2.0,1.0,
785,10.0,decreament,0.6,100.0,standard,21.0,2.0,1.0,
786,10.0,decreament,0.6,100.0,standard,21.0,2.0,1.0,
787,10.0,decreament,0.6,100.0,standard,21.0,2.0,1.0,
788,10.0,decreament,0.6,100.0,standard,21.0,2.0,1.0,
789,10.0,decreament,0.6,100.0,standard,21.0,2.0,1.0,
790,10.0,decreament,0.6,100.0,standard,21.0,2.0,1.0,
791,10.0,decreament,0.24,40.0,oddball,22.0,2.0,1.0,0.7204632996581495
792,10.0,decreament,0.6,100.0,standard,21.0,2.0,1.0,
793,10.0,decreament,0.6,100.0,standard,21.0,2.0,1.0,
794,10.0,decreament,0.6,100.0,standard,21.0,2.0,1.0,
795,10.0,decreament,0.6,100.0,standard,21.0,2.0,1.0,
796,10.0,decreament,0.6,100.0,standard,21.0,2.0,1.0,
797,10.0,decreament,0.6,100.0,standard,21.0,2.0,1.0,
798,10.0,decreament,0.36,60.0,oddball,23.0,2.0,1.0,0.6316169002093375
799,10.0,decreament,0.6,100.0,standard,21.0,2.0,1.0,
800,10.0,decreament,0.6,100.0,standard,21.0,2.0,1.0,
801,10.0,decreament,0.6,100.0,standard,21.0,2.0,1.0,
802,10.0,decreament,0.6,100.0,standard,21.0,2.0,1.0,
803,10.0,decreament,0.6,100.0,standard,21.0,2.0,1.0,
804,10.0,decreament,0.6,100.0,standard,21.0,2.0,1.0,
805,10.0,decreament,0.6,100.0,standard,21.0,2.0,1.0,
806,10.0,decreament,0.48,80.0,oddball,24.0,2.0,0.0,
807,10.0,decreament,0.6,100.0,standard,21.0,2.0,1.0,
808,10.0,decreament,0.6,100.0,standard,21.0,2.0,1.0,
809,10.0,decreament,0.6,100.0,standard,21.0,2.0,1.0,
810,10.0,increament,0.6,100.0,standard,25.0,2.0,1.0,
811,10.0,increament,0.6,100.0,standard,25.0,2.0,1.0,
812,10.0,increament,0.6,100.0,standard,25.0,2.0,1.0,
813,10.0,increament,0.6,100.0,standard,25.0,2.0,1.0,
814,10.0,increament,0.6,100.0,standard,25.0,2.0,1.0,
815,10.0,increament,0.6,100.0,standard,25.0,2.0,1.0,
816,10.0,increament,0.6,100.0,standard,25.0,2.0,1.0,
817,10.0,increament,0.6,100.0,standard,25.0,2.0,1.0,
818,10.0,increament,0.6,100.0,standard,25.0,2.0,1.0,
819,10.0,increament,0.6,100.0,standard,25.0,2.0,1.0,
820,10.0,increament,0.6,100.0,standard,25.0,2.0,1.0,
821,10.0,increament,0.6,100.0,standard,25.0,2.0,1.0,
822,10.0,increament,0.6,100.0,standard,25.0,2.0,1.0,
823,10.0,increament,0.6,100.0,standard,25.0,2.0,1.0,
824,10.0,increament,0.6,100.0,standard,25.0,2.0,1.0,
825,10.0,increament,0.72,120.0,oddball,26.0,2.0,1.0,1.4042028998956084
826,10.0,increament,0.6,100.0,standard,25.0,2.0,1.0,
827,10.0,increament,0.6,100.0,standard,25.0,2.0,1.0,
828,10.0,increament,0.6,100.0,standard,25.0,2.0,1.0,
829,10.0,increament,0.6,100.0,standard,25.0,2.0,1.0,
830,10.0,increament,0.6,100.0,standard,25.0,2.0,1.0,
831,10.0,increament,0.6,100.0,standard,25.0,2.0,1.0,
832,10.0,increament,0.6,100.0,standard,25.0,2.0,1.0,
833,10.0,increament,0.6,100.0,standard,25.0,2.0,1.0,
834,10.0,increament,0.6,100.0,standard,25.0,2.0,1.0,
835,10.0,increament,0.96,160.0,oddball,28.0,2.0,1.0,0.2463090000674128
836,10.0,increament,0.6,100.0,standard,25.0,2.0,1.0,
837,10.0,increament,0.6,100.0,standard,25.0,2.0,1.0,
838,10.0,increament,0.6,100.0,standard,25.0,2.0,1.0,
839,10.0,increament,0.84,140.0,oddball,27.0,2.0,0.0,
840,10.0,decreament,0.6,100.0,standard,21.0,2.0,1.0,
841,10.0,decreament,0.6,100.0,standard,21.0,2.0,1.0,
842,10.0,decreament,0.6,100.0,standard,21.0,2.0,1.0,
843,10.0,decreament,0.6,100.0,standard,21.0,2.0,1.0,
844,10.0,decreament,0.6,100.0,standard,21.0,2.0,1.0,
845,10.0,decreament,0.6,100.0,standard,21.0,2.0,1.0,
846,10.0,decreament,0.6,100.0,standard,21.0,2.0,1.0,
847,10.0,decreament,0.24,40.0,oddball,22.0,2.0,1.0,0.8694972996599972
848,10.0,decreament,0.6,100.0,standard,21.0,2.0,1.0,
849,10.0,decreament,0.6,100.0,standard,21.0,2.0,1.0,
850,10.0,decreament,0.6,100.0,standard,21.0,2.0,1.0,
851,10.0,decreament,0.6,100.0,standard,21.0,2.0,1.0,
852,10.0,decreament,0.6,100.0,standard,21.0,2.0,1.0,
853,10.0,decreament,0.6,100.0,standard,21.0,2.0,1.0,
854,10.0,decreament,0.6,100.0,standard,21.0,2.0,1.0,
855,10.0,decreament,0.6,100.0,standard,21.0,2.0,1.0,
856,10.0,decreament,0.6,100.0,standard,21.0,2.0,1.0,
857,10.0,decreament,0.6,100.0,standard,21.0,2.0,1.0,
858,10.0,decreament,0.6,100.0,standard,21.0,2.0,1.0,
859,10.0,decreament,0.6,100.0,standard,21.0,2.0,1.0,
860,10.0,decreament,0.6,100.0,standard,21.0,2.0,1.0,
861,10.0,decreament,0.6,100.0,standard,21.0,2.0,1.0,
862,10.0,decreament,0.48,80.0,oddball,24.0,2.0,0.0,
863,10.0,decreament,0.6,100.0,standard,21.0,2.0,1.0,
864,10.0,decreament,0.6,100.0,standard,21.0,2.0,1.0,
865,10.0,decreament,0.6,100.0,standard,21.0,2.0,1.0,
866,10.0,decreament,0.6,100.0,standard,21.0,2.0,1.0,
867,10.0,decreament,0.6,100.0,standard,21.0,2.0,1.0,
868,10.0,decreament,0.36,60.0,oddball,23.0,2.0,1.0,0.6138826003298163
869,10.0,decreament,0.6,100.0,standard,21.0,2.0,1.0,
870,10.0,increament,0.6,100.0,standard,25.0,2.0,1.0,
871,10.0,increament,0.6,100.0,standard,25.0,2.0,1.0,
872,10.0,increament,0.6,100.0,standard,25.0,2.0,1.0,
873,10.0,increament,0.6,100.0,standard,25.0,2.0,1.0,
874,10.0,increament,0.6,100.0,standard,25.0,2.0,1.0,
875,10.0,increament,0.6,100.0,standard,25.0,2.0,1.0,
876,10.0,increament,0.6,100.0,standard,25.0,2.0,1.0,
877,10.0,increament,0.6,100.0,standard,25.0,2.0,1.0,
878,10.0,increament,0.6,100.0,standard,25.0,2.0,1.0,
879,10.0,increament,0.6,100.0,standard,25.0,2.0,0.0,1.155144799966365
880,10.0,increament,0.6,100.0,standard,25.0,2.0,1.0,
881,10.0,increament,0.6,100.0,standard,25.0,2.0,1.0,
882,10.0,increament,0.6,100.0,standard,25.0,2.0,1.0,
883,10.0,increament,0.6,100.0,standard,25.0,2.0,1.0,
884,10.0,increament,0.96,160.0,oddball,28.0,2.0,0.0,
885,10.0,increament,0.6,100.0,standard,25.0,2.0,1.0,
886,10.0,increament,0.6,100.0,standard,25.0,2.0,1.0,
887,10.0,increament,0.6,100.0,standard,25.0,2.0,1.0,
888,10.0,increament,0.84,140.0,oddball,27.0,2.0,0.0,
889,10.0,increament,0.6,100.0,standard,25.0,2.0,1.0,
890,10.0,increament,0.6,100.0,standard,25.0,2.0,1.0,
891,10.0,increament,0.6,100.0,standard,25.0,2.0,1.0,
892,10.0,increament,0.72,120.0,oddball,26.0,2.0,0.0,
893,10.0,increament,0.6,100.0,standard,25.0,2.0,1.0,
894,10.0,increament,0.6,100.0,standard,25.0,2.0,1.0,
895,10.0,increament,0.6,100.0,standard,25.0,2.0,1.0,
896,10.0,increament,0.6,100.0,standard,25.0,2.0,1.0,
897,10.0,increament,0.6,100.0,standard,25.0,2.0,1.0,
898,10.0,increament,0.6,100.0,standard,25.0,2.0,1.0,
899,10.0,increament,0.6,100.0,standard,25.0,2.0,0.0,0.6641204999759793
900,20.0,decreament,0.6,100.0,standard,41.0,3.0,1.0,
901,20.0,decreament,0.6,100.0,standard,41.0,3.0,1.0,
902,20.0,decreament,0.6,100.0,standard,41.0,3.0,1.0,
903,20.0,decreament,0.6,100.0,standard,41.0,3.0,1.0,
904,20.0,decreament,0.6,100.0,standard,41.0,3.0,1.0,
905,20.0,decreament,0.6,100.0,standard,41.0,3.0,1.0,
906,20.0,decreament,0.24,40.0,oddball,42.0,3.0,1.0,0.5155960996635258
907,20.0,decreament,0.6,100.0,standard,41.0,3.0,1.0,
908,20.0,decreament,0.6,100.0,standard,41.0,3.0,1.0,
909,20.0,decreament,0.6,100.0,standard,41.0,3.0,1.0,
910,20.0,decreament,0.36,60.0,oddball,43.0,3.0,1.0,0.7322643999941647
911,20.0,decreament,0.6,100.0,standard,41.0,3.0,1.0,
912,20.0,decreament,0.6,100.0,standard,41.0,3.0,1.0,
913,20.0,decreament,0.6,100.0,standard,41.0,3.0,1.0,
914,20.0,decreament,0.6,100.0,standard,41.0,3.0,1.0,
915,20.0,decreament,0.6,100.0,standard,41.0,3.0,1.0,
916,20.0,decreament,0.6,100.0,standard,41.0,3.0,1.0,
917,20.0,decreament,0.6,100.0,standard,41.0,3.0,1.0,
918,20.0,decreament,0.6,100.0,standard,41.0,3.0,1.0,
919,20.0,decreament,0.6,100.0,standard,41.0,3.0,1.0,
920,20.0,decreament,0.6,100.0,standard,41.0,3.0,1.0,
921,20.0,decreament,0.6,100.0,standard,41.0,3.0,1.0,
922,20.0,decreament,0.6,100.0,standard,41.0,3.0,1.0,
923,20.0,decreament,0.6,100.0,standard,41.0,3.0,1.0,
924,20.0,decreament,0.6,100.0,standard,41.0,3.0,1.0,
925,20.0,decreament,0.6,100.0,standard,41.0,3.0,1.0,
926,20.0,decreament,0.48,80.0,oddball,44.0,3.0,0.0,
927,20.0,decreament,0.6,100.0,standard,41.0,3.0,1.0,
928,20.0,decreament,0.6,100.0,standard,41.0,3.0,1.0,
929,20.0,decreament,0.6,100.0,standard,41.0,3.0,1.0,
930,20.0,increament,0.6,100.0,standard,45.0,3.0,1.0,
931,20.0,increament,0.6,100.0,standard,45.0,3.0,1.0,
932,20.0,increament,0.6,100.0,standard,45.0,3.0,1.0,
933,20.0,increament,0.6,100.0,standard,45.0,3.0,1.0,
934,20.0,increament,0.6,100.0,standard,45.0,3.0,1.0,
935,20.0,increament,0.6,100.0,standard,45.0,3.0,1.0,
936,20.0,increament,0.6,100.0,standard,45.0,3.0,1.0,
937,20.0,increament,0.6,100.0,standard,45.0,3.0,1.0,
938,20.0,increament,0.6,100.0,standard,45.0,3.0,1.0,
939,20.0,increament,0.6,100.0,standard,45.0,3.0,1.0,
940,20.0,increament,0.6,100.0,standard,45.0,3.0,1.0,
941,20.0,increament,0.6,100.0,standard,45.0,3.0,0.0,0.4785100999288261
942,20.0,increament,0.6,100.0,standard,45.0,3.0,1.0,
943,20.0,increament,0.6,100.0,standard,45.0,3.0,1.0,
944,20.0,increament,0.6,100.0,standard,45.0,3.0,1.0,
945,20.0,increament,0.72,120.0,oddball,46.0,3.0,0.0,
946,20.0,increament,0.6,100.0,standard,45.0,3.0,1.0,
947,20.0,increament,0.6,100.0,standard,45.0,3.0,1.0,
948,20.0,increament,0.6,100.0,standard,45.0,3.0,1.0,
949,20.0,increament,0.84,140.0,oddball,47.0,3.0,1.0,0.4575276998803019
950,20.0,increament,0.6,100.0,standard,45.0,3.0,1.0,
951,20.0,increament,0.6,100.0,standard,45.0,3.0,1.0,
952,20.0,increament,0.6,100.0,standard,45.0,3.0,1.0,
953,20.0,increament,0.6,100.0,standard,45.0,3.0,1.0,
954,20.0,increament,0.6,100.0,standard,45.0,3.0,1.0,
955,20.0,increament,0.6,100.0,standard,45.0,3.0,1.0,
956,20.0,increament,0.6,100.0,standard,45.0,3.0,1.0,
957,20.0,increament,0.6,100.0,standard,45.0,3.0,1.0,
958,20.0,increament,0.6,100.0,standard,45.0,3.0,1.0,
959,20.0,increament,0.96,160.0,oddball,48.0,3.0,1.0,0.2189609999768436
960,20.0,decreament,0.6,100.0,standard,41.0,3.0,1.0,
961,20.0,decreament,0.6,100.0,standard,41.0,3.0,1.0,
962,20.0,decreament,0.6,100.0,standard,41.0,3.0,1.0,
963,20.0,decreament,0.6,100.0,standard,41.0,3.0,1.0,
964,20.0,decreament,0.6,100.0,standard,41.0,3.0,1.0,
965,20.0,decreament,0.6,100.0,standard,41.0,3.0,1.0,
966,20.0,decreament,0.6,100.0,standard,41.0,3.0,1.0,
967,20.0,decreament,0.24,40.0,oddball,42.0,3.0,1.0,0.5323997000232339
968,20.0,decreament,0.6,100.0,standard,41.0,3.0,1.0,
969,20.0,decreament,0.6,100.0,standard,41.0,3.0,1.0,
970,20.0,decreament,0.6,100.0,standard,41.0,3.0,1.0,
971,20.0,decreament,0.6,100.0,standard,41.0,3.0,1.0,
972,20.0,decreament,0.6,100.0,standard,41.0,3.0,1.0,
973,20.0,decreament,0.6,100.0,standard,41.0,3.0,1.0,
974,20.0,decreament,0.6,100.0,standard,41.0,3.0,1.0,
975,20.0,decreament,0.36,60.0,oddball,43.0,3.0,0.0,
976,20.0,decreament,0.6,100.0,standard,41.0,3.0,1.0,
977,20.0,decreament,0.6,100.0,standard,41.0,3.0,1.0,
978,20.0,decreament,0.6,100.0,standard,41.0,3.0,1.0,
979,20.0,decreament,0.6,100.0,standard,41.0,3.0,1.0,
980,20.0,decreament,0.6,100.0,standard,41.0,3.0,1.0,
981,20.0,decreament,0.6,100.0,standard,41.0,3.0,1.0,
982,20.0,decreament,0.6,100.0,standard,41.0,3.0,1.0,
983,20.0,decreament,0.6,100.0,standard,41.0,3.0,1.0,
984,20.0,decreament,0.6,100.0,standard,41.0,3.0,1.0,
985,20.0,decreament,0.6,100.0,standard,41.0,3.0,1.0,
986,20.0,decreament,0.6,100.0,standard,41.0,3.0,1.0,
987,20.0,decreament,0.6,100.0,standard,41.0,3.0,1.0,
988,20.0,decreament,0.6,100.0,standard,41.0,3.0,1.0,
989,20.0,decreament,0.48,80.0,oddball,44.0,3.0,0.0,
990,20.0,increament,0.6,100.0,standard,45.0,3.0,1.0,
991,20.0,increament,0.6,100.0,standard,45.0,3.0,1.0,
992,20.0,increament,0.6,100.0,standard,45.0,3.0,1.0,
993,20.0,increament,0.6,100.0,standard,45.0,3.0,1.0,
994,20.0,increament,0.6,100.0,standard,45.0,3.0,1.0,
995,20.0,increament,0.6,100.0,standard,45.0,3.0,1.0,
996,20.0,increament,0.6,100.0,standard,45.0,3.0,1.0,
997,20.0,increament,0.84,140.0,oddball,47.0,3.0,1.0,0.3057972001843154
998,20.0,increament,0.6,100.0,standard,45.0,3.0,1.0,
999,20.0,increament,0.6,100.0,standard,45.0,3.0,1.0,
1000,20.0,increament,0.6,100.0,standard,45.0,3.0,1.0,
1001,20.0,increament,0.6,100.0,standard,45.0,3.0,1.0,
1002,20.0,increament,0.6,100.0,standard,45.0,3.0,1.0,
1003,20.0,increament,0.72,120.0,oddball,46.0,3.0,0.0,
1004,20.0,increament,0.6,100.0,standard,45.0,3.0,1.0,
1005,20.0,increament,0.6,100.0,standard,45.0,3.0,1.0,
1006,20.0,increament,0.6,100.0,standard,45.0,3.0,1.0,
1007,20.0,increament,0.6,100.0,standard,45.0,3.0,1.0,
1008,20.0,increament,0.6,100.0,standard,45.0,3.0,1.0,
1009,20.0,increament,0.6,100.0,standard,45.0,3.0,1.0,
1010,20.0,increament,0.6,100.0,standard,45.0,3.0,1.0,
1011,20.0,increament,0.6,100.0,standard,45.0,3.0,0.0,0.9489739998243748
1012,20.0,increament,0.6,100.0,standard,45.0,3.0,1.0,
1013,20.0,increament,0.6,100.0,standard,45.0,3.0,1.0,
1014,20.0,increament,0.96,160.0,oddball,48.0,3.0,1.0,0.5319122998043895
1015,20.0,increament,0.6,100.0,standard,45.0,3.0,1.0,
1016,20.0,increament,0.6,100.0,standard,45.0,3.0,1.0,
1017,20.0,increament,0.6,100.0,standard,45.0,3.0,1.0,
1018,20.0,increament,0.6,100.0,standard,45.0,3.0,1.0,
1019,20.0,increament,0.6,100.0,standard,45.0,3.0,1.0,
1020,20.0,decreament,0.6,100.0,standard,41.0,3.0,1.0,
1021,20.0,decreament,0.6,100.0,standard,41.0,3.0,1.0,
1022,20.0,decreament,0.6,100.0,standard,41.0,3.0,1.0,
1023,20.0,decreament,0.6,100.0,standard,41.0,3.0,1.0,
1024,20.0,decreament,0.6,100.0,standard,41.0,3.0,1.0,
1025,20.0,decreament,0.6,100.0,standard,41.0,3.0,1.0,
1026,20.0,decreament,0.6,100.0,standard,41.0,3.0,1.0,
1027,20.0,decreament,0.48,80.0,oddball,44.0,3.0,0.0,
1028,20.0,decreament,0.6,100.0,standard,41.0,3.0,1.0,
1029,20.0,decreament,0.6,100.0,standard,41.0,3.0,1.0,
1030,20.0,decreament,0.6,100.0,standard,41.0,3.0,1.0,
1031,20.0,decreament,0.6,100.0,standard,41.0,3.0,1.0,
1032,20.0,decreament,0.6,100.0,standard,41.0,3.0,1.0,
1033,20.0,decreament,0.6,100.0,standard,41.0,3.0,1.0,
1034,20.0,decreament,0.36,60.0,oddball,43.0,3.0,1.0,0.5542546003125608
1035,20.0,decreament,0.6,100.0,standard,41.0,3.0,1.0,
1036,20.0,decreament,0.6,100.0,standard,41.0,3.0,1.0,
1037,20.0,decreament,0.6,100.0,standard,41.0,3.0,1.0,
1038,20.0,decreament,0.6,100.0,standard,41.0,3.0,1.0,
1039,20.0,decreament,0.6,100.0,standard,41.0,3.0,1.0,
1040,20.0,decreament,0.6,100.0,standard,41.0,3.0,1.0,
1041,20.0,decreament,0.6,100.0,standard,41.0,3.0,1.0,
1042,20.0,decreament,0.6,100.0,standard,41.0,3.0,0.0,1.0870503997430203
1043,20.0,decreament,0.6,100.0,standard,41.0,3.0,1.0,
1044,20.0,decreament,0.6,100.0,standard,41.0,3.0,1.0,
1045,20.0,decreament,0.24,40.0,oddball,42.0,3.0,1.0,0.6851793001405895
1046,20.0,decreament,0.6,100.0,standard,41.0,3.0,1.0,
1047,20.0,decreament,0.6,100.0,standard,41.0,3.0,1.0,
1048,20.0,decreament,0.6,100.0,standard,41.0,3.0,1.0,
1049,20.0,decreament,0.6,100.0,standard,41.0,3.0,1.0,
1050,20.0,increament,0.6,100.0,standard,45.0,3.0,1.0,
1051,20.0,increament,0.6,100.0,standard,45.0,3.0,1.0,
1052,20.0,increament,0.6,100.0,standard,45.0,3.0,1.0,
1053,20.0,increament,0.6,100.0,standard,45.0,3.0,1.0,
1054,20.0,increament,0.6,100.0,standard,45.0,3.0,1.0,
1055,20.0,increament,0.6,100.0,standard,45.0,3.0,1.0,
1056,20.0,increament,0.6,100.0,standard,45.0,3.0,1.0,
1057,20.0,increament,0.6,100.0,standard,45.0,3.0,1.0,
1058,20.0,increament,0.96,160.0,oddball,48.0,3.0,1.0,0.4429043000563979
1059,20.0,increament,0.6,100.0,standard,45.0,3.0,1.0,
1060,20.0,increament,0.6,100.0,standard,45.0,3.0,1.0,
1061,20.0,increament,0.6,100.0,standard,45.0,3.0,1.0,
1062,20.0,increament,0.6,100.0,standard,45.0,3.0,1.0,
1063,20.0,increament,0.6,100.0,standard,45.0,3.0,1.0,
1064,20.0,increament,0.6,100.0,standard,45.0,3.0,1.0,
1065,20.0,increament,0.6,100.0,standard,45.0,3.0,1.0,
1066,20.0,increament,0.6,100.0,standard,45.0,3.0,1.0,
1067,20.0,increament,0.6,100.0,standard,45.0,3.0,1.0,
1068,20.0,increament,0.6,100.0,standard,45.0,3.0,1.0,
1069,20.0,increament,0.84,140.0,oddball,47.0,3.0,1.0,1.060609399806708
1070,20.0,increament,0.6,100.0,standard,45.0,3.0,1.0,
1071,20.0,increament,0.6,100.0,standard,45.0,3.0,1.0,
1072,20.0,increament,0.6,100.0,standard,45.0,3.0,1.0,
1073,20.0,increament,0.6,100.0,standard,45.0,3.0,1.0,
1074,20.0,increament,0.6,100.0,standard,45.0,3.0,1.0,
1075,20.0,increament,0.6,100.0,standard,45.0,3.0,1.0,
1076,20.0,increament,0.6,100.0,standard,45.0,3.0,1.0,
1077,20.0,increament,0.6,100.0,standard,45.0,3.0,1.0,
1078,20.0,increament,0.72,120.0,oddball,46.0,3.0,0.0,
1079,20.0,increament,0.6,100.0,standard,45.0,3.0,1.0,
1080,20.0,decreament,0.6,100.0,standard,41.0,3.0,1.0,
1081,20.0,decreament,0.6,100.0,standard,41.0,3.0,1.0,
1082,20.0,decreament,0.6,100.0,standard,41.0,3.0,1.0,
1083,20.0,decreament,0.6,100.0,standard,41.0,3.0,1.0,
1084,20.0,decreament,0.6,100.0,standard,41.0,3.0,1.0,
1085,20.0,decreament,0.48,80.0,oddball,44.0,3.0,0.0,
1086,20.0,decreament,0.6,100.0,standard,41.0,3.0,1.0,
1087,20.0,decreament,0.6,100.0,standard,41.0,3.0,1.0,
1088,20.0,decreament,0.6,100.0,standard,41.0,3.0,1.0,
1089,20.0,decreament,0.6,100.0,standard,41.0,3.0,1.0,
1090,20.0,decreament,0.24,40.0,oddball,42.0,3.0,1.0,0.5508568999357522
1091,20.0,decreament,0.6,100.0,standard,41.0,3.0,1.0,
1092,20.0,decreament,0.6,100.0,standard,41.0,3.0,1.0,
1093,20.0,decreament,0.6,100.0,standard,41.0,3.0,1.0,
1094,20.0,decreament,0.6,100.0,standard,41.0,3.0,1.0,
1095,20.0,decreament,0.6,100.0,standard,41.0,3.0,1.0,
1096,20.0,decreament,0.6,100.0,standard,41.0,3.0,1.0,
1097,20.0,decreament,0.6,100.0,standard,41.0,3.0,1.0,
1098,20.0,decreament,0.36,60.0,oddball,43.0,3.0,1.0,0.7575177000835538
1099,20.0,decreament,0.6,100.0,standard,41.0,3.0,1.0,
1100,20.0,decreament,0.6,100.0,standard,41.0,3.0,1.0,
1101,20.0,decreament,0.6,100.0,standard,41.0,3.0,1.0,
1102,20.0,decreament,0.6,100.0,standard,41.0,3.0,1.0,
1103,20.0,decreament,0.6,100.0,standard,41.0,3.0,1.0,
1104,20.0,decreament,0.6,100.0,standard,41.0,3.0,1.0,
1105,20.0,decreament,0.6,100.0,standard,41.0,3.0,1.0,
1106,20.0,decreament,0.6,100.0,standard,41.0,3.0,1.0,
1107,20.0,decreament,0.6,100.0,standard,41.0,3.0,1.0,
1108,20.0,decreament,0.6,100.0,standard,41.0,3.0,1.0,
1109,20.0,decreament,0.6,100.0,standard,41.0,3.0,1.0,
1110,20.0,increament,0.6,100.0,standard,45.0,3.0,1.0,
1111,20.0,increament,0.6,100.0,standard,45.0,3.0,1.0,
1112,20.0,increament,0.6,100.0,standard,45.0,3.0,1.0,
1113,20.0,increament,0.6,100.0,standard,45.0,3.0,1.0,
1114,20.0,increament,0.6,100.0,standard,45.0,3.0,1.0,
1115,20.0,increament,0.6,100.0,standard,45.0,3.0,1.0,
1116,20.0,increament,0.72,120.0,oddball,46.0,3.0,0.0,
1117,20.0,increament,0.6,100.0,standard,45.0,3.0,1.0,
1118,20.0,increament,0.6,100.0,standard,45.0,3.0,1.0,
1119,20.0,increament,0.6,100.0,standard,45.0,3.0,1.0,
1120,20.0,increament,0.6,100.0,standard,45.0,3.0,1.0,
1121,20.0,increament,0.6,100.0,standard,45.0,3.0,1.0,
1122,20.0,increament,0.6,100.0,standard,45.0,3.0,1.0,
1123,20.0,increament,0.6,100.0,standard,45.0,3.0,1.0,
1124,20.0,increament,0.6,100.0,standard,45.0,3.0,1.0,
1125,20.0,increament,0.6,100.0,standard,45.0,3.0,1.0,
1126,20.0,increament,0.6,100.0,standard,45.0,3.0,1.0,
1127,20.0,increament,0.6,100.0,standard,45.0,3.0,1.0,
1128,20.0,increament,0.6,100.0,standard,45.0,3.0,1.0,
1129,20.0,increament,0.6,100.0,standard,45.0,3.0,1.0,
1130,20.0,increament,0.6,100.0,standard,45.0,3.0,0.0,1.173708500340581
1131,20.0,increament,0.6,100.0,standard,45.0,3.0,1.0,
1132,20.0,increament,0.96,160.0,oddball,48.0,3.0,1.0,0.2797061000019312
1133,20.0,increament,0.6,100.0,standard,45.0,3.0,1.0,
1134,20.0,increament,0.6,100.0,standard,45.0,3.0,1.0,
1135,20.0,increament,0.6,100.0,standard,45.0,3.0,1.0,
1136,20.0,increament,0.6,100.0,standard,45.0,3.0,1.0,
1137,20.0,increament,0.84,140.0,oddball,47.0,3.0,0.0,
1138,20.0,increament,0.6,100.0,standard,45.0,3.0,1.0,
1139,20.0,increament,0.6,100.0,standard,45.0,3.0,1.0,
1140,20.0,decreament,0.6,100.0,standard,41.0,3.0,1.0,
1141,20.0,decreament,0.6,100.0,standard,41.0,3.0,1.0,
1142,20.0,decreament,0.6,100.0,standard,41.0,3.0,1.0,
1143,20.0,decreament,0.6,100.0,standard,41.0,3.0,1.0,
1144,20.0,decreament,0.6,100.0,standard,41.0,3.0,1.0,
1145,20.0,decreament,0.6,100.0,standard,41.0,3.0,1.0,
1146,20.0,decreament,0.6,100.0,standard,41.0,3.0,1.0,
1147,20.0,decreament,0.36,60.0,oddball,43.0,3.0,1.0,0.551653599832207
1148,20.0,decreament,0.6,100.0,standard,41.0,3.0,1.0,
1149,20.0,decreament,0.6,100.0,standard,41.0,3.0,1.0,
1150,20.0,decreament,0.6,100.0,standard,41.0,3.0,1.0,
1151,20.0,decreament,0.48,80.0,oddball,44.0,3.0,0.0,
1152,20.0,decreament,0.6,100.0,standard,41.0,3.0,1.0,
1153,20.0,decreament,0.6,100.0,standard,41.0,3.0,1.0,
1154,20.0,decreament,0.6,100.0,standard,41.0,3.0,1.0,
1155,20.0,decreament,0.6,100.0,standard,41.0,3.0,1.0,
1156,20.0,decreament,0.24,40.0,oddball,42.0,3.0,1.0,0.7161229001358151
1157,20.0,decreament,0.6,100.0,standard,41.0,3.0,1.0,
1158,20.0,decreament,0.6,100.0,standard,41.0,3.0,1.0,
1159,20.0,decreament,0.6,100.0,standard,41.0,3.0,1.0,
1160,20.0,decreament,0.6,100.0,standard,41.0,3.0,1.0,
1161,20.0,decreament,0.6,100.0,standard,41.0,3.0,1.0,
1162,20.0,decreament,0.6,100.0,standard,41.0,3.0,1.0,
1163,20.0,decreament,0.6,100.0,standard,41.0,3.0,1.0,
1164,20.0,decreament,0.6,100.0,standard,41.0,3.0,1.0,
1165,20.0,decreament,0.6,100.0,standard,41.0,3.0,1.0,
1166,20.0,decreament,0.6,100.0,standard,41.0,3.0,1.0,
1167,20.0,decreament,0.6,100.0,standard,41.0,3.0,1.0,
1168,20.0,decreament,0.6,100.0,standard,41.0,3.0,1.0,
1169,20.0,decreament,0.6,100.0,standard,41.0,3.0,1.0,
1170,20.0,increament,0.6,100.0,standard,45.0,3.0,1.0,
1171,20.0,increament,0.6,100.0,standard,45.0,3.0,1.0,
1172,20.0,increament,0.6,100.0,standard,45.0,3.0,1.0,
1173,20.0,increament,0.6,100.0,standard,45.0,3.0,1.0,
1174,20.0,increament,0.6,100.0,standard,45.0,3.0,1.0,
1175,20.0,increament,0.6,100.0,standard,45.0,3.0,1.0,
1176,20.0,increament,0.6,100.0,standard,45.0,3.0,1.0,
1177,20.0,increament,0.6,100.0,standard,45.0,3.0,1.0,
1178,20.0,increament,0.6,100.0,standard,45.0,3.0,1.0,
1179,20.0,increament,0.6,100.0,standard,45.0,3.0,0.0,0.7486882000230253
1180,20.0,increament,0.6,100.0,standard,45.0,3.0,1.0,
1181,20.0,increament,0.96,160.0,oddball,48.0,3.0,1.0,0.3188406000845134
1182,20.0,increament,0.6,100.0,standard,45.0,3.0,1.0,
1183,20.0,increament,0.6,100.0,standard,45.0,3.0,1.0,
1184,20.0,increament,0.6,100.0,standard,45.0,3.0,1.0,
1185,20.0,increament,0.6,100.0,standard,45.0,3.0,1.0,
1186,20.0,increament,0.6,100.0,standard,45.0,3.0,1.0,
1187,20.0,increament,0.6,100.0,standard,45.0,3.0,1.0,
1188,20.0,increament,0.6,100.0,standard,45.0,3.0,1.0,
1189,20.0,increament,0.72,120.0,oddball,46.0,3.0,1.0,0.5252745999023318
1190,20.0,increament,0.6,100.0,standard,45.0,3.0,1.0,
1191,20.0,increament,0.6,100.0,standard,45.0,3.0,1.0,
1192,20.0,increament,0.6,100.0,standard,45.0,3.0,1.0,
1193,20.0,increament,0.6,100.0,standard,45.0,3.0,1.0,
1194,20.0,increament,0.6,100.0,standard,45.0,3.0,1.0,
1195,20.0,increament,0.84,140.0,oddball,47.0,3.0,0.0,
1196,20.0,increament,0.6,100.0,standard,45.0,3.0,1.0,
1197,20.0,increament,0.6,100.0,standard,45.0,3.0,1.0,
1198,20.0,increament,0.6,100.0,standard,45.0,3.0,1.0,
1199,20.0,increament,0.6,100.0,standard,45.0,3.0,1.0,
