,grating_freq,direction,duration,scaling,stim_type,trigger,blocks.thisN,resp.corr,resp.rt
0,10.0,decreament,0.6,100.0,standard,21.0,0.0,1.0,
1,10.0,decreament,0.6,100.0,standard,21.0,0.0,1.0,
2,10.0,decreament,0.6,100.0,standard,21.0,0.0,1.0,
3,10.0,decreament,0.6,100.0,standard,21.0,0.0,1.0,
4,10.0,decreament,0.6,100.0,standard,21.0,0.0,1.0,
5,10.0,decreament,0.6,100.0,standard,21.0,0.0,1.0,
6,10.0,decreament,0.24,40.0,oddball,22.0,0.0,1.0,0.6261561999999685
7,10.0,decreament,0.6,100.0,standard,21.0,0.0,1.0,
8,10.0,decreament,0.6,100.0,standard,21.0,0.0,1.0,
9,10.0,decreament,0.6,100.0,standard,21.0,0.0,1.0,
10,10.0,decreament,0.6,100.0,standard,21.0,0.0,1.0,
11,10.0,decreament,0.6,100.0,standard,21.0,0.0,1.0,
12,10.0,decreament,0.6,100.0,standard,21.0,0.0,1.0,
13,10.0,decreament,0.6,100.0,standard,21.0,0.0,1.0,
14,10.0,decreament,0.6,100.0,standard,21.0,0.0,1.0,
15,10.0,decreament,0.6,100.0,standard,21.0,0.0,1.0,
16,10.0,decreament,0.6,100.0,standard,21.0,0.0,1.0,
17,10.0,decreament,0.6,100.0,standard,21.0,0.0,1.0,
18,10.0,decreament,0.6,100.0,standard,21.0,0.0,1.0,
19,10.0,decreament,0.36,60.0,oddball,23.0,0.0,1.0,0.5125365999992937
20,10.0,decreament,0.6,100.0,standard,21.0,0.0,1.0,
21,10.0,decreament,0.6,100.0,standard,21.0,0.0,1.0,
22,10.0,decreament,0.6,100.0,standard,21.0,0.0,1.0,
23,10.0,decreament,0.6,100.0,standard,21.0,0.0,1.0,
24,10.0,decreament,0.6,100.0,standard,21.0,0.0,0.0,0.820066999993287
25,10.0,decreament,0.6,100.0,standard,21.0,0.0,1.0,
26,10.0,decreament,0.48,80.0,oddball,24.0,0.0,0.0,
27,10.0,decreament,0.6,100.0,standard,21.0,0.0,1.0,
28,10.0,decreament,0.6,100.0,standard,21.0,0.0,1.0,
29,10.0,decreament,0.6,100.0,standard,21.0,0.0,1.0,
30,10.0,increament,0.6,100.0,standard,25.0,0.0,1.0,
31,10.0,increament,0.6,100.0,standard,25.0,0.0,1.0,
32,10.0,increament,0.6,100.0,standard,25.0,0.0,1.0,
33,10.0,increament,0.6,100.0,standard,25.0,0.0,1.0,
34,10.0,increament,0.6,100.0,standard,25.0,0.0,1.0,
35,10.0,increament,0.6,100.0,standard,25.0,0.0,1.0,
36,10.0,increament,0.6,100.0,standard,25.0,0.0,1.0,
37,10.0,increament,0.6,100.0,standard,25.0,0.0,1.0,
38,10.0,increament,0.72,120.0,oddball,26.0,0.0,0.0,
39,10.0,increament,0.6,100.0,standard,25.0,0.0,1.0,
40,10.0,increament,0.6,100.0,standard,25.0,0.0,1.0,
41,10.0,increament,0.6,100.0,standard,25.0,0.0,1.0,
42,10.0,increament,0.6,100.0,standard,25.0,0.0,1.0,
43,10.0,increament,0.6,100.0,standard,25.0,0.0,1.0,
44,10.0,increament,0.6,100.0,standard,25.0,0.0,1.0,
45,10.0,increament,0.96,160.0,oddball,28.0,0.0,1.0,0.2824803999974392
46,10.0,increament,0.6,100.0,standard,25.0,0.0,1.0,
47,10.0,increament,0.6,100.0,standard,25.0,0.0,1.0,
48,10.0,increament,0.6,100.0,standard,25.0,0.0,1.0,
49,10.0,increament,0.6,100.0,standard,25.0,0.0,1.0,
50,10.0,increament,0.6,100.0,standard,25.0,0.0,1.0,
51,10.0,increament,0.6,100.0,standard,25.0,0.0,1.0,
52,10.0,increament,0.6,100.0,standard,25.0,0.0,1.0,
53,10.0,increament,0.6,100.0,standard,25.0,0.0,1.0,
54,10.0,increament,0.6,100.0,standard,25.0,0.0,1.0,
55,10.0,increament,0.6,100.0,standard,25.0,0.0,1.0,
56,10.0,increament,0.84,140.0,oddball,27.0,0.0,0.0,
57,10.0,increament,0.6,100.0,standard,25.0,0.0,1.0,
58,10.0,increament,0.6,100.0,standard,25.0,0.0,1.0,
59,10.0,increament,0.6,100.0,standard,25.0,0.0,1.0,
60,10.0,decreament,0.6,100.0,standard,21.0,0.0,1.0,
61,10.0,decreament,0.6,100.0,standard,21.0,0.0,1.0,
62,10.0,decreament,0.6,100.0,standard,21.0,0.0,1.0,
63,10.0,decreament,0.6,100.0,standard,21.0,0.0,1.0,
64,10.0,decreament,0.6,100.0,standard,21.0,0.0,1.0,
65,10.0,decreament,0.6,100.0,standard,21.0,0.0,1.0,
66,10.0,decreament,0.6,100.0,standard,21.0,0.0,1.0,
67,10.0,decreament,0.6,100.0,standard,21.0,0.0,1.0,
68,10.0,decreament,0.36,60.0,oddball,23.0,0.0,1.0,0.4602719000104116
69,10.0,decreament,0.6,100.0,standard,21.0,0.0,1.0,
70,10.0,decreament,0.6,100.0,standard,21.0,0.0,1.0,
71,10.0,decreament,0.6,100.0,standard,21.0,0.0,1.0,
72,10.0,decreament,0.6,100.0,standard,21.0,0.0,1.0,
73,10.0,decreament,0.6,100.0,standard,21.0,0.0,1.0,
74,10.0,decreament,0.48,80.0,oddball,24.0,0.0,1.0,1.04939299999387
75,10.0,decreament,0.6,100.0,standard,21.0,0.0,1.0,
76,10.0,decreament,0.6,100.0,standard,21.0,0.0,0.0,0.8266317999950843
77,10.0,decreament,0.6,100.0,standard,21.0,0.0,0.0,0.9002425000071526
78,10.0,decreament,0.24,40.0,oddball,22.0,0.0,1.0,0.6460324999934528
79,10.0,decreament,0.6,100.0,standard,21.0,0.0,1.0,
80,10.0,decreament,0.6,100.0,standard,21.0,0.0,1.0,
81,10.0,decreament,0.6,100.0,standard,21.0,0.0,1.0,
82,10.0,decreament,0.6,100.0,standard,21.0,0.0,0.0,0.7823918999929447
83,10.0,decreament,0.6,100.0,standard,21.0,0.0,1.0,
84,10.0,decreament,0.6,100.0,standard,21.0,0.0,1.0,
85,10.0,decreament,0.6,100.0,standard,21.0,0.0,1.0,
86,10.0,decreament,0.6,100.0,standard,21.0,0.0,1.0,
87,10.0,decreament,0.6,100.0,standard,21.0,0.0,0.0,0.7188565999967977
88,10.0,decreament,0.6,100.0,standard,21.0,0.0,1.0,
89,10.0,decreament,0.6,100.0,standard,21.0,0.0,1.0,
90,10.0,increament,0.6,100.0,standard,25.0,0.0,1.0,
91,10.0,increament,0.6,100.0,standard,25.0,0.0,1.0,
92,10.0,increament,0.6,100.0,standard,25.0,0.0,1.0,
93,10.0,increament,0.6,100.0,standard,25.0,0.0,1.0,
94,10.0,increament,0.6,100.0,standard,25.0,0.0,1.0,
95,10.0,increament,0.6,100.0,standard,25.0,0.0,1.0,
96,10.0,increament,0.6,100.0,standard,25.0,0.0,1.0,
97,10.0,increament,0.6,100.0,standard,25.0,0.0,1.0,
98,10.0,increament,0.6,100.0,standard,25.0,0.0,1.0,
99,10.0,increament,0.6,100.0,standard,25.0,0.0,1.0,
100,10.0,increament,0.6,100.0,standard,25.0,0.0,1.0,
101,10.0,increament,0.96,160.0,oddball,28.0,0.0,1.0,0.4672927000065101
102,10.0,increament,0.6,100.0,standard,25.0,0.0,1.0,
103,10.0,increament,0.6,100.0,standard,25.0,0.0,1.0,
104,10.0,increament,0.6,100.0,standard,25.0,0.0,1.0,
105,10.0,increament,0.6,100.0,standard,25.0,0.0,1.0,
106,10.0,increament,0.6,100.0,standard,25.0,0.0,1.0,
107,10.0,increament,0.6,100.0,standard,25.0,0.0,1.0,
108,10.0,increament,0.6,100.0,standard,25.0,0.0,1.0,
109,10.0,increament,0.6,100.0,standard,25.0,0.0,1.0,
110,10.0,increament,0.6,100.0,standard,25.0,0.0,1.0,
111,10.0,increament,0.6,100.0,standard,25.0,0.0,1.0,
112,10.0,increament,0.84,140.0,oddball,27.0,0.0,0.0,
113,10.0,increament,0.6,100.0,standard,25.0,0.0,1.0,
114,10.0,increament,0.6,100.0,standard,25.0,0.0,1.0,
115,10.0,increament,0.6,100.0,standard,25.0,0.0,1.0,
116,10.0,increament,0.6,100.0,standard,25.0,0.0,1.0,
117,10.0,increament,0.6,100.0,standard,25.0,0.0,1.0,
118,10.0,increament,0.6,100.0,standard,25.0,0.0,1.0,
119,10.0,increament,0.72,120.0,oddball,26.0,0.0,0.0,
120,10.0,decreament,0.6,100.0,standard,21.0,0.0,1.0,
121,10.0,decreament,0.6,100.0,standard,21.0,0.0,1.0,
122,10.0,decreament,0.6,100.0,standard,21.0,0.0,1.0,
123,10.0,decreament,0.6,100.0,standard,21.0,0.0,1.0,
124,10.0,decreament,0.6,100.0,standard,21.0,0.0,1.0,
125,10.0,decreament,0.6,100.0,standard,21.0,0.0,1.0,
126,10.0,decreament,0.36,60.0,oddball,23.0,0.0,1.0,0.6959979999955976
127,10.0,decreament,0.6,100.0,standard,21.0,0.0,1.0,
128,10.0,decreament,0.6,100.0,standard,21.0,0.0,1.0,
129,10.0,decreament,0.6,100.0,standard,21.0,0.0,1.0,
130,10.0,decreament,0.6,100.0,standard,21.0,0.0,1.0,
131,10.0,decreament,0.6,100.0,standard,21.0,0.0,1.0,
132,10.0,decreament,0.6,100.0,standard,21.0,0.0,1.0,
133,10.0,decreament,0.6,100.0,standard,21.0,0.0,1.0,
134,10.0,decreament,0.6,100.0,standard,21.0,0.0,1.0,
135,10.0,decreament,0.24,40.0,oddball,22.0,0.0,1.0,0.528036699994118
136,10.0,decreament,0.6,100.0,standard,21.0,0.0,1.0,
137,10.0,decreament,0.6,100.0,standard,21.0,0.0,1.0,
138,10.0,decreament,0.6,100.0,standard,21.0,0.0,1.0,
139,10.0,decreament,0.6,100.0,standard,21.0,0.0,1.0,
140,10.0,decreament,0.6,100.0,standard,21.0,0.0,1.0,
141,10.0,decreament,0.6,100.0,standard,21.0,0.0,1.0,
142,10.0,decreament,0.6,100.0,standard,21.0,0.0,1.0,
143,10.0,decreament,0.6,100.0,standard,21.0,0.0,1.0,
144,10.0,decreament,0.48,80.0,oddball,24.0,0.0,0.0,
145,10.0,decreament,0.6,100.0,standard,21.0,0.0,1.0,
146,10.0,decreament,0.6,100.0,standard,21.0,0.0,1.0,
147,10.0,decreament,0.6,100.0,standard,21.0,0.0,0.0,0.6458563999913167
148,10.0,decreament,0.6,100.0,standard,21.0,0.0,1.0,
149,10.0,decreament,0.6,100.0,standard,21.0,0.0,1.0,
150,10.0,increament,0.6,100.0,standard,25.0,0.0,1.0,
151,10.0,increament,0.6,100.0,standard,25.0,0.0,1.0,
152,10.0,increament,0.6,100.0,standard,25.0,0.0,1.0,
153,10.0,increament,0.6,100.0,standard,25.0,0.0,1.0,
154,10.0,increament,0.6,100.0,standard,25.0,0.0,1.0,
155,10.0,increament,0.6,100.0,standard,25.0,0.0,1.0,
156,10.0,increament,0.6,100.0,standard,25.0,0.0,1.0,
157,10.0,increament,0.6,100.0,standard,25.0,0.0,1.0,
158,10.0,increament,0.6,100.0,standard,25.0,0.0,1.0,
159,10.0,increament,0.6,100.0,standard,25.0,0.0,1.0,
160,10.0,increament,0.6,100.0,standard,25.0,0.0,1.0,
161,10.0,increament,0.6,100.0,standard,25.0,0.0,1.0,
162,10.0,increament,0.6,100.0,standard,25.0,0.0,1.0,
163,10.0,increament,0.96,160.0,oddball,28.0,0.0,1.0,0.4687327999999979
164,10.0,increament,0.6,100.0,standard,25.0,0.0,1.0,
165,10.0,increament,0.6,100.0,standard,25.0,0.0,1.0,
166,10.0,increament,0.6,100.0,standard,25.0,0.0,1.0,
167,10.0,increament,0.6,100.0,standard,25.0,0.0,1.0,
168,10.0,increament,0.6,100.0,standard,25.0,0.0,1.0,
169,10.0,increament,0.6,100.0,standard,25.0,0.0,1.0,
170,10.0,increament,0.72,120.0,oddball,26.0,0.0,0.0,
171,10.0,increament,0.6,100.0,standard,25.0,0.0,1.0,
172,10.0,increament,0.6,100.0,standard,25.0,0.0,1.0,
173,10.0,increament,0.6,100.0,standard,25.0,0.0,1.0,
174,10.0,increament,0.6,100.0,standard,25.0,0.0,1.0,
175,10.0,increament,0.84,140.0,oddball,27.0,0.0,1.0,0.4995787999941967
176,10.0,increament,0.6,100.0,standard,25.0,0.0,1.0,
177,10.0,increament,0.6,100.0,standard,25.0,0.0,1.0,
178,10.0,increament,0.6,100.0,standard,25.0,0.0,1.0,
179,10.0,increament,0.6,100.0,standard,25.0,0.0,1.0,
180,10.0,decreament,0.6,100.0,standard,21.0,0.0,1.0,
181,10.0,decreament,0.6,100.0,standard,21.0,0.0,1.0,
182,10.0,decreament,0.6,100.0,standard,21.0,0.0,1.0,
183,10.0,decreament,0.6,100.0,standard,21.0,0.0,1.0,
184,10.0,decreament,0.6,100.0,standard,21.0,0.0,1.0,
185,10.0,decreament,0.6,100.0,standard,21.0,0.0,1.0,
186,10.0,decreament,0.6,100.0,standard,21.0,0.0,1.0,
187,10.0,decreament,0.6,100.0,standard,21.0,0.0,1.0,
188,10.0,decreament,0.6,100.0,standard,21.0,0.0,1.0,
189,10.0,decreament,0.6,100.0,standard,21.0,0.0,1.0,
190,10.0,decreament,0.6,100.0,standard,21.0,0.0,1.0,
191,10.0,decreament,0.48,80.0,oddball,24.0,0.0,1.0,0.6217699999979232
192,10.0,decreament,0.6,100.0,standard,21.0,0.0,1.0,
193,10.0,decreament,0.6,100.0,standard,21.0,0.0,1.0,
194,10.0,decreament,0.6,100.0,standard,21.0,0.0,1.0,
195,10.0,decreament,0.36,60.0,oddball,23.0,0.0,1.0,0.5150677000056021
196,10.0,decreament,0.6,100.0,standard,21.0,0.0,1.0,
197,10.0,decreament,0.6,100.0,standard,21.0,0.0,1.0,
198,10.0,decreament,0.6,100.0,standard,21.0,0.0,1.0,
199,10.0,decreament,0.6,100.0,standard,21.0,0.0,1.0,
200,10.0,decreament,0.6,100.0,standard,21.0,0.0,1.0,
201,10.0,decreament,0.6,100.0,standard,21.0,0.0,1.0,
202,10.0,decreament,0.6,100.0,standard,21.0,0.0,1.0,
203,10.0,decreament,0.6,100.0,standard,21.0,0.0,1.0,
204,10.0,decreament,0.6,100.0,standard,21.0,0.0,1.0,
205,10.0,decreament,0.6,100.0,standard,21.0,0.0,1.0,
206,10.0,decreament,0.6,100.0,standard,21.0,0.0,1.0,
207,10.0,decreament,0.6,100.0,standard,21.0,0.0,1.0,
208,10.0,decreament,0.6,100.0,standard,21.0,0.0,1.0,
209,10.0,decreament,0.24,40.0,oddball,22.0,0.0,1.0,0.6552790999994613
210,10.0,increament,0.6,100.0,standard,25.0,0.0,1.0,
211,10.0,increament,0.6,100.0,standard,25.0,0.0,1.0,
212,10.0,increament,0.6,100.0,standard,25.0,0.0,1.0,
213,10.0,increament,0.6,100.0,standard,25.0,0.0,1.0,
214,10.0,increament,0.6,100.0,standard,25.0,0.0,1.0,
215,10.0,increament,0.6,100.0,standard,25.0,0.0,1.0,
216,10.0,increament,0.6,100.0,standard,25.0,0.0,1.0,
217,10.0,increament,0.6,100.0,standard,25.0,0.0,1.0,
218,10.0,increament,0.6,100.0,standard,25.0,0.0,1.0,
219,10.0,increament,0.6,100.0,standard,25.0,0.0,1.0,
220,10.0,increament,0.6,100.0,standard,25.0,0.0,1.0,
221,10.0,increament,0.6,100.0,standard,25.0,0.0,1.0,
222,10.0,increament,0.72,120.0,oddball,26.0,0.0,0.0,
223,10.0,increament,0.6,100.0,standard,25.0,0.0,1.0,
224,10.0,increament,0.6,100.0,standard,25.0,0.0,1.0,
225,10.0,increament,0.6,100.0,standard,25.0,0.0,1.0,
226,10.0,increament,0.6,100.0,standard,25.0,0.0,1.0,
227,10.0,increament,0.6,100.0,standard,25.0,0.0,1.0,
228,10.0,increament,0.6,100.0,standard,25.0,0.0,1.0,
229,10.0,increament,0.6,100.0,standard,25.0,0.0,1.0,
230,10.0,increament,0.6,100.0,standard,25.0,0.0,1.0,
231,10.0,increament,0.6,100.0,standard,25.0,0.0,1.0,
232,10.0,increament,0.6,100.0,standard,25.0,0.0,1.0,
233,10.0,increament,0.6,100.0,standard,25.0,0.0,1.0,
234,10.0,increament,0.6,100.0,standard,25.0,0.0,1.0,
235,10.0,increament,0.84,140.0,oddball,27.0,0.0,1.0,0.6650778000039281
236,10.0,increament,0.6,100.0,standard,25.0,0.0,1.0,
237,10.0,increament,0.6,100.0,standard,25.0,0.0,1.0,
238,10.0,increament,0.6,100.0,standard,25.0,0.0,1.0,
239,10.0,increament,0.96,160.0,oddball,28.0,0.0,1.0,0.3738527999958023
240,10.0,decreament,0.6,100.0,standard,21.0,0.0,1.0,
241,10.0,decreament,0.6,100.0,standard,21.0,0.0,1.0,
242,10.0,decreament,0.6,100.0,standard,21.0,0.0,1.0,
243,10.0,decreament,0.6,100.0,standard,21.0,0.0,1.0,
244,10.0,decreament,0.6,100.0,standard,21.0,0.0,1.0,
245,10.0,decreament,0.6,100.0,standard,21.0,0.0,1.0,
246,10.0,decreament,0.48,80.0,oddball,24.0,0.0,0.0,
247,10.0,decreament,0.6,100.0,standard,21.0,0.0,1.0,
248,10.0,decreament,0.6,100.0,standard,21.0,0.0,1.0,
249,10.0,decreament,0.6,100.0,standard,21.0,0.0,1.0,
250,10.0,decreament,0.6,100.0,standard,21.0,0.0,1.0,
251,10.0,decreament,0.6,100.0,standard,21.0,0.0,1.0,
252,10.0,decreament,0.6,100.0,standard,21.0,0.0,1.0,
253,10.0,decreament,0.36,60.0,oddball,23.0,0.0,1.0,0.7006194999994477
254,10.0,decreament,0.6,100.0,standard,21.0,0.0,1.0,
255,10.0,decreament,0.6,100.0,standard,21.0,0.0,1.0,
256,10.0,decreament,0.6,100.0,standard,21.0,0.0,1.0,
257,10.0,decreament,0.6,100.0,standard,21.0,0.0,1.0,
258,10.0,decreament,0.6,100.0,standard,21.0,0.0,1.0,
259,10.0,decreament,0.6,100.0,standard,21.0,0.0,1.0,
260,10.0,decreament,0.6,100.0,standard,21.0,0.0,1.0,
261,10.0,decreament,0.6,100.0,standard,21.0,0.0,1.0,
262,10.0,decreament,0.6,100.0,standard,21.0,0.0,1.0,
263,10.0,decreament,0.6,100.0,standard,21.0,0.0,1.0,
264,10.0,decreament,0.6,100.0,standard,21.0,0.0,1.0,
265,10.0,decreament,0.6,100.0,standard,21.0,0.0,1.0,
266,10.0,decreament,0.24,40.0,oddball,22.0,0.0,1.0,0.8065981999970973
267,10.0,decreament,0.6,100.0,standard,21.0,0.0,1.0,
268,10.0,decreament,0.6,100.0,standard,21.0,0.0,1.0,
269,10.0,decreament,0.6,100.0,standard,21.0,0.0,1.0,
270,10.0,increament,0.6,100.0,standard,25.0,0.0,1.0,
271,10.0,increament,0.6,100.0,standard,25.0,0.0,1.0,
272,10.0,increament,0.6,100.0,standard,25.0,0.0,1.0,
273,10.0,increament,0.6,100.0,standard,25.0,0.0,1.0,
274,10.0,increament,0.6,100.0,standard,25.0,0.0,1.0,
275,10.0,increament,0.6,100.0,standard,25.0,0.0,1.0,
276,10.0,increament,0.6,100.0,standard,25.0,0.0,1.0,
277,10.0,increament,0.6,100.0,standard,25.0,0.0,1.0,
278,10.0,increament,0.6,100.0,standard,25.0,0.0,1.0,
279,10.0,increament,0.96,160.0,oddball,28.0,0.0,1.0,0.6400953999982448
280,10.0,increament,0.6,100.0,standard,25.0,0.0,1.0,
281,10.0,increament,0.6,100.0,standard,25.0,0.0,1.0,
282,10.0,increament,0.6,100.0,standard,25.0,0.0,1.0,
283,10.0,increament,0.6,100.0,standard,25.0,0.0,1.0,
284,10.0,increament,0.6,100.0,standard,25.0,0.0,1.0,
285,10.0,increament,0.84,140.0,oddball,27.0,0.0,0.0,
286,10.0,increament,0.6,100.0,standard,25.0,0.0,1.0,
287,10.0,increament,0.6,100.0,standard,25.0,0.0,1.0,
288,10.0,increament,0.6,100.0,standard,25.0,0.0,1.0,
289,10.0,increament,0.6,100.0,standard,25.0,0.0,1.0,
290,10.0,increament,0.6,100.0,standard,25.0,0.0,1.0,
291,10.0,increament,0.6,100.0,standard,25.0,0.0,1.0,
292,10.0,increament,0.72,120.0,oddball,26.0,0.0,0.0,
293,10.0,increament,0.6,100.0,standard,25.0,0.0,1.0,
294,10.0,increament,0.6,100.0,standard,25.0,0.0,1.0,
295,10.0,increament,0.6,100.0,standard,25.0,0.0,1.0,
296,10.0,increament,0.6,100.0,standard,25.0,0.0,1.0,
297,10.0,increament,0.6,100.0,standard,25.0,0.0,1.0,
298,10.0,increament,0.6,100.0,standard,25.0,0.0,1.0,
299,10.0,increament,0.6,100.0,standard,25.0,0.0,1.0,
300,5.0,decreament,0.6,100.0,standard,11.0,1.0,1.0,
301,5.0,decreament,0.6,100.0,standard,11.0,1.0,1.0,
302,5.0,decreament,0.6,100.0,standard,11.0,1.0,1.0,
303,5.0,decreament,0.6,100.0,standard,11.0,1.0,1.0,
304,5.0,decreament,0.6,100.0,standard,11.0,1.0,1.0,
305,5.0,decreament,0.6,100.0,standard,11.0,1.0,1.0,
306,5.0,decreament,0.6,100.0,standard,11.0,1.0,1.0,
307,5.0,decreament,0.6,100.0,standard,11.0,1.0,1.0,
308,5.0,decreament,0.6,100.0,standard,11.0,1.0,1.0,
309,5.0,decreament,0.6,100.0,standard,11.0,1.0,1.0,
310,5.0,decreament,0.6,100.0,standard,11.0,1.0,1.0,
311,5.0,decreament,0.6,100.0,standard,11.0,1.0,1.0,
312,5.0,decreament,0.6,100.0,standard,11.0,1.0,1.0,
313,5.0,decreament,0.6,100.0,standard,11.0,1.0,1.0,
314,5.0,decreament,0.36,60.0,oddball,13.0,1.0,0.0,
315,5.0,decreament,0.6,100.0,standard,11.0,1.0,1.0,
316,5.0,decreament,0.6,100.0,standard,11.0,1.0,1.0,
317,5.0,decreament,0.6,100.0,standard,11.0,1.0,1.0,
318,5.0,decreament,0.6,100.0,standard,11.0,1.0,1.0,
319,5.0,decreament,0.6,100.0,standard,11.0,1.0,1.0,
320,5.0,decreament,0.6,100.0,standard,11.0,1.0,1.0,
321,5.0,decreament,0.6,100.0,standard,11.0,1.0,1.0,
322,5.0,decreament,0.48,80.0,oddball,14.0,1.0,0.0,
323,5.0,decreament,0.6,100.0,standard,11.0,1.0,1.0,
324,5.0,decreament,0.6,100.0,standard,11.0,1.0,1.0,
325,5.0,decreament,0.6,100.0,standard,11.0,1.0,1.0,
326,5.0,decreament,0.6,100.0,standard,11.0,1.0,1.0,
327,5.0,decreament,0.6,100.0,standard,11.0,1.0,1.0,
328,5.0,decreament,0.6,100.0,standard,11.0,1.0,1.0,
329,5.0,decreament,0.24,40.0,oddball,12.0,1.0,1.0,0.4876352999999653
330,5.0,increament,0.6,100.0,standard,15.0,1.0,1.0,
331,5.0,increament,0.6,100.0,standard,15.0,1.0,1.0,
332,5.0,increament,0.6,100.0,standard,15.0,1.0,1.0,
333,5.0,increament,0.6,100.0,standard,15.0,1.0,1.0,
334,5.0,increament,0.6,100.0,standard,15.0,1.0,1.0,
335,5.0,increament,0.6,100.0,standard,15.0,1.0,1.0,
336,5.0,increament,0.6,100.0,standard,15.0,1.0,1.0,
337,5.0,increament,0.6,100.0,standard,15.0,1.0,1.0,
338,5.0,increament,0.6,100.0,standard,15.0,1.0,1.0,
339,5.0,increament,0.6,100.0,standard,15.0,1.0,1.0,
340,5.0,increament,0.96,160.0,oddball,18.0,1.0,0.0,
341,5.0,increament,0.6,100.0,standard,15.0,1.0,1.0,
342,5.0,increament,0.6,100.0,standard,15.0,1.0,1.0,
343,5.0,increament,0.6,100.0,standard,15.0,1.0,1.0,
344,5.0,increament,0.72,120.0,oddball,16.0,1.0,0.0,
345,5.0,increament,0.6,100.0,standard,15.0,1.0,1.0,
346,5.0,increament,0.6,100.0,standard,15.0,1.0,1.0,
347,5.0,increament,0.6,100.0,standard,15.0,1.0,1.0,
348,5.0,increament,0.6,100.0,standard,15.0,1.0,1.0,
349,5.0,increament,0.6,100.0,standard,15.0,1.0,1.0,
350,5.0,increament,0.6,100.0,standard,15.0,1.0,1.0,
351,5.0,increament,0.6,100.0,standard,15.0,1.0,1.0,
352,5.0,increament,0.6,100.0,standard,15.0,1.0,1.0,
353,5.0,increament,0.6,100.0,standard,15.0,1.0,1.0,
354,5.0,increament,0.6,100.0,standard,15.0,1.0,1.0,
355,5.0,increament,0.84,140.0,oddball,17.0,1.0,1.0,1.0244481999980053
356,5.0,increament,0.6,100.0,standard,15.0,1.0,1.0,
357,5.0,increament,0.6,100.0,standard,15.0,1.0,1.0,
358,5.0,increament,0.6,100.0,standard,15.0,1.0,1.0,
359,5.0,increament,0.6,100.0,standard,15.0,1.0,1.0,
360,5.0,decreament,0.6,100.0,standard,11.0,1.0,1.0,
361,5.0,decreament,0.6,100.0,standard,11.0,1.0,1.0,
362,5.0,decreament,0.6,100.0,standard,11.0,1.0,1.0,
363,5.0,decreament,0.6,100.0,standard,11.0,1.0,1.0,
364,5.0,decreament,0.6,100.0,standard,11.0,1.0,1.0,
365,5.0,decreament,0.36,60.0,oddball,13.0,1.0,1.0,0.6006100999948103
366,5.0,decreament,0.6,100.0,standard,11.0,1.0,1.0,
367,5.0,decreament,0.6,100.0,standard,11.0,1.0,1.0,
368,5.0,decreament,0.6,100.0,standard,11.0,1.0,1.0,
369,5.0,decreament,0.6,100.0,standard,11.0,1.0,1.0,
370,5.0,decreament,0.6,100.0,standard,11.0,1.0,1.0,
371,5.0,decreament,0.6,100.0,standard,11.0,1.0,1.0,
372,5.0,decreament,0.6,100.0,standard,11.0,1.0,1.0,
373,5.0,decreament,0.6,100.0,standard,11.0,1.0,1.0,
374,5.0,decreament,0.6,100.0,standard,11.0,1.0,1.0,
375,5.0,decreament,0.24,40.0,oddball,12.0,1.0,1.0,0.4917587999952957
376,5.0,decreament,0.6,100.0,standard,11.0,1.0,1.0,
377,5.0,decreament,0.6,100.0,standard,11.0,1.0,1.0,
378,5.0,decreament,0.6,100.0,standard,11.0,1.0,1.0,
379,5.0,decreament,0.6,100.0,standard,11.0,1.0,1.0,
380,5.0,decreament,0.6,100.0,standard,11.0,1.0,1.0,
381,5.0,decreament,0.6,100.0,standard,11.0,1.0,1.0,
382,5.0,decreament,0.6,100.0,standard,11.0,1.0,1.0,
383,5.0,decreament,0.6,100.0,standard,11.0,1.0,1.0,
384,5.0,decreament,0.6,100.0,standard,11.0,1.0,1.0,
385,5.0,decreament,0.48,80.0,oddball,14.0,1.0,1.0,0.5931278000061866
386,5.0,decreament,0.6,100.0,standard,11.0,1.0,1.0,
387,5.0,decreament,0.6,100.0,standard,11.0,1.0,1.0,
388,5.0,decreament,0.6,100.0,standard,11.0,1.0,1.0,
389,5.0,decreament,0.6,100.0,standard,11.0,1.0,1.0,
390,5.0,increament,0.6,100.0,standard,15.0,1.0,1.0,
391,5.0,increament,0.6,100.0,standard,15.0,1.0,1.0,
392,5.0,increament,0.6,100.0,standard,15.0,1.0,1.0,
393,5.0,increament,0.6,100.0,standard,15.0,1.0,1.0,
394,5.0,increament,0.6,100.0,standard,15.0,1.0,1.0,
395,5.0,increament,0.84,140.0,oddball,17.0,1.0,1.0,0.4050622999930056
396,5.0,increament,0.6,100.0,standard,15.0,1.0,1.0,
397,5.0,increament,0.6,100.0,standard,15.0,1.0,1.0,
398,5.0,increament,0.6,100.0,standard,15.0,1.0,1.0,
399,5.0,increament,0.6,100.0,standard,15.0,1.0,1.0,
400,5.0,increament,0.6,100.0,standard,15.0,1.0,1.0,
401,5.0,increament,0.6,100.0,standard,15.0,1.0,1.0,
402,5.0,increament,0.6,100.0,standard,15.0,1.0,1.0,
403,5.0,increament,0.6,100.0,standard,15.0,1.0,1.0,
404,5.0,increament,0.6,100.0,standard,15.0,1.0,1.0,
405,5.0,increament,0.6,100.0,standard,15.0,1.0,1.0,
406,5.0,increament,0.6,100.0,standard,15.0,1.0,1.0,
407,5.0,increament,0.6,100.0,standard,15.0,1.0,1.0,
408,5.0,increament,0.6,100.0,standard,15.0,1.0,1.0,
409,5.0,increament,0.6,100.0,standard,15.0,1.0,1.0,
410,5.0,increament,0.6,100.0,standard,15.0,1.0,1.0,
411,5.0,increament,0.6,100.0,standard,15.0,1.0,1.0,
412,5.0,increament,0.72,120.0,oddball,16.0,1.0,0.0,
413,5.0,increament,0.6,100.0,standard,15.0,1.0,1.0,
414,5.0,increament,0.6,100.0,standard,15.0,1.0,1.0,
415,5.0,increament,0.6,100.0,standard,15.0,1.0,1.0,
416,5.0,increament,0.96,160.0,oddball,18.0,1.0,1.0,0.2173830000101588
417,5.0,increament,0.6,100.0,standard,15.0,1.0,1.0,
418,5.0,increament,0.6,100.0,standard,15.0,1.0,1.0,
419,5.0,increament,0.6,100.0,standard,15.0,1.0,1.0,
420,5.0,decreament,0.6,100.0,standard,11.0,1.0,1.0,
421,5.0,decreament,0.6,100.0,standard,11.0,1.0,1.0,
422,5.0,decreament,0.6,100.0,standard,11.0,1.0,1.0,
423,5.0,decreament,0.6,100.0,standard,11.0,1.0,1.0,
424,5.0,decreament,0.6,100.0,standard,11.0,1.0,1.0,
425,5.0,decreament,0.6,100.0,standard,11.0,1.0,1.0,
426,5.0,decreament,0.24,40.0,oddball,12.0,1.0,1.0,0.5519089000008535
427,5.0,decreament,0.6,100.0,standard,11.0,1.0,1.0,
428,5.0,decreament,0.6,100.0,standard,11.0,1.0,1.0,
429,5.0,decreament,0.6,100.0,standard,11.0,1.0,1.0,
430,5.0,decreament,0.6,100.0,standard,11.0,1.0,1.0,
431,5.0,decreament,0.6,100.0,standard,11.0,1.0,1.0,
432,5.0,decreament,0.6,100.0,standard,11.0,1.0,1.0,
433,5.0,decreament,0.6,100.0,standard,11.0,1.0,1.0,
434,5.0,decreament,0.6,100.0,standard,11.0,1.0,1.0,
435,5.0,decreament,0.6,100.0,standard,11.0,1.0,1.0,
436,5.0,decreament,0.6,100.0,standard,11.0,1.0,1.0,
437,5.0,decreament,0.6,100.0,standard,11.0,1.0,1.0,
438,5.0,decreament,0.6,100.0,standard,11.0,1.0,1.0,
439,5.0,decreament,0.6,100.0,standard,11.0,1.0,1.0,
440,5.0,decreament,0.6,100.0,standard,11.0,1.0,1.0,
441,5.0,decreament,0.48,80.0,oddball,14.0,1.0,0.0,
442,5.0,decreament,0.6,100.0,standard,11.0,1.0,1.0,
443,5.0,decreament,0.6,100.0,standard,11.0,1.0,1.0,
444,5.0,decreament,0.6,100.0,standard,11.0,1.0,1.0,
445,5.0,decreament,0.36,60.0,oddball,13.0,1.0,0.0,
446,5.0,decreament,0.6,100.0,standard,11.0,1.0,1.0,
447,5.0,decreament,0.6,100.0,standard,11.0,1.0,1.0,
448,5.0,decreament,0.6,100.0,standard,11.0,1.0,1.0,
449,5.0,decreament,0.6,100.0,standard,11.0,1.0,1.0,
450,5.0,increament,0.6,100.0,standard,15.0,1.0,1.0,
451,5.0,increament,0.6,100.0,standard,15.0,1.0,1.0,
452,5.0,increament,0.6,100.0,standard,15.0,1.0,1.0,
453,5.0,increament,0.6,100.0,standard,15.0,1.0,1.0,
454,5.0,increament,0.6,100.0,standard,15.0,1.0,1.0,
455,5.0,increament,0.6,100.0,standard,15.0,1.0,1.0,
456,5.0,increament,0.6,100.0,standard,15.0,1.0,1.0,
457,5.0,increament,0.6,100.0,standard,15.0,1.0,1.0,
458,5.0,increament,0.6,100.0,standard,15.0,1.0,1.0,
459,5.0,increament,0.6,100.0,standard,15.0,1.0,1.0,
460,5.0,increament,0.6,100.0,standard,15.0,1.0,1.0,
461,5.0,increament,0.6,100.0,standard,15.0,1.0,1.0,
462,5.0,increament,0.84,140.0,oddball,17.0,1.0,0.0,
463,5.0,increament,0.6,100.0,standard,15.0,1.0,1.0,
464,5.0,increament,0.6,100.0,standard,15.0,1.0,1.0,
465,5.0,increament,0.6,100.0,standard,15.0,1.0,1.0,
466,5.0,increament,0.6,100.0,standard,15.0,1.0,1.0,
467,5.0,increament,0.6,100.0,standard,15.0,1.0,1.0,
468,5.0,increament,0.6,100.0,standard,15.0,1.0,1.0,
469,5.0,increament,0.6,100.0,standard,15.0,1.0,1.0,
470,5.0,increament,0.6,100.0,standard,15.0,1.0,1.0,
471,5.0,increament,0.96,160.0,oddball,18.0,1.0,0.0,
472,5.0,increament,0.6,100.0,standard,15.0,1.0,1.0,
473,5.0,increament,0.6,100.0,standard,15.0,1.0,1.0,
474,5.0,increament,0.6,100.0,standard,15.0,1.0,1.0,
475,5.0,increament,0.6,100.0,standard,15.0,1.0,1.0,
476,5.0,increament,0.6,100.0,standard,15.0,1.0,1.0,
477,5.0,increament,0.72,120.0,oddball,16.0,1.0,0.0,
478,5.0,increament,0.6,100.0,standard,15.0,1.0,1.0,
479,5.0,increament,0.6,100.0,standard,15.0,1.0,1.0,
480,5.0,decreament,0.6,100.0,standard,11.0,1.0,1.0,
481,5.0,decreament,0.6,100.0,standard,11.0,1.0,1.0,
482,5.0,decreament,0.6,100.0,standard,11.0,1.0,1.0,
483,5.0,decreament,0.6,100.0,standard,11.0,1.0,1.0,
484,5.0,decreament,0.6,100.0,standard,11.0,1.0,1.0,
485,5.0,decreament,0.36,60.0,oddball,13.0,1.0,1.0,0.876091300000553
486,5.0,decreament,0.6,100.0,standard,11.0,1.0,1.0,
487,5.0,decreament,0.6,100.0,standard,11.0,1.0,1.0,
488,5.0,decreament,0.6,100.0,standard,11.0,1.0,1.0,
489,5.0,decreament,0.24,40.0,oddball,12.0,1.0,1.0,0.5722033000056399
490,5.0,decreament,0.6,100.0,standard,11.0,1.0,1.0,
491,5.0,decreament,0.6,100.0,standard,11.0,1.0,1.0,
492,5.0,decreament,0.6,100.0,standard,11.0,1.0,1.0,
493,5.0,decreament,0.6,100.0,standard,11.0,1.0,1.0,
494,5.0,decreament,0.48,80.0,oddball,14.0,1.0,0.0,
495,5.0,decreament,0.6,100.0,standard,11.0,1.0,1.0,
496,5.0,decreament,0.6,100.0,standard,11.0,1.0,1.0,
497,5.0,decreament,0.6,100.0,standard,11.0,1.0,0.0,0.7643065999873215
498,5.0,decreament,0.6,100.0,standard,11.0,1.0,1.0,
499,5.0,decreament,0.6,100.0,standard,11.0,1.0,1.0,
500,5.0,decreament,0.6,100.0,standard,11.0,1.0,1.0,
501,5.0,decreament,0.6,100.0,standard,11.0,1.0,1.0,
502,5.0,decreament,0.6,100.0,standard,11.0,1.0,1.0,
503,5.0,decreament,0.6,100.0,standard,11.0,1.0,1.0,
504,5.0,decreament,0.6,100.0,standard,11.0,1.0,1.0,
505,5.0,decreament,0.6,100.0,standard,11.0,1.0,1.0,
506,5.0,decreament,0.6,100.0,standard,11.0,1.0,1.0,
507,5.0,decreament,0.6,100.0,standard,11.0,1.0,1.0,
508,5.0,decreament,0.6,100.0,standard,11.0,1.0,1.0,
509,5.0,decreament,0.6,100.0,standard,11.0,1.0,1.0,
510,5.0,increament,0.6,100.0,standard,15.0,1.0,1.0,
511,5.0,increament,0.6,100.0,standard,15.0,1.0,1.0,
512,5.0,increament,0.6,100.0,standard,15.0,1.0,1.0,
513,5.0,increament,0.6,100.0,standard,15.0,1.0,1.0,
514,5.0,increament,0.6,100.0,standard,15.0,1.0,1.0,
515,5.0,increament,0.6,100.0,standard,15.0,1.0,1.0,
516,5.0,increament,0.6,100.0,standard,15.0,1.0,0.0,0.7923680999956559
517,5.0,increament,0.84,140.0,oddball,17.0,1.0,1.0,0.4166472999932011
518,5.0,increament,0.6,100.0,standard,15.0,1.0,1.0,
519,5.0,increament,0.6,100.0,standard,15.0,1.0,1.0,
520,5.0,increament,0.6,100.0,standard,15.0,1.0,1.0,
521,5.0,increament,0.6,100.0,standard,15.0,1.0,1.0,
522,5.0,increament,0.72,120.0,oddball,16.0,1.0,0.0,
523,5.0,increament,0.6,100.0,standard,15.0,1.0,1.0,
524,5.0,increament,0.6,100.0,standard,15.0,1.0,1.0,
525,5.0,increament,0.6,100.0,standard,15.0,1.0,1.0,
526,5.0,increament,0.6,100.0,standard,15.0,1.0,1.0,
527,5.0,increament,0.6,100.0,standard,15.0,1.0,1.0,
528,5.0,increament,0.6,100.0,standard,15.0,1.0,1.0,
529,5.0,increament,0.6,100.0,standard,15.0,1.0,1.0,
530,5.0,increament,0.96,160.0,oddball,18.0,1.0,1.0,0.3539807000051951
531,5.0,increament,0.6,100.0,standard,15.0,1.0,1.0,
532,5.0,increament,0.6,100.0,standard,15.0,1.0,1.0,
533,5.0,increament,0.6,100.0,standard,15.0,1.0,1.0,
534,5.0,increament,0.6,100.0,standard,15.0,1.0,1.0,
535,5.0,increament,0.6,100.0,standard,15.0,1.0,1.0,
536,5.0,increament,0.6,100.0,standard,15.0,1.0,1.0,
537,5.0,increament,0.6,100.0,standard,15.0,1.0,1.0,
538,5.0,increament,0.6,100.0,standard,15.0,1.0,1.0,
539,5.0,increament,0.6,100.0,standard,15.0,1.0,1.0,
540,5.0,decreament,0.6,100.0,standard,11.0,1.0,1.0,
541,5.0,decreament,0.6,100.0,standard,11.0,1.0,1.0,
542,5.0,decreament,0.6,100.0,standard,11.0,1.0,1.0,
543,5.0,decreament,0.6,100.0,standard,11.0,1.0,1.0,
544,5.0,decreament,0.6,100.0,standard,11.0,1.0,1.0,
545,5.0,decreament,0.48,80.0,oddball,14.0,1.0,0.0,
546,5.0,decreament,0.6,100.0,standard,11.0,1.0,1.0,
547,5.0,decreament,0.6,100.0,standard,11.0,1.0,1.0,
548,5.0,decreament,0.6,100.0,standard,11.0,1.0,1.0,
549,5.0,decreament,0.6,100.0,standard,11.0,1.0,1.0,
550,5.0,decreament,0.6,100.0,standard,11.0,1.0,1.0,
551,5.0,decreament,0.6,100.0,standard,11.0,1.0,1.0,
552,5.0,decreament,0.6,100.0,standard,11.0,1.0,1.0,
553,5.0,decreament,0.6,100.0,standard,11.0,1.0,1.0,
554,5.0,decreament,0.6,100.0,standard,11.0,1.0,1.0,
555,5.0,decreament,0.6,100.0,standard,11.0,1.0,1.0,
556,5.0,decreament,0.6,100.0,standard,11.0,1.0,1.0,
557,5.0,decreament,0.6,100.0,standard,11.0,1.0,1.0,
558,5.0,decreament,0.36,60.0,oddball,13.0,1.0,1.0,0.4975906000036048
559,5.0,decreament,0.6,100.0,standard,11.0,1.0,1.0,
560,5.0,decreament,0.6,100.0,standard,11.0,1.0,1.0,
561,5.0,decreament,0.6,100.0,standard,11.0,1.0,1.0,
562,5.0,decreament,0.6,100.0,standard,11.0,1.0,1.0,
563,5.0,decreament,0.6,100.0,standard,11.0,1.0,1.0,
564,5.0,decreament,0.6,100.0,standard,11.0,1.0,1.0,
565,5.0,decreament,0.6,100.0,standard,11.0,1.0,1.0,
566,5.0,decreament,0.24,40.0,oddball,12.0,1.0,1.0,0.618952699995134
567,5.0,decreament,0.6,100.0,standard,11.0,1.0,1.0,
568,5.0,decreament,0.6,100.0,standard,11.0,1.0,1.0,
569,5.0,decreament,0.6,100.0,standard,11.0,1.0,1.0,
570,5.0,increament,0.6,100.0,standard,15.0,1.0,1.0,
571,5.0,increament,0.6,100.0,standard,15.0,1.0,1.0,
572,5.0,increament,0.6,100.0,standard,15.0,1.0,1.0,
573,5.0,increament,0.6,100.0,standard,15.0,1.0,1.0,
574,5.0,increament,0.6,100.0,standard,15.0,1.0,1.0,
575,5.0,increament,0.6,100.0,standard,15.0,1.0,1.0,
576,5.0,increament,0.6,100.0,standard,15.0,1.0,1.0,
577,5.0,increament,0.6,100.0,standard,15.0,1.0,1.0,
578,5.0,increament,0.6,100.0,standard,15.0,1.0,1.0,
579,5.0,increament,0.84,140.0,oddball,17.0,1.0,1.0,0.8549786999938078
580,5.0,increament,0.6,100.0,standard,15.0,1.0,1.0,
581,5.0,increament,0.6,100.0,standard,15.0,1.0,1.0,
582,5.0,increament,0.6,100.0,standard,15.0,1.0,1.0,
583,5.0,increament,0.6,100.0,standard,15.0,1.0,1.0,
584,5.0,increament,0.6,100.0,standard,15.0,1.0,1.0,
585,5.0,increament,0.6,100.0,standard,15.0,1.0,1.0,
586,5.0,increament,0.6,100.0,standard,15.0,1.0,1.0,
587,5.0,increament,0.6,100.0,standard,15.0,1.0,1.0,
588,5.0,increament,0.6,100.0,standard,15.0,1.0,1.0,
589,5.0,increament,0.6,100.0,standard,15.0,1.0,1.0,
590,5.0,increament,0.6,100.0,standard,15.0,1.0,1.0,
591,5.0,increament,0.6,100.0,standard,15.0,1.0,1.0,
592,5.0,increament,0.6,100.0,standard,15.0,1.0,1.0,
593,5.0,increament,0.96,160.0,oddball,18.0,1.0,0.0,
594,5.0,increament,0.6,100.0,standard,15.0,1.0,1.0,
595,5.0,increament,0.6,100.0,standard,15.0,1.0,1.0,
596,5.0,increament,0.6,100.0,standard,15.0,1.0,1.0,
597,5.0,increament,0.6,100.0,standard,15.0,1.0,1.0,
598,5.0,increament,0.72,120.0,oddball,16.0,1.0,1.0,0.9485414999944624
599,5.0,increament,0.6,100.0,standard,15.0,1.0,0.0,1.349985699998797
600,20.0,decreament,0.6,100.0,standard,41.0,2.0,1.0,
601,20.0,decreament,0.6,100.0,standard,41.0,2.0,1.0,
602,20.0,decreament,0.6,100.0,standard,41.0,2.0,1.0,
603,20.0,decreament,0.6,100.0,standard,41.0,2.0,1.0,
604,20.0,decreament,0.6,100.0,standard,41.0,2.0,1.0,
605,20.0,decreament,0.6,100.0,standard,41.0,2.0,1.0,
606,20.0,decreament,0.36,60.0,oddball,43.0,2.0,1.0,0.6952703000133624
607,20.0,decreament,0.6,100.0,standard,41.0,2.0,1.0,
608,20.0,decreament,0.6,100.0,standard,41.0,2.0,1.0,
609,20.0,decreament,0.6,100.0,standard,41.0,2.0,1.0,
610,20.0,decreament,0.6,100.0,standard,41.0,2.0,1.0,
611,20.0,decreament,0.24,40.0,oddball,42.0,2.0,1.0,0.4325303000077838
612,20.0,decreament,0.6,100.0,standard,41.0,2.0,1.0,
613,20.0,decreament,0.6,100.0,standard,41.0,2.0,1.0,
614,20.0,decreament,0.6,100.0,standard,41.0,2.0,1.0,
615,20.0,decreament,0.6,100.0,standard,41.0,2.0,1.0,
616,20.0,decreament,0.6,100.0,standard,41.0,2.0,1.0,
617,20.0,decreament,0.6,100.0,standard,41.0,2.0,1.0,
618,20.0,decreament,0.6,100.0,standard,41.0,2.0,1.0,
619,20.0,decreament,0.6,100.0,standard,41.0,2.0,1.0,
620,20.0,decreament,0.6,100.0,standard,41.0,2.0,1.0,
621,20.0,decreament,0.6,100.0,standard,41.0,2.0,1.0,
622,20.0,decreament,0.6,100.0,standard,41.0,2.0,1.0,
623,20.0,decreament,0.6,100.0,standard,41.0,2.0,1.0,
624,20.0,decreament,0.48,80.0,oddball,44.0,2.0,0.0,
625,20.0,decreament,0.6,100.0,standard,41.0,2.0,1.0,
626,20.0,decreament,0.6,100.0,standard,41.0,2.0,1.0,
627,20.0,decreament,0.6,100.0,standard,41.0,2.0,1.0,
628,20.0,decreament,0.6,100.0,standard,41.0,2.0,1.0,
629,20.0,decreament,0.6,100.0,standard,41.0,2.0,1.0,
630,20.0,increament,0.6,100.0,standard,45.0,2.0,1.0,
631,20.0,increament,0.6,100.0,standard,45.0,2.0,1.0,
632,20.0,increament,0.6,100.0,standard,45.0,2.0,1.0,
633,20.0,increament,0.6,100.0,standard,45.0,2.0,1.0,
634,20.0,increament,0.6,100.0,standard,45.0,2.0,1.0,
635,20.0,increament,0.6,100.0,standard,45.0,2.0,1.0,
636,20.0,increament,0.6,100.0,standard,45.0,2.0,1.0,
637,20.0,increament,0.6,100.0,standard,45.0,2.0,1.0,
638,20.0,increament,0.6,100.0,standard,45.0,2.0,1.0,
639,20.0,increament,0.72,120.0,oddball,46.0,2.0,0.0,
640,20.0,increament,0.6,100.0,standard,45.0,2.0,1.0,
641,20.0,increament,0.6,100.0,standard,45.0,2.0,1.0,
642,20.0,increament,0.6,100.0,standard,45.0,2.0,1.0,
643,20.0,increament,0.6,100.0,standard,45.0,2.0,1.0,
644,20.0,increament,0.6,100.0,standard,45.0,2.0,1.0,
645,20.0,increament,0.6,100.0,standard,45.0,2.0,0.0,0.8657909000030486
646,20.0,increament,0.6,100.0,standard,45.0,2.0,0.0,1.5491499000054318
647,20.0,increament,0.6,100.0,standard,45.0,2.0,1.0,
648,20.0,increament,0.6,100.0,standard,45.0,2.0,1.0,
649,20.0,increament,0.6,100.0,standard,45.0,2.0,1.0,
650,20.0,increament,0.6,100.0,standard,45.0,2.0,1.0,
651,20.0,increament,0.6,100.0,standard,45.0,2.0,1.0,
652,20.0,increament,0.6,100.0,standard,45.0,2.0,1.0,
653,20.0,increament,0.6,100.0,standard,45.0,2.0,0.0,1.1911566000053426
654,20.0,increament,0.84,140.0,oddball,47.0,2.0,1.0,0.5936905999988085
655,20.0,increament,0.6,100.0,standard,45.0,2.0,1.0,
656,20.0,increament,0.6,100.0,standard,45.0,2.0,1.0,
657,20.0,increament,0.6,100.0,standard,45.0,2.0,1.0,
658,20.0,increament,0.96,160.0,oddball,48.0,2.0,1.0,0.315595599997323
659,20.0,increament,0.6,100.0,standard,45.0,2.0,1.0,
660,20.0,decreament,0.6,100.0,standard,41.0,2.0,1.0,
661,20.0,decreament,0.6,100.0,standard,41.0,2.0,1.0,
662,20.0,decreament,0.6,100.0,standard,41.0,2.0,1.0,
663,20.0,decreament,0.6,100.0,standard,41.0,2.0,1.0,
664,20.0,decreament,0.6,100.0,standard,41.0,2.0,1.0,
665,20.0,decreament,0.6,100.0,standard,41.0,2.0,1.0,
666,20.0,decreament,0.6,100.0,standard,41.0,2.0,1.0,
667,20.0,decreament,0.6,100.0,standard,41.0,2.0,1.0,
668,20.0,decreament,0.6,100.0,standard,41.0,2.0,1.0,
669,20.0,decreament,0.6,100.0,standard,41.0,2.0,1.0,
670,20.0,decreament,0.6,100.0,standard,41.0,2.0,1.0,
671,20.0,decreament,0.36,60.0,oddball,43.0,2.0,1.0,0.586940199995297
672,20.0,decreament,0.6,100.0,standard,41.0,2.0,1.0,
673,20.0,decreament,0.6,100.0,standard,41.0,2.0,1.0,
674,20.0,decreament,0.6,100.0,standard,41.0,2.0,1.0,
675,20.0,decreament,0.6,100.0,standard,41.0,2.0,1.0,
676,20.0,decreament,0.6,100.0,standard,41.0,2.0,1.0,
677,20.0,decreament,0.24,40.0,oddball,42.0,2.0,1.0,0.6273721000034129
678,20.0,decreament,0.6,100.0,standard,41.0,2.0,1.0,
679,20.0,decreament,0.6,100.0,standard,41.0,2.0,1.0,
680,20.0,decreament,0.6,100.0,standard,41.0,2.0,1.0,
681,20.0,decreament,0.6,100.0,standard,41.0,2.0,1.0,
682,20.0,decreament,0.6,100.0,standard,41.0,2.0,1.0,
683,20.0,decreament,0.6,100.0,standard,41.0,2.0,1.0,
684,20.0,decreament,0.6,100.0,standard,41.0,2.0,1.0,
685,20.0,decreament,0.6,100.0,standard,41.0,2.0,1.0,
686,20.0,decreament,0.6,100.0,standard,41.0,2.0,1.0,
687,20.0,decreament,0.6,100.0,standard,41.0,2.0,1.0,
688,20.0,decreament,0.48,80.0,oddball,44.0,2.0,0.0,
689,20.0,decreament,0.6,100.0,standard,41.0,2.0,1.0,
690,20.0,increament,0.6,100.0,standard,45.0,2.0,1.0,
691,20.0,increament,0.6,100.0,standard,45.0,2.0,1.0,
692,20.0,increament,0.6,100.0,standard,45.0,2.0,1.0,
693,20.0,increament,0.6,100.0,standard,45.0,2.0,1.0,
694,20.0,increament,0.6,100.0,standard,45.0,2.0,1.0,
695,20.0,increament,0.96,160.0,oddball,48.0,2.0,1.0,0.4552358999935677
696,20.0,increament,0.6,100.0,standard,45.0,2.0,1.0,
697,20.0,increament,0.6,100.0,standard,45.0,2.0,1.0,
698,20.0,increament,0.6,100.0,standard,45.0,2.0,1.0,
699,20.0,increament,0.6,100.0,standard,45.0,2.0,1.0,
700,20.0,increament,0.6,100.0,standard,45.0,2.0,1.0,
701,20.0,increament,0.84,140.0,oddball,47.0,2.0,1.0,1.0330650999967474
702,20.0,increament,0.6,100.0,standard,45.0,2.0,1.0,
703,20.0,increament,0.6,100.0,standard,45.0,2.0,1.0,
704,20.0,increament,0.6,100.0,standard,45.0,2.0,1.0,
705,20.0,increament,0.6,100.0,standard,45.0,2.0,1.0,
706,20.0,increament,0.72,120.0,oddball,46.0,2.0,1.0,1.3261128000012832
707,20.0,increament,0.6,100.0,standard,45.0,2.0,1.0,
708,20.0,increament,0.6,100.0,standard,45.0,2.0,1.0,
709,20.0,increament,0.6,100.0,standard,45.0,2.0,1.0,
710,20.0,increament,0.6,100.0,standard,45.0,2.0,1.0,
711,20.0,increament,0.6,100.0,standard,45.0,2.0,1.0,
712,20.0,increament,0.6,100.0,standard,45.0,2.0,1.0,
713,20.0,increament,0.6,100.0,standard,45.0,2.0,1.0,
714,20.0,increament,0.6,100.0,standard,45.0,2.0,1.0,
715,20.0,increament,0.6,100.0,standard,45.0,2.0,1.0,
716,20.0,increament,0.6,100.0,standard,45.0,2.0,1.0,
717,20.0,increament,0.6,100.0,standard,45.0,2.0,1.0,
718,20.0,increament,0.6,100.0,standard,45.0,2.0,1.0,
719,20.0,increament,0.6,100.0,standard,45.0,2.0,1.0,
720,20.0,decreament,0.6,100.0,standard,41.0,2.0,1.0,
721,20.0,decreament,0.6,100.0,standard,41.0,2.0,1.0,
722,20.0,decreament,0.6,100.0,standard,41.0,2.0,1.0,
723,20.0,decreament,0.6,100.0,standard,41.0,2.0,1.0,
724,20.0,decreament,0.6,100.0,standard,41.0,2.0,1.0,
725,20.0,decreament,0.24,40.0,oddball,42.0,2.0,1.0,0.5551768000004813
726,20.0,decreament,0.6,100.0,standard,41.0,2.0,1.0,
727,20.0,decreament,0.6,100.0,standard,41.0,2.0,1.0,
728,20.0,decreament,0.6,100.0,standard,41.0,2.0,1.0,
729,20.0,decreament,0.6,100.0,standard,41.0,2.0,1.0,
730,20.0,decreament,0.6,100.0,standard,41.0,2.0,1.0,
731,20.0,decreament,0.6,100.0,standard,41.0,2.0,1.0,
732,20.0,decreament,0.6,100.0,standard,41.0,2.0,1.0,
733,20.0,decreament,0.6,100.0,standard,41.0,2.0,1.0,
734,20.0,decreament,0.6,100.0,standard,41.0,2.0,1.0,
735,20.0,decreament,0.6,100.0,standard,41.0,2.0,1.0,
736,20.0,decreament,0.6,100.0,standard,41.0,2.0,1.0,
737,20.0,decreament,0.6,100.0,standard,41.0,2.0,1.0,
738,20.0,decreament,0.6,100.0,standard,41.0,2.0,1.0,
739,20.0,decreament,0.6,100.0,standard,41.0,2.0,1.0,
740,20.0,decreament,0.48,80.0,oddball,44.0,2.0,0.0,
741,20.0,decreament,0.6,100.0,standard,41.0,2.0,1.0,
742,20.0,decreament,0.6,100.0,standard,41.0,2.0,1.0,
743,20.0,decreament,0.6,100.0,standard,41.0,2.0,1.0,
744,20.0,decreament,0.6,100.0,standard,41.0,2.0,1.0,
745,20.0,decreament,0.6,100.0,standard,41.0,2.0,1.0,
746,20.0,decreament,0.6,100.0,standard,41.0,2.0,1.0,
747,20.0,decreament,0.6,100.0,standard,41.0,2.0,1.0,
748,20.0,decreament,0.36,60.0,oddball,43.0,2.0,1.0,0.5382853000046453
749,20.0,decreament,0.6,100.0,standard,41.0,2.0,1.0,
750,20.0,increament,0.6,100.0,standard,45.0,2.0,1.0,
751,20.0,increament,0.6,100.0,standard,45.0,2.0,1.0,
752,20.0,increament,0.6,100.0,standard,45.0,2.0,1.0,
753,20.0,increament,0.6,100.0,standard,45.0,2.0,1.0,
754,20.0,increament,0.6,100.0,standard,45.0,2.0,1.0,
755,20.0,increament,0.6,100.0,standard,45.0,2.0,0.0,1.0568838000035612
756,20.0,increament,0.6,100.0,standard,45.0,2.0,1.0,
757,20.0,increament,0.96,160.0,oddball,48.0,2.0,1.0,0.3209655999962706
758,20.0,increament,0.6,100.0,standard,45.0,2.0,1.0,
759,20.0,increament,0.6,100.0,standard,45.0,2.0,1.0,
760,20.0,increament,0.6,100.0,standard,45.0,2.0,1.0,
761,20.0,increament,0.6,100.0,standard,45.0,2.0,1.0,
762,20.0,increament,0.6,100.0,standard,45.0,2.0,1.0,
763,20.0,increament,0.6,100.0,standard,45.0,2.0,1.0,
764,20.0,increament,0.6,100.0,standard,45.0,2.0,1.0,
765,20.0,increament,0.72,120.0,oddball,46.0,2.0,0.0,
766,20.0,increament,0.6,100.0,standard,45.0,2.0,1.0,
767,20.0,increament,0.6,100.0,standard,45.0,2.0,1.0,
768,20.0,increament,0.6,100.0,standard,45.0,2.0,1.0,
769,20.0,increament,0.6,100.0,standard,45.0,2.0,1.0,
770,20.0,increament,0.6,100.0,standard,45.0,2.0,1.0,
771,20.0,increament,0.6,100.0,standard,45.0,2.0,1.0,
772,20.0,increament,0.6,100.0,standard,45.0,2.0,1.0,
773,20.0,increament,0.6,100.0,standard,45.0,2.0,1.0,
774,20.0,increament,0.6,100.0,standard,45.0,2.0,1.0,
775,20.0,increament,0.84,140.0,oddball,47.0,2.0,1.0,0.6737539000023389
776,20.0,increament,0.6,100.0,standard,45.0,2.0,1.0,
777,20.0,increament,0.6,100.0,standard,45.0,2.0,1.0,
778,20.0,increament,0.6,100.0,standard,45.0,2.0,1.0,
779,20.0,increament,0.6,100.0,standard,45.0,2.0,1.0,
780,20.0,decreament,0.6,100.0,standard,41.0,2.0,1.0,
781,20.0,decreament,0.6,100.0,standard,41.0,2.0,1.0,
782,20.0,decreament,0.6,100.0,standard,41.0,2.0,1.0,
783,20.0,decreament,0.6,100.0,standard,41.0,2.0,1.0,
784,20.0,decreament,0.6,100.0,standard,41.0,2.0,1.0,
785,20.0,decreament,0.6,100.0,standard,41.0,2.0,1.0,
786,20.0,decreament,0.6,100.0,standard,41.0,2.0,1.0,
787,20.0,decreament,0.6,100.0,standard,41.0,2.0,1.0,
788,20.0,decreament,0.6,100.0,standard,41.0,2.0,1.0,
789,20.0,decreament,0.6,100.0,standard,41.0,2.0,1.0,
790,20.0,decreament,0.6,100.0,standard,41.0,2.0,1.0,
791,20.0,decreament,0.6,100.0,standard,41.0,2.0,1.0,
792,20.0,decreament,0.6,100.0,standard,41.0,2.0,1.0,
793,20.0,decreament,0.6,100.0,standard,41.0,2.0,0.0,1.057017099999939
794,20.0,decreament,0.48,80.0,oddball,44.0,2.0,0.0,
795,20.0,decreament,0.6,100.0,standard,41.0,2.0,1.0,
796,20.0,decreament,0.6,100.0,standard,41.0,2.0,1.0,
797,20.0,decreament,0.6,100.0,standard,41.0,2.0,1.0,
798,20.0,decreament,0.6,100.0,standard,41.0,2.0,1.0,
799,20.0,decreament,0.24,40.0,oddball,42.0,2.0,1.0,0.6071643000032054
800,20.0,decreament,0.6,100.0,standard,41.0,2.0,1.0,
801,20.0,decreament,0.6,100.0,standard,41.0,2.0,0.0,0.7324563000001945
802,20.0,decreament,0.6,100.0,standard,41.0,2.0,1.0,
803,20.0,decreament,0.6,100.0,standard,41.0,2.0,1.0,
804,20.0,decreament,0.6,100.0,standard,41.0,2.0,1.0,
805,20.0,decreament,0.36,60.0,oddball,43.0,2.0,1.0,0.7184553999977652
806,20.0,decreament,0.6,100.0,standard,41.0,2.0,1.0,
807,20.0,decreament,0.6,100.0,standard,41.0,2.0,1.0,
808,20.0,decreament,0.6,100.0,standard,41.0,2.0,1.0,
809,20.0,decreament,0.6,100.0,standard,41.0,2.0,1.0,
810,20.0,increament,0.6,100.0,standard,45.0,2.0,1.0,
811,20.0,increament,0.6,100.0,standard,45.0,2.0,1.0,
812,20.0,increament,0.6,100.0,standard,45.0,2.0,1.0,
813,20.0,increament,0.6,100.0,standard,45.0,2.0,1.0,
814,20.0,increament,0.6,100.0,standard,45.0,2.0,1.0,
815,20.0,increament,0.6,100.0,standard,45.0,2.0,1.0,
816,20.0,increament,0.6,100.0,standard,45.0,2.0,1.0,
817,20.0,increament,0.6,100.0,standard,45.0,2.0,1.0,
818,20.0,increament,0.6,100.0,standard,45.0,2.0,1.0,
819,20.0,increament,0.6,100.0,standard,45.0,2.0,1.0,
820,20.0,increament,0.72,120.0,oddball,46.0,2.0,1.0,0.4941694000008283
821,20.0,increament,0.6,100.0,standard,45.0,2.0,1.0,
822,20.0,increament,0.6,100.0,standard,45.0,2.0,1.0,
823,20.0,increament,0.6,100.0,standard,45.0,2.0,1.0,
824,20.0,increament,0.6,100.0,standard,45.0,2.0,1.0,
825,20.0,increament,0.6,100.0,standard,45.0,2.0,1.0,
826,20.0,increament,0.84,140.0,oddball,47.0,2.0,1.0,0.5954887999978382
827,20.0,increament,0.6,100.0,standard,45.0,2.0,1.0,
828,20.0,increament,0.6,100.0,standard,45.0,2.0,1.0,
829,20.0,increament,0.6,100.0,standard,45.0,2.0,1.0,
830,20.0,increament,0.6,100.0,standard,45.0,2.0,1.0,
831,20.0,increament,0.6,100.0,standard,45.0,2.0,1.0,
832,20.0,increament,0.6,100.0,standard,45.0,2.0,1.0,
833,20.0,increament,0.6,100.0,standard,45.0,2.0,1.0,
834,20.0,increament,0.6,100.0,standard,45.0,2.0,1.0,
835,20.0,increament,0.96,160.0,oddball,48.0,2.0,1.0,0.5228139999962877
836,20.0,increament,0.6,100.0,standard,45.0,2.0,1.0,
837,20.0,increament,0.6,100.0,standard,45.0,2.0,1.0,
838,20.0,increament,0.6,100.0,standard,45.0,2.0,1.0,
839,20.0,increament,0.6,100.0,standard,45.0,2.0,1.0,
840,20.0,decreament,0.6,100.0,standard,41.0,2.0,1.0,
841,20.0,decreament,0.6,100.0,standard,41.0,2.0,1.0,
842,20.0,decreament,0.6,100.0,standard,41.0,2.0,1.0,
843,20.0,decreament,0.6,100.0,standard,41.0,2.0,1.0,
844,20.0,decreament,0.6,100.0,standard,41.0,2.0,1.0,
845,20.0,decreament,0.6,100.0,standard,41.0,2.0,1.0,
846,20.0,decreament,0.6,100.0,standard,41.0,2.0,1.0,
847,20.0,decreament,0.6,100.0,standard,41.0,2.0,1.0,
848,20.0,decreament,0.6,100.0,standard,41.0,2.0,1.0,
849,20.0,decreament,0.6,100.0,standard,41.0,2.0,1.0,
850,20.0,decreament,0.24,40.0,oddball,42.0,2.0,1.0,0.5486795000033453
851,20.0,decreament,0.6,100.0,standard,41.0,2.0,1.0,
852,20.0,decreament,0.6,100.0,standard,41.0,2.0,1.0,
853,20.0,decreament,0.6,100.0,standard,41.0,2.0,1.0,
854,20.0,decreament,0.6,100.0,standard,41.0,2.0,1.0,
855,20.0,decreament,0.6,100.0,standard,41.0,2.0,1.0,
856,20.0,decreament,0.6,100.0,standard,41.0,2.0,1.0,
857,20.0,decreament,0.6,100.0,standard,41.0,2.0,1.0,
858,20.0,decreament,0.36,60.0,oddball,43.0,2.0,1.0,0.6151576999982353
859,20.0,decreament,0.6,100.0,standard,41.0,2.0,1.0,
860,20.0,decreament,0.6,100.0,standard,41.0,2.0,1.0,
861,20.0,decreament,0.6,100.0,standard,41.0,2.0,1.0,
862,20.0,decreament,0.6,100.0,standard,41.0,2.0,1.0,
863,20.0,decreament,0.6,100.0,standard,41.0,2.0,1.0,
864,20.0,decreament,0.6,100.0,standard,41.0,2.0,1.0,
865,20.0,decreament,0.48,80.0,oddball,44.0,2.0,0.0,
866,20.0,decreament,0.6,100.0,standard,41.0,2.0,1.0,
867,20.0,decreament,0.6,100.0,standard,41.0,2.0,1.0,
868,20.0,decreament,0.6,100.0,standard,41.0,2.0,1.0,
869,20.0,decreament,0.6,100.0,standard,41.0,2.0,1.0,
870,20.0,increament,0.6,100.0,standard,45.0,2.0,1.0,
871,20.0,increament,0.6,100.0,standard,45.0,2.0,1.0,
872,20.0,increament,0.6,100.0,standard,45.0,2.0,1.0,
873,20.0,increament,0.6,100.0,standard,45.0,2.0,1.0,
874,20.0,increament,0.6,100.0,standard,45.0,2.0,1.0,
875,20.0,increament,0.84,140.0,oddball,47.0,2.0,1.0,0.253650499987998
876,20.0,increament,0.6,100.0,standard,45.0,2.0,1.0,
877,20.0,increament,0.6,100.0,standard,45.0,2.0,1.0,
878,20.0,increament,0.6,100.0,standard,45.0,2.0,1.0,
879,20.0,increament,0.6,100.0,standard,45.0,2.0,1.0,
880,20.0,increament,0.6,100.0,standard,45.0,2.0,1.0,
881,20.0,increament,0.6,100.0,standard,45.0,2.0,1.0,
882,20.0,increament,0.6,100.0,standard,45.0,2.0,1.0,
883,20.0,increament,0.6,100.0,standard,45.0,2.0,1.0,
884,20.0,increament,0.6,100.0,standard,45.0,2.0,1.0,
885,20.0,increament,0.6,100.0,standard,45.0,2.0,1.0,
886,20.0,increament,0.6,100.0,standard,45.0,2.0,1.0,
887,20.0,increament,0.6,100.0,standard,45.0,2.0,1.0,
888,20.0,increament,0.6,100.0,standard,45.0,2.0,1.0,
889,20.0,increament,0.6,100.0,standard,45.0,2.0,1.0,
890,20.0,increament,0.6,100.0,standard,45.0,2.0,1.0,
891,20.0,increament,0.6,100.0,standard,45.0,2.0,1.0,
892,20.0,increament,0.6,100.0,standard,45.0,2.0,1.0,
893,20.0,increament,0.72,120.0,oddball,46.0,2.0,0.0,
894,20.0,increament,0.6,100.0,standard,45.0,2.0,1.0,
895,20.0,increament,0.6,100.0,standard,45.0,2.0,1.0,
896,20.0,increament,0.6,100.0,standard,45.0,2.0,1.0,
897,20.0,increament,0.6,100.0,standard,45.0,2.0,1.0,
898,20.0,increament,0.6,100.0,standard,45.0,2.0,1.0,
899,20.0,increament,0.96,160.0,oddball,48.0,2.0,1.0,0.6815777000010712
900,0.0,decreament,0.6,100.0,standard,1.0,3.0,1.0,
901,0.0,decreament,0.6,100.0,standard,1.0,3.0,1.0,
902,0.0,decreament,0.6,100.0,standard,1.0,3.0,1.0,
903,0.0,decreament,0.6,100.0,standard,1.0,3.0,1.0,
904,0.0,decreament,0.6,100.0,standard,1.0,3.0,1.0,
905,0.0,decreament,0.6,100.0,standard,1.0,3.0,1.0,
906,0.0,decreament,0.6,100.0,standard,1.0,3.0,1.0,
907,0.0,decreament,0.6,100.0,standard,1.0,3.0,1.0,
908,0.0,decreament,0.6,100.0,standard,1.0,3.0,1.0,
909,0.0,decreament,0.24,40.0,oddball,2.0,3.0,1.0,0.4971106000011787
910,0.0,decreament,0.6,100.0,standard,1.0,3.0,1.0,
911,0.0,decreament,0.6,100.0,standard,1.0,3.0,1.0,
912,0.0,decreament,0.6,100.0,standard,1.0,3.0,1.0,
913,0.0,decreament,0.6,100.0,standard,1.0,3.0,1.0,
914,0.0,decreament,0.6,100.0,standard,1.0,3.0,1.0,
915,0.0,decreament,0.6,100.0,standard,1.0,3.0,1.0,
916,0.0,decreament,0.6,100.0,standard,1.0,3.0,1.0,
917,0.0,decreament,0.6,100.0,standard,1.0,3.0,1.0,
918,0.0,decreament,0.6,100.0,standard,1.0,3.0,0.0,0.6112732000037795
919,0.0,decreament,0.6,100.0,standard,1.0,3.0,1.0,
920,0.0,decreament,0.6,100.0,standard,1.0,3.0,1.0,
921,0.0,decreament,0.6,100.0,standard,1.0,3.0,1.0,
922,0.0,decreament,0.48,80.0,oddball,4.0,3.0,1.0,0.7695900999970036
923,0.0,decreament,0.6,100.0,standard,1.0,3.0,1.0,
924,0.0,decreament,0.6,100.0,standard,1.0,3.0,1.0,
925,0.0,decreament,0.6,100.0,standard,1.0,3.0,1.0,
926,0.0,decreament,0.6,100.0,standard,1.0,3.0,1.0,
927,0.0,decreament,0.6,100.0,standard,1.0,3.0,1.0,
928,0.0,decreament,0.6,100.0,standard,1.0,3.0,1.0,
929,0.0,decreament,0.36,60.0,oddball,3.0,3.0,0.0,
930,0.0,increament,0.6,100.0,standard,5.0,3.0,1.0,
931,0.0,increament,0.6,100.0,standard,5.0,3.0,1.0,
932,0.0,increament,0.6,100.0,standard,5.0,3.0,1.0,
933,0.0,increament,0.6,100.0,standard,5.0,3.0,1.0,
934,0.0,increament,0.6,100.0,standard,5.0,3.0,1.0,
935,0.0,increament,0.6,100.0,standard,5.0,3.0,1.0,
936,0.0,increament,0.6,100.0,standard,5.0,3.0,1.0,
937,0.0,increament,0.6,100.0,standard,5.0,3.0,1.0,
938,0.0,increament,0.72,120.0,oddball,6.0,3.0,0.0,
939,0.0,increament,0.6,100.0,standard,5.0,3.0,1.0,
940,0.0,increament,0.6,100.0,standard,5.0,3.0,1.0,
941,0.0,increament,0.6,100.0,standard,5.0,3.0,1.0,
942,0.0,increament,0.6,100.0,standard,5.0,3.0,1.0,
943,0.0,increament,0.84,140.0,oddball,7.0,3.0,1.0,1.2287542999983998
944,0.0,increament,0.6,100.0,standard,5.0,3.0,1.0,
945,0.0,increament,0.6,100.0,standard,5.0,3.0,1.0,
946,0.0,increament,0.6,100.0,standard,5.0,3.0,1.0,
947,0.0,increament,0.6,100.0,standard,5.0,3.0,1.0,
948,0.0,increament,0.6,100.0,standard,5.0,3.0,1.0,
949,0.0,increament,0.6,100.0,standard,5.0,3.0,1.0,
950,0.0,increament,0.6,100.0,standard,5.0,3.0,1.0,
951,0.0,increament,0.6,100.0,standard,5.0,3.0,1.0,
952,0.0,increament,0.6,100.0,standard,5.0,3.0,1.0,
953,0.0,increament,0.6,100.0,standard,5.0,3.0,1.0,
954,0.0,increament,0.6,100.0,standard,5.0,3.0,1.0,
955,0.0,increament,0.96,160.0,oddball,8.0,3.0,0.0,
956,0.0,increament,0.6,100.0,standard,5.0,3.0,1.0,
957,0.0,increament,0.6,100.0,standard,5.0,3.0,1.0,
958,0.0,increament,0.6,100.0,standard,5.0,3.0,1.0,
959,0.0,increament,0.6,100.0,standard,5.0,3.0,1.0,
960,0.0,decreament,0.6,100.0,standard,1.0,3.0,1.0,
961,0.0,decreament,0.6,100.0,standard,1.0,3.0,1.0,
962,0.0,decreament,0.6,100.0,standard,1.0,3.0,1.0,
963,0.0,decreament,0.6,100.0,standard,1.0,3.0,1.0,
964,0.0,decreament,0.6,100.0,standard,1.0,3.0,1.0,
965,0.0,decreament,0.6,100.0,standard,1.0,3.0,1.0,
966,0.0,decreament,0.36,60.0,oddball,3.0,3.0,1.0,0.5616243999975268
967,0.0,decreament,0.6,100.0,standard,1.0,3.0,1.0,
968,0.0,decreament,0.6,100.0,standard,1.0,3.0,1.0,
969,0.0,decreament,0.6,100.0,standard,1.0,3.0,1.0,
970,0.0,decreament,0.48,80.0,oddball,4.0,3.0,1.0,1.1846800000057556
971,0.0,decreament,0.6,100.0,standard,1.0,3.0,1.0,
972,0.0,decreament,0.6,100.0,standard,1.0,3.0,1.0,
973,0.0,decreament,0.6,100.0,standard,1.0,3.0,1.0,
974,0.0,decreament,0.6,100.0,standard,1.0,3.0,1.0,
975,0.0,decreament,0.6,100.0,standard,1.0,3.0,1.0,
976,0.0,decreament,0.6,100.0,standard,1.0,3.0,1.0,
977,0.0,decreament,0.6,100.0,standard,1.0,3.0,1.0,
978,0.0,decreament,0.6,100.0,standard,1.0,3.0,1.0,
979,0.0,decreament,0.6,100.0,standard,1.0,3.0,1.0,
980,0.0,decreament,0.6,100.0,standard,1.0,3.0,1.0,
981,0.0,decreament,0.6,100.0,standard,1.0,3.0,1.0,
982,0.0,decreament,0.6,100.0,standard,1.0,3.0,1.0,
983,0.0,decreament,0.6,100.0,standard,1.0,3.0,1.0,
984,0.0,decreament,0.6,100.0,standard,1.0,3.0,1.0,
985,0.0,decreament,0.6,100.0,standard,1.0,3.0,1.0,
986,0.0,decreament,0.6,100.0,standard,1.0,3.0,1.0,
987,0.0,decreament,0.6,100.0,standard,1.0,3.0,1.0,
988,0.0,decreament,0.6,100.0,standard,1.0,3.0,1.0,
989,0.0,decreament,0.24,40.0,oddball,2.0,3.0,1.0,0.5108029999973951
990,0.0,increament,0.6,100.0,standard,5.0,3.0,1.0,
991,0.0,increament,0.6,100.0,standard,5.0,3.0,1.0,
992,0.0,increament,0.6,100.0,standard,5.0,3.0,1.0,
993,0.0,increament,0.6,100.0,standard,5.0,3.0,1.0,
994,0.0,increament,0.6,100.0,standard,5.0,3.0,1.0,
995,0.0,increament,0.6,100.0,standard,5.0,3.0,1.0,
996,0.0,increament,0.6,100.0,standard,5.0,3.0,1.0,
997,0.0,increament,0.6,100.0,standard,5.0,3.0,1.0,
998,0.0,increament,0.84,140.0,oddball,7.0,3.0,1.0,0.6471622999961255
999,0.0,increament,0.6,100.0,standard,5.0,3.0,1.0,
1000,0.0,increament,0.6,100.0,standard,5.0,3.0,1.0,
1001,0.0,increament,0.6,100.0,standard,5.0,3.0,1.0,
1002,0.0,increament,0.6,100.0,standard,5.0,3.0,1.0,
1003,0.0,increament,0.6,100.0,standard,5.0,3.0,1.0,
1004,0.0,increament,0.6,100.0,standard,5.0,3.0,1.0,
1005,0.0,increament,0.6,100.0,standard,5.0,3.0,1.0,
1006,0.0,increament,0.6,100.0,standard,5.0,3.0,1.0,
1007,0.0,increament,0.6,100.0,standard,5.0,3.0,1.0,
1008,0.0,increament,0.96,160.0,oddball,8.0,3.0,1.0,0.5499008999904618
1009,0.0,increament,0.6,100.0,standard,5.0,3.0,1.0,
1010,0.0,increament,0.6,100.0,standard,5.0,3.0,1.0,
1011,0.0,increament,0.6,100.0,standard,5.0,3.0,1.0,
1012,0.0,increament,0.6,100.0,standard,5.0,3.0,1.0,
1013,0.0,increament,0.6,100.0,standard,5.0,3.0,1.0,
1014,0.0,increament,0.6,100.0,standard,5.0,3.0,1.0,
1015,0.0,increament,0.6,100.0,standard,5.0,3.0,1.0,
1016,0.0,increament,0.6,100.0,standard,5.0,3.0,1.0,
1017,0.0,increament,0.72,120.0,oddball,6.0,3.0,0.0,
1018,0.0,increament,0.6,100.0,standard,5.0,3.0,1.0,
1019,0.0,increament,0.6,100.0,standard,5.0,3.0,1.0,
1020,0.0,decreament,0.6,100.0,standard,1.0,3.0,1.0,
1021,0.0,decreament,0.6,100.0,standard,1.0,3.0,1.0,
1022,0.0,decreament,0.6,100.0,standard,1.0,3.0,1.0,
1023,0.0,decreament,0.6,100.0,standard,1.0,3.0,1.0,
1024,0.0,decreament,0.6,100.0,standard,1.0,3.0,1.0,
1025,0.0,decreament,0.6,100.0,standard,1.0,3.0,1.0,
1026,0.0,decreament,0.6,100.0,standard,1.0,3.0,1.0,
1027,0.0,decreament,0.6,100.0,standard,1.0,3.0,1.0,
1028,0.0,decreament,0.6,100.0,standard,1.0,3.0,1.0,
1029,0.0,decreament,0.6,100.0,standard,1.0,3.0,1.0,
1030,0.0,decreament,0.6,100.0,standard,1.0,3.0,1.0,
1031,0.0,decreament,0.6,100.0,standard,1.0,3.0,1.0,
1032,0.0,decreament,0.36,60.0,oddball,3.0,3.0,1.0,0.6121825000009267
1033,0.0,decreament,0.6,100.0,standard,1.0,3.0,1.0,
1034,0.0,decreament,0.6,100.0,standard,1.0,3.0,1.0,
1035,0.0,decreament,0.6,100.0,standard,1.0,3.0,1.0,
1036,0.0,decreament,0.24,40.0,oddball,2.0,3.0,1.0,0.6151811000017915
1037,0.0,decreament,0.6,100.0,standard,1.0,3.0,1.0,
1038,0.0,decreament,0.6,100.0,standard,1.0,3.0,1.0,
1039,0.0,decreament,0.6,100.0,standard,1.0,3.0,1.0,
1040,0.0,decreament,0.6,100.0,standard,1.0,3.0,1.0,
1041,0.0,decreament,0.6,100.0,standard,1.0,3.0,1.0,
1042,0.0,decreament,0.6,100.0,standard,1.0,3.0,1.0,
1043,0.0,decreament,0.6,100.0,standard,1.0,3.0,1.0,
1044,0.0,decreament,0.48,80.0,oddball,4.0,3.0,0.0,
1045,0.0,decreament,0.6,100.0,standard,1.0,3.0,1.0,
1046,0.0,decreament,0.6,100.0,standard,1.0,3.0,1.0,
1047,0.0,decreament,0.6,100.0,standard,1.0,3.0,1.0,
1048,0.0,decreament,0.6,100.0,standard,1.0,3.0,1.0,
1049,0.0,decreament,0.6,100.0,standard,1.0,3.0,1.0,
1050,0.0,increament,0.6,100.0,standard,5.0,3.0,1.0,
1051,0.0,increament,0.6,100.0,standard,5.0,3.0,1.0,
1052,0.0,increament,0.6,100.0,standard,5.0,3.0,1.0,
1053,0.0,increament,0.6,100.0,standard,5.0,3.0,1.0,
1054,0.0,increament,0.6,100.0,standard,5.0,3.0,1.0,
1055,0.0,increament,0.6,100.0,standard,5.0,3.0,1.0,
1056,0.0,increament,0.6,100.0,standard,5.0,3.0,1.0,
1057,0.0,increament,0.96,160.0,oddball,8.0,3.0,1.0,0.2726633999991463
1058,0.0,increament,0.6,100.0,standard,5.0,3.0,1.0,
1059,0.0,increament,0.6,100.0,standard,5.0,3.0,1.0,
1060,0.0,increament,0.6,100.0,standard,5.0,3.0,1.0,
1061,0.0,increament,0.84,140.0,oddball,7.0,3.0,1.0,0.4131312999961665
1062,0.0,increament,0.6,100.0,standard,5.0,3.0,1.0,
1063,0.0,increament,0.6,100.0,standard,5.0,3.0,1.0,
1064,0.0,increament,0.6,100.0,standard,5.0,3.0,1.0,
1065,0.0,increament,0.6,100.0,standard,5.0,3.0,1.0,
1066,0.0,increament,0.6,100.0,standard,5.0,3.0,1.0,
1067,0.0,increament,0.6,100.0,standard,5.0,3.0,1.0,
1068,0.0,increament,0.6,100.0,standard,5.0,3.0,1.0,
1069,0.0,increament,0.6,100.0,standard,5.0,3.0,1.0,
1070,0.0,increament,0.6,100.0,standard,5.0,3.0,1.0,
1071,0.0,increament,0.72,120.0,oddball,6.0,3.0,0.0,
1072,0.0,increament,0.6,100.0,standard,5.0,3.0,1.0,
1073,0.0,increament,0.6,100.0,standard,5.0,3.0,1.0,
1074,0.0,increament,0.6,100.0,standard,5.0,3.0,1.0,
1075,0.0,increament,0.6,100.0,standard,5.0,3.0,1.0,
1076,0.0,increament,0.6,100.0,standard,5.0,3.0,1.0,
1077,0.0,increament,0.6,100.0,standard,5.0,3.0,1.0,
1078,0.0,increament,0.6,100.0,standard,5.0,3.0,1.0,
1079,0.0,increament,0.6,100.0,standard,5.0,3.0,1.0,
1080,0.0,decreament,0.6,100.0,standard,1.0,3.0,1.0,
1081,0.0,decreament,0.6,100.0,standard,1.0,3.0,1.0,
1082,0.0,decreament,0.6,100.0,standard,1.0,3.0,1.0,
1083,0.0,decreament,0.6,100.0,standard,1.0,3.0,1.0,
1084,0.0,decreament,0.6,100.0,standard,1.0,3.0,1.0,
1085,0.0,decreament,0.6,100.0,standard,1.0,3.0,1.0,
1086,0.0,decreament,0.6,100.0,standard,1.0,3.0,1.0,
1087,0.0,decreament,0.6,100.0,standard,1.0,3.0,1.0,
1088,0.0,decreament,0.6,100.0,standard,1.0,3.0,1.0,
1089,0.0,decreament,0.6,100.0,standard,1.0,3.0,1.0,
1090,0.0,decreament,0.6,100.0,standard,1.0,3.0,1.0,
1091,0.0,decreament,0.6,100.0,standard,1.0,3.0,1.0,
1092,0.0,decreament,0.6,100.0,standard,1.0,3.0,1.0,
1093,0.0,decreament,0.36,60.0,oddball,3.0,3.0,1.0,0.5876959000015631
1094,0.0,decreament,0.6,100.0,standard,1.0,3.0,1.0,
1095,0.0,decreament,0.6,100.0,standard,1.0,3.0,1.0,
1096,0.0,decreament,0.6,100.0,standard,1.0,3.0,1.0,
1097,0.0,decreament,0.6,100.0,standard,1.0,3.0,1.0,
1098,0.0,decreament,0.6,100.0,standard,1.0,3.0,1.0,
1099,0.0,decreament,0.6,100.0,standard,1.0,3.0,1.0,
1100,0.0,decreament,0.48,80.0,oddball,4.0,3.0,0.0,
1101,0.0,decreament,0.6,100.0,standard,1.0,3.0,1.0,
1102,0.0,decreament,0.6,100.0,standard,1.0,3.0,1.0,
1103,0.0,decreament,0.6,100.0,standard,1.0,3.0,1.0,
1104,0.0,decreament,0.6,100.0,standard,1.0,3.0,1.0,
1105,0.0,decreament,0.24,40.0,oddball,2.0,3.0,1.0,0.5079447000025539
1106,0.0,decreament,0.6,100.0,standard,1.0,3.0,1.0,
1107,0.0,decreament,0.6,100.0,standard,1.0,3.0,1.0,
1108,0.0,decreament,0.6,100.0,standard,1.0,3.0,1.0,
1109,0.0,decreament,0.6,100.0,standard,1.0,3.0,1.0,
1110,0.0,increament,0.6,100.0,standard,5.0,3.0,1.0,
1111,0.0,increament,0.6,100.0,standard,5.0,3.0,1.0,
1112,0.0,increament,0.6,100.0,standard,5.0,3.0,1.0,
1113,0.0,increament,0.6,100.0,standard,5.0,3.0,1.0,
1114,0.0,increament,0.6,100.0,standard,5.0,3.0,1.0,
1115,0.0,increament,0.6,100.0,standard,5.0,3.0,1.0,
1116,0.0,increament,0.6,100.0,standard,5.0,3.0,1.0,
1117,0.0,increament,0.96,160.0,oddball,8.0,3.0,1.0,0.5937422999995761
1118,0.0,increament,0.6,100.0,standard,5.0,3.0,1.0,
1119,0.0,increament,0.6,100.0,standard,5.0,3.0,1.0,
1120,0.0,increament,0.6,100.0,standard,5.0,3.0,1.0,
1121,0.0,increament,0.6,100.0,standard,5.0,3.0,1.0,
1122,0.0,increament,0.6,100.0,standard,5.0,3.0,1.0,
1123,0.0,increament,0.6,100.0,standard,5.0,3.0,1.0,
1124,0.0,increament,0.6,100.0,standard,5.0,3.0,1.0,
1125,0.0,increament,0.6,100.0,standard,5.0,3.0,1.0,
1126,0.0,increament,0.6,100.0,standard,5.0,3.0,1.0,
1127,0.0,increament,0.6,100.0,standard,5.0,3.0,1.0,
1128,0.0,increament,0.6,100.0,standard,5.0,3.0,1.0,
1129,0.0,increament,0.72,120.0,oddball,6.0,3.0,0.0,
1130,0.0,increament,0.6,100.0,standard,5.0,3.0,1.0,
1131,0.0,increament,0.6,100.0,standard,5.0,3.0,1.0,
1132,0.0,increament,0.6,100.0,standard,5.0,3.0,1.0,
1133,0.0,increament,0.6,100.0,standard,5.0,3.0,1.0,
1134,0.0,increament,0.6,100.0,standard,5.0,3.0,1.0,
1135,0.0,increament,0.6,100.0,standard,5.0,3.0,1.0,
1136,0.0,increament,0.6,100.0,standard,5.0,3.0,1.0,
1137,0.0,increament,0.84,140.0,oddball,7.0,3.0,1.0,1.0326903999957722
1138,0.0,increament,0.6,100.0,standard,5.0,3.0,1.0,
1139,0.0,increament,0.6,100.0,standard,5.0,3.0,1.0,
1140,0.0,decreament,0.6,100.0,standard,1.0,3.0,1.0,
1141,0.0,decreament,0.6,100.0,standard,1.0,3.0,1.0,
1142,0.0,decreament,0.6,100.0,standard,1.0,3.0,1.0,
1143,0.0,decreament,0.6,100.0,standard,1.0,3.0,1.0,
1144,0.0,decreament,0.6,100.0,standard,1.0,3.0,1.0,
1145,0.0,decreament,0.6,100.0,standard,1.0,3.0,1.0,
1146,0.0,decreament,0.6,100.0,standard,1.0,3.0,1.0,
1147,0.0,decreament,0.6,100.0,standard,1.0,3.0,1.0,
1148,0.0,decreament,0.6,100.0,standard,1.0,3.0,1.0,
1149,0.0,decreament,0.6,100.0,standard,1.0,3.0,1.0,
1150,0.0,decreament,0.6,100.0,standard,1.0,3.0,1.0,
1151,0.0,decreament,0.6,100.0,standard,1.0,3.0,1.0,
1152,0.0,decreament,0.24,40.0,oddball,2.0,3.0,1.0,0.5243099999934202
1153,0.0,decreament,0.6,100.0,standard,1.0,3.0,1.0,
1154,0.0,decreament,0.6,100.0,standard,1.0,3.0,1.0,
1155,0.0,decreament,0.6,100.0,standard,1.0,3.0,1.0,
1156,0.0,decreament,0.6,100.0,standard,1.0,3.0,1.0,
1157,0.0,decreament,0.6,100.0,standard,1.0,3.0,1.0,
1158,0.0,decreament,0.6,100.0,standard,1.0,3.0,1.0,
1159,0.0,decreament,0.36,60.0,oddball,3.0,3.0,1.0,0.5172007999935886
1160,0.0,decreament,0.6,100.0,standard,1.0,3.0,1.0,
1161,0.0,decreament,0.6,100.0,standard,1.0,3.0,1.0,
1162,0.0,decreament,0.6,100.0,standard,1.0,3.0,1.0,
1163,0.0,decreament,0.6,100.0,standard,1.0,3.0,1.0,
1164,0.0,decreament,0.6,100.0,standard,1.0,3.0,1.0,
1165,0.0,decreament,0.6,100.0,standard,1.0,3.0,1.0,
1166,0.0,decreament,0.6,100.0,standard,1.0,3.0,1.0,
1167,0.0,decreament,0.6,100.0,standard,1.0,3.0,1.0,
1168,0.0,decreament,0.6,100.0,standard,1.0,3.0,1.0,
1169,0.0,decreament,0.48,80.0,oddball,4.0,3.0,0.0,
1170,0.0,increament,0.6,100.0,standard,5.0,3.0,1.0,
1171,0.0,increament,0.6,100.0,standard,5.0,3.0,1.0,
1172,0.0,increament,0.6,100.0,standard,5.0,3.0,1.0,
1173,0.0,increament,0.6,100.0,standard,5.0,3.0,1.0,
1174,0.0,increament,0.6,100.0,standard,5.0,3.0,1.0,
1175,0.0,increament,0.72,120.0,oddball,6.0,3.0,0.0,
1176,0.0,increament,0.6,100.0,standard,5.0,3.0,1.0,
1177,0.0,increament,0.6,100.0,standard,5.0,3.0,1.0,
1178,0.0,increament,0.6,100.0,standard,5.0,3.0,1.0,
1179,0.0,increament,0.6,100.0,standard,5.0,3.0,1.0,
1180,0.0,increament,0.6,100.0,standard,5.0,3.0,1.0,
1181,0.0,increament,0.6,100.0,standard,5.0,3.0,1.0,
1182,0.0,increament,0.6,100.0,standard,5.0,3.0,1.0,
1183,0.0,increament,0.6,100.0,standard,5.0,3.0,1.0,
1184,0.0,increament,0.6,100.0,standard,5.0,3.0,1.0,
1185,0.0,increament,0.96,160.0,oddball,8.0,3.0,1.0,0.9300366999959806
1186,0.0,increament,0.6,100.0,standard,5.0,3.0,1.0,
1187,0.0,increament,0.6,100.0,standard,5.0,3.0,1.0,
1188,0.0,increament,0.6,100.0,standard,5.0,3.0,1.0,
1189,0.0,increament,0.6,100.0,standard,5.0,3.0,1.0,
1190,0.0,increament,0.6,100.0,standard,5.0,3.0,0.0,0.0496572999982163
1191,0.0,increament,0.6,100.0,standard,5.0,3.0,1.0,
1192,0.0,increament,0.6,100.0,standard,5.0,3.0,1.0,
1193,0.0,increament,0.6,100.0,standard,5.0,3.0,1.0,
1194,0.0,increament,0.84,140.0,oddball,7.0,3.0,0.0,
1195,0.0,increament,0.6,100.0,standard,5.0,3.0,1.0,
1196,0.0,increament,0.6,100.0,standard,5.0,3.0,1.0,
1197,0.0,increament,0.6,100.0,standard,5.0,3.0,1.0,
1198,0.0,increament,0.6,100.0,standard,5.0,3.0,1.0,
1199,0.0,increament,0.6,100.0,standard,5.0,3.0,1.0,
