,grating_freq,direction,duration,scaling,stim_type,trigger,blocks.thisN,resp.corr,resp.rt
0,20.0,increament,0.6,100.0,standard,45.0,0.0,1.0,
1,20.0,increament,0.6,100.0,standard,45.0,0.0,1.0,
2,20.0,increament,0.6,100.0,standard,45.0,0.0,1.0,
3,20.0,increament,0.6,100.0,standard,45.0,0.0,1.0,
4,20.0,increament,0.6,100.0,standard,45.0,0.0,1.0,
5,20.0,increament,0.96,160.0,oddball,48.0,0.0,1.0,0.4492460004985332
6,20.0,increament,0.6,100.0,standard,45.0,0.0,1.0,
7,20.0,increament,0.6,100.0,standard,45.0,0.0,1.0,
8,20.0,increament,0.6,100.0,standard,45.0,0.0,1.0,
9,20.0,increament,0.6,100.0,standard,45.0,0.0,1.0,
10,20.0,increament,0.84,140.0,oddball,47.0,0.0,1.0,0.5560393002815545
11,20.0,increament,0.6,100.0,standard,45.0,0.0,1.0,
12,20.0,increament,0.6,100.0,standard,45.0,0.0,1.0,
13,20.0,increament,0.6,100.0,standard,45.0,0.0,1.0,
14,20.0,increament,0.6,100.0,standard,45.0,0.0,1.0,
15,20.0,increament,0.6,100.0,standard,45.0,0.0,1.0,
16,20.0,increament,0.6,100.0,standard,45.0,0.0,1.0,
17,20.0,increament,0.6,100.0,standard,45.0,0.0,1.0,
18,20.0,increament,0.6,100.0,standard,45.0,0.0,1.0,
19,20.0,increament,0.6,100.0,standard,45.0,0.0,1.0,
20,20.0,increament,0.6,100.0,standard,45.0,0.0,1.0,
21,20.0,increament,0.6,100.0,standard,45.0,0.0,1.0,
22,20.0,increament,0.6,100.0,standard,45.0,0.0,1.0,
23,20.0,increament,0.6,100.0,standard,45.0,0.0,1.0,
24,20.0,increament,0.6,100.0,standard,45.0,0.0,1.0,
25,20.0,increament,0.72,120.0,oddball,46.0,0.0,0.0,
26,20.0,increament,0.6,100.0,standard,45.0,0.0,1.0,
27,20.0,increament,0.6,100.0,standard,45.0,0.0,1.0,
28,20.0,increament,0.6,100.0,standard,45.0,0.0,1.0,
29,20.0,increament,0.6,100.0,standard,45.0,0.0,1.0,
30,20.0,decreament,0.6,100.0,standard,41.0,0.0,1.0,
31,20.0,decreament,0.6,100.0,standard,41.0,0.0,1.0,
32,20.0,decreament,0.6,100.0,standard,41.0,0.0,1.0,
33,20.0,decreament,0.6,100.0,standard,41.0,0.0,1.0,
34,20.0,decreament,0.6,100.0,standard,41.0,0.0,1.0,
35,20.0,decreament,0.6,100.0,standard,41.0,0.0,1.0,
36,20.0,decreament,0.48,80.0,oddball,44.0,0.0,1.0,0.6491475999355316
37,20.0,decreament,0.6,100.0,standard,41.0,0.0,1.0,
38,20.0,decreament,0.6,100.0,standard,41.0,0.0,1.0,
39,20.0,decreament,0.6,100.0,standard,41.0,0.0,1.0,
40,20.0,decreament,0.6,100.0,standard,41.0,0.0,1.0,
41,20.0,decreament,0.6,100.0,standard,41.0,0.0,1.0,
42,20.0,decreament,0.6,100.0,standard,41.0,0.0,1.0,
43,20.0,decreament,0.6,100.0,standard,41.0,0.0,1.0,
44,20.0,decreament,0.6,100.0,standard,41.0,0.0,1.0,
45,20.0,decreament,0.6,100.0,standard,41.0,0.0,1.0,
46,20.0,decreament,0.6,100.0,standard,41.0,0.0,1.0,
47,20.0,decreament,0.6,100.0,standard,41.0,0.0,1.0,
48,20.0,decreament,0.6,100.0,standard,41.0,0.0,1.0,
49,20.0,decreament,0.6,100.0,standard,41.0,0.0,1.0,
50,20.0,decreament,0.6,100.0,standard,41.0,0.0,1.0,
51,20.0,decreament,0.6,100.0,standard,41.0,0.0,1.0,
52,20.0,decreament,0.6,100.0,standard,41.0,0.0,1.0,
53,20.0,decreament,0.6,100.0,standard,41.0,0.0,1.0,
54,20.0,decreament,0.36,60.0,oddball,43.0,0.0,1.0,0.8311276002787054
55,20.0,decreament,0.6,100.0,standard,41.0,0.0,1.0,
56,20.0,decreament,0.6,100.0,standard,41.0,0.0,1.0,
57,20.0,decreament,0.6,100.0,standard,41.0,0.0,1.0,
58,20.0,decreament,0.6,100.0,standard,41.0,0.0,1.0,
59,20.0,decreament,0.24,40.0,oddball,42.0,0.0,1.0,0.7193492003716528
60,20.0,increament,0.6,100.0,standard,45.0,0.0,1.0,
61,20.0,increament,0.6,100.0,standard,45.0,0.0,1.0,
62,20.0,increament,0.6,100.0,standard,45.0,0.0,1.0,
63,20.0,increament,0.6,100.0,standard,45.0,0.0,1.0,
64,20.0,increament,0.6,100.0,standard,45.0,0.0,1.0,
65,20.0,increament,0.72,120.0,oddball,46.0,0.0,1.0,0.740049900021404
66,20.0,increament,0.6,100.0,standard,45.0,0.0,1.0,
67,20.0,increament,0.6,100.0,standard,45.0,0.0,1.0,
68,20.0,increament,0.6,100.0,standard,45.0,0.0,1.0,
69,20.0,increament,0.6,100.0,standard,45.0,0.0,1.0,
70,20.0,increament,0.6,100.0,standard,45.0,0.0,1.0,
71,20.0,increament,0.6,100.0,standard,45.0,0.0,1.0,
72,20.0,increament,0.6,100.0,standard,45.0,0.0,1.0,
73,20.0,increament,0.6,100.0,standard,45.0,0.0,1.0,
74,20.0,increament,0.6,100.0,standard,45.0,0.0,1.0,
75,20.0,increament,0.6,100.0,standard,45.0,0.0,1.0,
76,20.0,increament,0.6,100.0,standard,45.0,0.0,1.0,
77,20.0,increament,0.96,160.0,oddball,48.0,0.0,1.0,0.5680230003781617
78,20.0,increament,0.6,100.0,standard,45.0,0.0,1.0,
79,20.0,increament,0.6,100.0,standard,45.0,0.0,1.0,
80,20.0,increament,0.6,100.0,standard,45.0,0.0,1.0,
81,20.0,increament,0.6,100.0,standard,45.0,0.0,1.0,
82,20.0,increament,0.84,140.0,oddball,47.0,0.0,1.0,0.5406516999937594
83,20.0,increament,0.6,100.0,standard,45.0,0.0,1.0,
84,20.0,increament,0.6,100.0,standard,45.0,0.0,1.0,
85,20.0,increament,0.6,100.0,standard,45.0,0.0,1.0,
86,20.0,increament,0.6,100.0,standard,45.0,0.0,1.0,
87,20.0,increament,0.6,100.0,standard,45.0,0.0,1.0,
88,20.0,increament,0.6,100.0,standard,45.0,0.0,1.0,
89,20.0,increament,0.6,100.0,standard,45.0,0.0,1.0,
90,20.0,decreament,0.6,100.0,standard,41.0,0.0,1.0,
91,20.0,decreament,0.6,100.0,standard,41.0,0.0,1.0,
92,20.0,decreament,0.6,100.0,standard,41.0,0.0,1.0,
93,20.0,decreament,0.6,100.0,standard,41.0,0.0,1.0,
94,20.0,decreament,0.6,100.0,standard,41.0,0.0,1.0,
95,20.0,decreament,0.48,80.0,oddball,44.0,0.0,1.0,0.723620000295341
96,20.0,decreament,0.6,100.0,standard,41.0,0.0,1.0,
97,20.0,decreament,0.6,100.0,standard,41.0,0.0,1.0,
98,20.0,decreament,0.6,100.0,standard,41.0,0.0,1.0,
99,20.0,decreament,0.6,100.0,standard,41.0,0.0,1.0,
100,20.0,decreament,0.6,100.0,standard,41.0,0.0,1.0,
101,20.0,decreament,0.6,100.0,standard,41.0,0.0,0.0,0.6930944002233446
102,20.0,decreament,0.6,100.0,standard,41.0,0.0,1.0,
103,20.0,decreament,0.6,100.0,standard,41.0,0.0,1.0,
104,20.0,decreament,0.6,100.0,standard,41.0,0.0,1.0,
105,20.0,decreament,0.6,100.0,standard,41.0,0.0,1.0,
106,20.0,decreament,0.6,100.0,standard,41.0,0.0,0.0,0.6758984006009996
107,20.0,decreament,0.6,100.0,standard,41.0,0.0,1.0,
108,20.0,decreament,0.6,100.0,standard,41.0,0.0,1.0,
109,20.0,decreament,0.36,60.0,oddball,43.0,0.0,1.0,0.7834581001661718
110,20.0,decreament,0.6,100.0,standard,41.0,0.0,1.0,
111,20.0,decreament,0.6,100.0,standard,41.0,0.0,1.0,
112,20.0,decreament,0.6,100.0,standard,41.0,0.0,1.0,
113,20.0,decreament,0.6,100.0,standard,41.0,0.0,1.0,
114,20.0,decreament,0.6,100.0,standard,41.0,0.0,1.0,
115,20.0,decreament,0.6,100.0,standard,41.0,0.0,1.0,
116,20.0,decreament,0.24,40.0,oddball,42.0,0.0,1.0,0.6050193002447486
117,20.0,decreament,0.6,100.0,standard,41.0,0.0,1.0,
118,20.0,decreament,0.6,100.0,standard,41.0,0.0,1.0,
119,20.0,decreament,0.6,100.0,standard,41.0,0.0,1.0,
120,20.0,increament,0.6,100.0,standard,45.0,0.0,1.0,
121,20.0,increament,0.6,100.0,standard,45.0,0.0,1.0,
122,20.0,increament,0.6,100.0,standard,45.0,0.0,1.0,
123,20.0,increament,0.6,100.0,standard,45.0,0.0,1.0,
124,20.0,increament,0.6,100.0,standard,45.0,0.0,1.0,
125,20.0,increament,0.6,100.0,standard,45.0,0.0,1.0,
126,20.0,increament,0.6,100.0,standard,45.0,0.0,1.0,
127,20.0,increament,0.6,100.0,standard,45.0,0.0,1.0,
128,20.0,increament,0.6,100.0,standard,45.0,0.0,1.0,
129,20.0,increament,0.6,100.0,standard,45.0,0.0,1.0,
130,20.0,increament,0.6,100.0,standard,45.0,0.0,1.0,
131,20.0,increament,0.84,140.0,oddball,47.0,0.0,1.0,0.5146638005971909
132,20.0,increament,0.6,100.0,standard,45.0,0.0,1.0,
133,20.0,increament,0.6,100.0,standard,45.0,0.0,1.0,
134,20.0,increament,0.6,100.0,standard,45.0,0.0,1.0,
135,20.0,increament,0.6,100.0,standard,45.0,0.0,1.0,
136,20.0,increament,0.6,100.0,standard,45.0,0.0,1.0,
137,20.0,increament,0.6,100.0,standard,45.0,0.0,1.0,
138,20.0,increament,0.6,100.0,standard,45.0,0.0,1.0,
139,20.0,increament,0.6,100.0,standard,45.0,0.0,1.0,
140,20.0,increament,0.6,100.0,standard,45.0,0.0,1.0,
141,20.0,increament,0.6,100.0,standard,45.0,0.0,1.0,
142,20.0,increament,0.72,120.0,oddball,46.0,0.0,0.0,
143,20.0,increament,0.6,100.0,standard,45.0,0.0,1.0,
144,20.0,increament,0.6,100.0,standard,45.0,0.0,1.0,
145,20.0,increament,0.6,100.0,standard,45.0,0.0,1.0,
146,20.0,increament,0.96,160.0,oddball,48.0,0.0,1.0,0.5506175002083182
147,20.0,increament,0.6,100.0,standard,45.0,0.0,1.0,
148,20.0,increament,0.6,100.0,standard,45.0,0.0,1.0,
149,20.0,increament,0.6,100.0,standard,45.0,0.0,1.0,
150,20.0,decreament,0.6,100.0,standard,41.0,0.0,1.0,
151,20.0,decreament,0.6,100.0,standard,41.0,0.0,1.0,
152,20.0,decreament,0.6,100.0,standard,41.0,0.0,1.0,
153,20.0,decreament,0.6,100.0,standard,41.0,0.0,1.0,
154,20.0,decreament,0.6,100.0,standard,41.0,0.0,1.0,
155,20.0,decreament,0.6,100.0,standard,41.0,0.0,1.0,
156,20.0,decreament,0.6,100.0,standard,41.0,0.0,1.0,
157,20.0,decreament,0.6,100.0,standard,41.0,0.0,1.0,
158,20.0,decreament,0.6,100.0,standard,41.0,0.0,1.0,
159,20.0,decreament,0.6,100.0,standard,41.0,0.0,1.0,
160,20.0,decreament,0.36,60.0,oddball,43.0,0.0,1.0,0.6072125006467104
161,20.0,decreament,0.6,100.0,standard,41.0,0.0,1.0,
162,20.0,decreament,0.6,100.0,standard,41.0,0.0,1.0,
163,20.0,decreament,0.6,100.0,standard,41.0,0.0,1.0,
164,20.0,decreament,0.6,100.0,standard,41.0,0.0,1.0,
165,20.0,decreament,0.6,100.0,standard,41.0,0.0,1.0,
166,20.0,decreament,0.6,100.0,standard,41.0,0.0,1.0,
167,20.0,decreament,0.6,100.0,standard,41.0,0.0,1.0,
168,20.0,decreament,0.48,80.0,oddball,44.0,0.0,0.0,
169,20.0,decreament,0.6,100.0,standard,41.0,0.0,1.0,
170,20.0,decreament,0.6,100.0,standard,41.0,0.0,1.0,
171,20.0,decreament,0.6,100.0,standard,41.0,0.0,1.0,
172,20.0,decreament,0.6,100.0,standard,41.0,0.0,1.0,
173,20.0,decreament,0.24,40.0,oddball,42.0,0.0,1.0,1.0292851002886891
174,20.0,decreament,0.6,100.0,standard,41.0,0.0,1.0,
175,20.0,decreament,0.6,100.0,standard,41.0,0.0,1.0,
176,20.0,decreament,0.6,100.0,standard,41.0,0.0,1.0,
177,20.0,decreament,0.6,100.0,standard,41.0,0.0,1.0,
178,20.0,decreament,0.6,100.0,standard,41.0,0.0,1.0,
179,20.0,decreament,0.6,100.0,standard,41.0,0.0,1.0,
180,20.0,increament,0.6,100.0,standard,45.0,0.0,1.0,
181,20.0,increament,0.6,100.0,standard,45.0,0.0,1.0,
182,20.0,increament,0.6,100.0,standard,45.0,0.0,1.0,
183,20.0,increament,0.6,100.0,standard,45.0,0.0,1.0,
184,20.0,increament,0.6,100.0,standard,45.0,0.0,1.0,
185,20.0,increament,0.6,100.0,standard,45.0,0.0,1.0,
186,20.0,increament,0.6,100.0,standard,45.0,0.0,1.0,
187,20.0,increament,0.6,100.0,standard,45.0,0.0,1.0,
188,20.0,increament,0.6,100.0,standard,45.0,0.0,1.0,
189,20.0,increament,0.6,100.0,standard,45.0,0.0,1.0,
190,20.0,increament,0.6,100.0,standard,45.0,0.0,1.0,
191,20.0,increament,0.6,100.0,standard,45.0,0.0,1.0,
192,20.0,increament,0.84,140.0,oddball,47.0,0.0,1.0,0.4804927003569901
193,20.0,increament,0.6,100.0,standard,45.0,0.0,1.0,
194,20.0,increament,0.6,100.0,standard,45.0,0.0,1.0,
195,20.0,increament,0.6,100.0,standard,45.0,0.0,1.0,
196,20.0,increament,0.6,100.0,standard,45.0,0.0,1.0,
197,20.0,increament,0.6,100.0,standard,45.0,0.0,1.0,
198,20.0,increament,0.6,100.0,standard,45.0,0.0,1.0,
199,20.0,increament,0.6,100.0,standard,45.0,0.0,1.0,
200,20.0,increament,0.6,100.0,standard,45.0,0.0,1.0,
201,20.0,increament,0.6,100.0,standard,45.0,0.0,1.0,
202,20.0,increament,0.96,160.0,oddball,48.0,0.0,1.0,0.7023517000488937
203,20.0,increament,0.6,100.0,standard,45.0,0.0,1.0,
204,20.0,increament,0.6,100.0,standard,45.0,0.0,1.0,
205,20.0,increament,0.6,100.0,standard,45.0,0.0,1.0,
206,20.0,increament,0.6,100.0,standard,45.0,0.0,1.0,
207,20.0,increament,0.6,100.0,standard,45.0,0.0,1.0,
208,20.0,increament,0.72,120.0,oddball,46.0,0.0,0.0,
209,20.0,increament,0.6,100.0,standard,45.0,0.0,1.0,
210,20.0,decreament,0.6,100.0,standard,41.0,0.0,1.0,
211,20.0,decreament,0.6,100.0,standard,41.0,0.0,1.0,
212,20.0,decreament,0.6,100.0,standard,41.0,0.0,1.0,
213,20.0,decreament,0.6,100.0,standard,41.0,0.0,1.0,
214,20.0,decreament,0.6,100.0,standard,41.0,0.0,1.0,
215,20.0,decreament,0.36,60.0,oddball,43.0,0.0,1.0,0.974066000431776
216,20.0,decreament,0.6,100.0,standard,41.0,0.0,1.0,
217,20.0,decreament,0.6,100.0,standard,41.0,0.0,1.0,
218,20.0,decreament,0.6,100.0,standard,41.0,0.0,1.0,
219,20.0,decreament,0.6,100.0,standard,41.0,0.0,1.0,
220,20.0,decreament,0.6,100.0,standard,41.0,0.0,1.0,
221,20.0,decreament,0.6,100.0,standard,41.0,0.0,1.0,
222,20.0,decreament,0.6,100.0,standard,41.0,0.0,1.0,
223,20.0,decreament,0.24,40.0,oddball,42.0,0.0,1.0,0.6700189001858234
224,20.0,decreament,0.6,100.0,standard,41.0,0.0,1.0,
225,20.0,decreament,0.6,100.0,standard,41.0,0.0,1.0,
226,20.0,decreament,0.6,100.0,standard,41.0,0.0,1.0,
227,20.0,decreament,0.6,100.0,standard,41.0,0.0,1.0,
228,20.0,decreament,0.6,100.0,standard,41.0,0.0,1.0,
229,20.0,decreament,0.6,100.0,standard,41.0,0.0,1.0,
230,20.0,decreament,0.6,100.0,standard,41.0,0.0,1.0,
231,20.0,decreament,0.6,100.0,standard,41.0,0.0,1.0,
232,20.0,decreament,0.48,80.0,oddball,44.0,0.0,1.0,0.6048628003336489
233,20.0,decreament,0.6,100.0,standard,41.0,0.0,1.0,
234,20.0,decreament,0.6,100.0,standard,41.0,0.0,1.0,
235,20.0,decreament,0.6,100.0,standard,41.0,0.0,1.0,
236,20.0,decreament,0.6,100.0,standard,41.0,0.0,1.0,
237,20.0,decreament,0.6,100.0,standard,41.0,0.0,1.0,
238,20.0,decreament,0.6,100.0,standard,41.0,0.0,1.0,
239,20.0,decreament,0.6,100.0,standard,41.0,0.0,1.0,
240,20.0,increament,0.6,100.0,standard,45.0,0.0,1.0,
241,20.0,increament,0.6,100.0,standard,45.0,0.0,1.0,
242,20.0,increament,0.6,100.0,standard,45.0,0.0,1.0,
243,20.0,increament,0.6,100.0,standard,45.0,0.0,1.0,
244,20.0,increament,0.6,100.0,standard,45.0,0.0,1.0,
245,20.0,increament,0.72,120.0,oddball,46.0,0.0,1.0,0.7414407003670931
246,20.0,increament,0.6,100.0,standard,45.0,0.0,1.0,
247,20.0,increament,0.6,100.0,standard,45.0,0.0,1.0,
248,20.0,increament,0.6,100.0,standard,45.0,0.0,1.0,
249,20.0,increament,0.6,100.0,standard,45.0,0.0,1.0,
250,20.0,increament,0.6,100.0,standard,45.0,0.0,1.0,
251,20.0,increament,0.6,100.0,standard,45.0,0.0,1.0,
252,20.0,increament,0.6,100.0,standard,45.0,0.0,1.0,
253,20.0,increament,0.6,100.0,standard,45.0,0.0,1.0,
254,20.0,increament,0.6,100.0,standard,45.0,0.0,1.0,
255,20.0,increament,0.6,100.0,standard,45.0,0.0,1.0,
256,20.0,increament,0.84,140.0,oddball,47.0,0.0,0.0,
257,20.0,increament,0.6,100.0,standard,45.0,0.0,1.0,
258,20.0,increament,0.6,100.0,standard,45.0,0.0,1.0,
259,20.0,increament,0.6,100.0,standard,45.0,0.0,1.0,
260,20.0,increament,0.6,100.0,standard,45.0,0.0,1.0,
261,20.0,increament,0.6,100.0,standard,45.0,0.0,1.0,
262,20.0,increament,0.6,100.0,standard,45.0,0.0,1.0,
263,20.0,increament,0.6,100.0,standard,45.0,0.0,1.0,
264,20.0,increament,0.6,100.0,standard,45.0,0.0,1.0,
265,20.0,increament,0.6,100.0,standard,45.0,0.0,1.0,
266,20.0,increament,0.96,160.0,oddball,48.0,0.0,1.0,0.3632885999977588
267,20.0,increament,0.6,100.0,standard,45.0,0.0,1.0,
268,20.0,increament,0.6,100.0,standard,45.0,0.0,1.0,
269,20.0,increament,0.6,100.0,standard,45.0,0.0,1.0,
270,20.0,decreament,0.6,100.0,standard,41.0,0.0,1.0,
271,20.0,decreament,0.6,100.0,standard,41.0,0.0,1.0,
272,20.0,decreament,0.6,100.0,standard,41.0,0.0,1.0,
273,20.0,decreament,0.6,100.0,standard,41.0,0.0,1.0,
274,20.0,decreament,0.6,100.0,standard,41.0,0.0,1.0,
275,20.0,decreament,0.6,100.0,standard,41.0,0.0,1.0,
276,20.0,decreament,0.6,100.0,standard,41.0,0.0,1.0,
277,20.0,decreament,0.6,100.0,standard,41.0,0.0,1.0,
278,20.0,decreament,0.6,100.0,standard,41.0,0.0,1.0,
279,20.0,decreament,0.6,100.0,standard,41.0,0.0,1.0,
280,20.0,decreament,0.6,100.0,standard,41.0,0.0,1.0,
281,20.0,decreament,0.6,100.0,standard,41.0,0.0,1.0,
282,20.0,decreament,0.6,100.0,standard,41.0,0.0,1.0,
283,20.0,decreament,0.6,100.0,standard,41.0,0.0,1.0,
284,20.0,decreament,0.6,100.0,standard,41.0,0.0,1.0,
285,20.0,decreament,0.36,60.0,oddball,43.0,0.0,1.0,0.652073900680989
286,20.0,decreament,0.6,100.0,standard,41.0,0.0,1.0,
287,20.0,decreament,0.6,100.0,standard,41.0,0.0,1.0,
288,20.0,decreament,0.6,100.0,standard,41.0,0.0,1.0,
289,20.0,decreament,0.6,100.0,standard,41.0,0.0,1.0,
290,20.0,decreament,0.6,100.0,standard,41.0,0.0,1.0,
291,20.0,decreament,0.6,100.0,standard,41.0,0.0,1.0,
292,20.0,decreament,0.48,80.0,oddball,44.0,0.0,0.0,
293,20.0,decreament,0.6,100.0,standard,41.0,0.0,1.0,
294,20.0,decreament,0.6,100.0,standard,41.0,0.0,1.0,
295,20.0,decreament,0.6,100.0,standard,41.0,0.0,1.0,
296,20.0,decreament,0.6,100.0,standard,41.0,0.0,1.0,
297,20.0,decreament,0.24,40.0,oddball,42.0,0.0,1.0,0.7265262003056705
298,20.0,decreament,0.6,100.0,standard,41.0,0.0,1.0,
299,20.0,decreament,0.6,100.0,standard,41.0,0.0,1.0,
300,10.0,increament,0.6,100.0,standard,25.0,1.0,1.0,
301,10.0,increament,0.6,100.0,standard,25.0,1.0,1.0,
302,10.0,increament,0.6,100.0,standard,25.0,1.0,1.0,
303,10.0,increament,0.6,100.0,standard,25.0,1.0,1.0,
304,10.0,increament,0.6,100.0,standard,25.0,1.0,1.0,
305,10.0,increament,0.6,100.0,standard,25.0,1.0,1.0,
306,10.0,increament,0.6,100.0,standard,25.0,1.0,1.0,
307,10.0,increament,0.6,100.0,standard,25.0,1.0,1.0,
308,10.0,increament,0.84,140.0,oddball,27.0,1.0,1.0,0.5158871007151902
309,10.0,increament,0.6,100.0,standard,25.0,1.0,1.0,
310,10.0,increament,0.6,100.0,standard,25.0,1.0,1.0,
311,10.0,increament,0.6,100.0,standard,25.0,1.0,1.0,
312,10.0,increament,0.6,100.0,standard,25.0,1.0,1.0,
313,10.0,increament,0.6,100.0,standard,25.0,1.0,1.0,
314,10.0,increament,0.6,100.0,standard,25.0,1.0,1.0,
315,10.0,increament,0.6,100.0,standard,25.0,1.0,1.0,
316,10.0,increament,0.96,160.0,oddball,28.0,1.0,1.0,0.5553036001510918
317,10.0,increament,0.6,100.0,standard,25.0,1.0,1.0,
318,10.0,increament,0.6,100.0,standard,25.0,1.0,1.0,
319,10.0,increament,0.6,100.0,standard,25.0,1.0,1.0,
320,10.0,increament,0.72,120.0,oddball,26.0,1.0,0.0,
321,10.0,increament,0.6,100.0,standard,25.0,1.0,1.0,
322,10.0,increament,0.6,100.0,standard,25.0,1.0,1.0,
323,10.0,increament,0.6,100.0,standard,25.0,1.0,1.0,
324,10.0,increament,0.6,100.0,standard,25.0,1.0,1.0,
325,10.0,increament,0.6,100.0,standard,25.0,1.0,1.0,
326,10.0,increament,0.6,100.0,standard,25.0,1.0,1.0,
327,10.0,increament,0.6,100.0,standard,25.0,1.0,1.0,
328,10.0,increament,0.6,100.0,standard,25.0,1.0,1.0,
329,10.0,increament,0.6,100.0,standard,25.0,1.0,1.0,
330,10.0,decreament,0.6,100.0,standard,21.0,1.0,1.0,
331,10.0,decreament,0.6,100.0,standard,21.0,1.0,1.0,
332,10.0,decreament,0.6,100.0,standard,21.0,1.0,1.0,
333,10.0,decreament,0.6,100.0,standard,21.0,1.0,1.0,
334,10.0,decreament,0.6,100.0,standard,21.0,1.0,1.0,
335,10.0,decreament,0.24,40.0,oddball,22.0,1.0,1.0,0.6492874003015459
336,10.0,decreament,0.6,100.0,standard,21.0,1.0,1.0,
337,10.0,decreament,0.6,100.0,standard,21.0,1.0,1.0,
338,10.0,decreament,0.6,100.0,standard,21.0,1.0,1.0,
339,10.0,decreament,0.6,100.0,standard,21.0,1.0,1.0,
340,10.0,decreament,0.6,100.0,standard,21.0,1.0,1.0,
341,10.0,decreament,0.6,100.0,standard,21.0,1.0,1.0,
342,10.0,decreament,0.6,100.0,standard,21.0,1.0,1.0,
343,10.0,decreament,0.6,100.0,standard,21.0,1.0,1.0,
344,10.0,decreament,0.6,100.0,standard,21.0,1.0,1.0,
345,10.0,decreament,0.6,100.0,standard,21.0,1.0,1.0,
346,10.0,decreament,0.6,100.0,standard,21.0,1.0,1.0,
347,10.0,decreament,0.6,100.0,standard,21.0,1.0,1.0,
348,10.0,decreament,0.6,100.0,standard,21.0,1.0,1.0,
349,10.0,decreament,0.6,100.0,standard,21.0,1.0,1.0,
350,10.0,decreament,0.6,100.0,standard,21.0,1.0,1.0,
351,10.0,decreament,0.6,100.0,standard,21.0,1.0,1.0,
352,10.0,decreament,0.6,100.0,standard,21.0,1.0,1.0,
353,10.0,decreament,0.36,60.0,oddball,23.0,1.0,1.0,0.9065560000017284
354,10.0,decreament,0.6,100.0,standard,21.0,1.0,1.0,
355,10.0,decreament,0.6,100.0,standard,21.0,1.0,1.0,
356,10.0,decreament,0.6,100.0,standard,21.0,1.0,1.0,
357,10.0,decreament,0.6,100.0,standard,21.0,1.0,1.0,
358,10.0,decreament,0.48,80.0,oddball,24.0,1.0,0.0,
359,10.0,decreament,0.6,100.0,standard,21.0,1.0,1.0,
360,10.0,increament,0.6,100.0,standard,25.0,1.0,1.0,
361,10.0,increament,0.6,100.0,standard,25.0,1.0,1.0,
362,10.0,increament,0.6,100.0,standard,25.0,1.0,1.0,
363,10.0,increament,0.6,100.0,standard,25.0,1.0,1.0,
364,10.0,increament,0.6,100.0,standard,25.0,1.0,1.0,
365,10.0,increament,0.6,100.0,standard,25.0,1.0,1.0,
366,10.0,increament,0.6,100.0,standard,25.0,1.0,1.0,
367,10.0,increament,0.6,100.0,standard,25.0,1.0,1.0,
368,10.0,increament,0.6,100.0,standard,25.0,1.0,1.0,
369,10.0,increament,0.6,100.0,standard,25.0,1.0,1.0,
370,10.0,increament,0.6,100.0,standard,25.0,1.0,1.0,
371,10.0,increament,0.6,100.0,standard,25.0,1.0,1.0,
372,10.0,increament,0.6,100.0,standard,25.0,1.0,1.0,
373,10.0,increament,0.6,100.0,standard,25.0,1.0,1.0,
374,10.0,increament,0.6,100.0,standard,25.0,1.0,1.0,
375,10.0,increament,0.6,100.0,standard,25.0,1.0,1.0,
376,10.0,increament,0.6,100.0,standard,25.0,1.0,1.0,
377,10.0,increament,0.6,100.0,standard,25.0,1.0,1.0,
378,10.0,increament,0.6,100.0,standard,25.0,1.0,1.0,
379,10.0,increament,0.96,160.0,oddball,28.0,1.0,1.0,0.5107633001171052
380,10.0,increament,0.6,100.0,standard,25.0,1.0,1.0,
381,10.0,increament,0.6,100.0,standard,25.0,1.0,1.0,
382,10.0,increament,0.6,100.0,standard,25.0,1.0,1.0,
383,10.0,increament,0.6,100.0,standard,25.0,1.0,1.0,
384,10.0,increament,0.72,120.0,oddball,26.0,1.0,0.0,
385,10.0,increament,0.6,100.0,standard,25.0,1.0,1.0,
386,10.0,increament,0.6,100.0,standard,25.0,1.0,1.0,
387,10.0,increament,0.6,100.0,standard,25.0,1.0,1.0,
388,10.0,increament,0.6,100.0,standard,25.0,1.0,1.0,
389,10.0,increament,0.84,140.0,oddball,27.0,1.0,1.0,0.9035139000043272
390,10.0,decreament,0.6,100.0,standard,21.0,1.0,1.0,
391,10.0,decreament,0.6,100.0,standard,21.0,1.0,1.0,
392,10.0,decreament,0.6,100.0,standard,21.0,1.0,1.0,
393,10.0,decreament,0.6,100.0,standard,21.0,1.0,1.0,
394,10.0,decreament,0.6,100.0,standard,21.0,1.0,1.0,
395,10.0,decreament,0.6,100.0,standard,21.0,1.0,1.0,
396,10.0,decreament,0.24,40.0,oddball,22.0,1.0,1.0,0.6902621006593108
397,10.0,decreament,0.6,100.0,standard,21.0,1.0,1.0,
398,10.0,decreament,0.6,100.0,standard,21.0,1.0,1.0,
399,10.0,decreament,0.6,100.0,standard,21.0,1.0,1.0,
400,10.0,decreament,0.6,100.0,standard,21.0,1.0,1.0,
401,10.0,decreament,0.6,100.0,standard,21.0,1.0,1.0,
402,10.0,decreament,0.36,60.0,oddball,23.0,1.0,1.0,0.6491246004588902
403,10.0,decreament,0.6,100.0,standard,21.0,1.0,1.0,
404,10.0,decreament,0.6,100.0,standard,21.0,1.0,1.0,
405,10.0,decreament,0.6,100.0,standard,21.0,1.0,1.0,
406,10.0,decreament,0.6,100.0,standard,21.0,1.0,1.0,
407,10.0,decreament,0.6,100.0,standard,21.0,1.0,1.0,
408,10.0,decreament,0.6,100.0,standard,21.0,1.0,1.0,
409,10.0,decreament,0.6,100.0,standard,21.0,1.0,1.0,
410,10.0,decreament,0.6,100.0,standard,21.0,1.0,1.0,
411,10.0,decreament,0.6,100.0,standard,21.0,1.0,1.0,
412,10.0,decreament,0.6,100.0,standard,21.0,1.0,1.0,
413,10.0,decreament,0.6,100.0,standard,21.0,1.0,1.0,
414,10.0,decreament,0.6,100.0,standard,21.0,1.0,1.0,
415,10.0,decreament,0.6,100.0,standard,21.0,1.0,1.0,
416,10.0,decreament,0.6,100.0,standard,21.0,1.0,1.0,
417,10.0,decreament,0.6,100.0,standard,21.0,1.0,1.0,
418,10.0,decreament,0.6,100.0,standard,21.0,1.0,1.0,
419,10.0,decreament,0.48,80.0,oddball,24.0,1.0,1.0,0.8427410004660487
420,10.0,increament,0.6,100.0,standard,25.0,1.0,1.0,
421,10.0,increament,0.6,100.0,standard,25.0,1.0,1.0,
422,10.0,increament,0.6,100.0,standard,25.0,1.0,1.0,
423,10.0,increament,0.6,100.0,standard,25.0,1.0,1.0,
424,10.0,increament,0.6,100.0,standard,25.0,1.0,1.0,
425,10.0,increament,0.6,100.0,standard,25.0,1.0,1.0,
426,10.0,increament,0.6,100.0,standard,25.0,1.0,1.0,
427,10.0,increament,0.6,100.0,standard,25.0,1.0,1.0,
428,10.0,increament,0.6,100.0,standard,25.0,1.0,1.0,
429,10.0,increament,0.6,100.0,standard,25.0,1.0,1.0,
430,10.0,increament,0.84,140.0,oddball,27.0,1.0,1.0,0.5225213002413511
431,10.0,increament,0.6,100.0,standard,25.0,1.0,1.0,
432,10.0,increament,0.6,100.0,standard,25.0,1.0,1.0,
433,10.0,increament,0.6,100.0,standard,25.0,1.0,1.0,
434,10.0,increament,0.6,100.0,standard,25.0,1.0,1.0,
435,10.0,increament,0.6,100.0,standard,25.0,1.0,1.0,
436,10.0,increament,0.6,100.0,standard,25.0,1.0,1.0,
437,10.0,increament,0.6,100.0,standard,25.0,1.0,1.0,
438,10.0,increament,0.96,160.0,oddball,28.0,1.0,1.0,0.5206281007267535
439,10.0,increament,0.6,100.0,standard,25.0,1.0,1.0,
440,10.0,increament,0.6,100.0,standard,25.0,1.0,1.0,
441,10.0,increament,0.6,100.0,standard,25.0,1.0,1.0,
442,10.0,increament,0.6,100.0,standard,25.0,1.0,1.0,
443,10.0,increament,0.72,120.0,oddball,26.0,1.0,0.0,
444,10.0,increament,0.6,100.0,standard,25.0,1.0,1.0,
445,10.0,increament,0.6,100.0,standard,25.0,1.0,1.0,
446,10.0,increament,0.6,100.0,standard,25.0,1.0,1.0,
447,10.0,increament,0.6,100.0,standard,25.0,1.0,1.0,
448,10.0,increament,0.6,100.0,standard,25.0,1.0,1.0,
449,10.0,increament,0.6,100.0,standard,25.0,1.0,1.0,
450,10.0,decreament,0.6,100.0,standard,21.0,1.0,1.0,
451,10.0,decreament,0.6,100.0,standard,21.0,1.0,1.0,
452,10.0,decreament,0.6,100.0,standard,21.0,1.0,1.0,
453,10.0,decreament,0.6,100.0,standard,21.0,1.0,1.0,
454,10.0,decreament,0.6,100.0,standard,21.0,1.0,1.0,
455,10.0,decreament,0.6,100.0,standard,21.0,1.0,1.0,
456,10.0,decreament,0.36,60.0,oddball,23.0,1.0,1.0,0.9604666004888712
457,10.0,decreament,0.6,100.0,standard,21.0,1.0,1.0,
458,10.0,decreament,0.6,100.0,standard,21.0,1.0,1.0,
459,10.0,decreament,0.6,100.0,standard,21.0,1.0,1.0,
460,10.0,decreament,0.6,100.0,standard,21.0,1.0,1.0,
461,10.0,decreament,0.6,100.0,standard,21.0,1.0,1.0,
462,10.0,decreament,0.6,100.0,standard,21.0,1.0,1.0,
463,10.0,decreament,0.6,100.0,standard,21.0,1.0,1.0,
464,10.0,decreament,0.6,100.0,standard,21.0,1.0,1.0,
465,10.0,decreament,0.6,100.0,standard,21.0,1.0,1.0,
466,10.0,decreament,0.6,100.0,standard,21.0,1.0,1.0,
467,10.0,decreament,0.6,100.0,standard,21.0,1.0,1.0,
468,10.0,decreament,0.6,100.0,standard,21.0,1.0,1.0,
469,10.0,decreament,0.6,100.0,standard,21.0,1.0,1.0,
470,10.0,decreament,0.48,80.0,oddball,24.0,1.0,0.0,
471,10.0,decreament,0.6,100.0,standard,21.0,1.0,1.0,
472,10.0,decreament,0.6,100.0,standard,21.0,1.0,1.0,
473,10.0,decreament,0.6,100.0,standard,21.0,1.0,1.0,
474,10.0,decreament,0.6,100.0,standard,21.0,1.0,1.0,
475,10.0,decreament,0.6,100.0,standard,21.0,1.0,1.0,
476,10.0,decreament,0.24,40.0,oddball,22.0,1.0,1.0,0.7019526003859937
477,10.0,decreament,0.6,100.0,standard,21.0,1.0,1.0,
478,10.0,decreament,0.6,100.0,standard,21.0,1.0,1.0,
479,10.0,decreament,0.6,100.0,standard,21.0,1.0,1.0,
480,10.0,increament,0.6,100.0,standard,25.0,1.0,1.0,
481,10.0,increament,0.6,100.0,standard,25.0,1.0,1.0,
482,10.0,increament,0.6,100.0,standard,25.0,1.0,1.0,
483,10.0,increament,0.6,100.0,standard,25.0,1.0,1.0,
484,10.0,increament,0.6,100.0,standard,25.0,1.0,1.0,
485,10.0,increament,0.72,120.0,oddball,26.0,1.0,0.0,
486,10.0,increament,0.6,100.0,standard,25.0,1.0,1.0,
487,10.0,increament,0.6,100.0,standard,25.0,1.0,1.0,
488,10.0,increament,0.6,100.0,standard,25.0,1.0,1.0,
489,10.0,increament,0.6,100.0,standard,25.0,1.0,1.0,
490,10.0,increament,0.6,100.0,standard,25.0,1.0,1.0,
491,10.0,increament,0.6,100.0,standard,25.0,1.0,1.0,
492,10.0,increament,0.6,100.0,standard,25.0,1.0,1.0,
493,10.0,increament,0.6,100.0,standard,25.0,1.0,1.0,
494,10.0,increament,0.96,160.0,oddball,28.0,1.0,1.0,0.4275680002756417
495,10.0,increament,0.6,100.0,standard,25.0,1.0,1.0,
496,10.0,increament,0.6,100.0,standard,25.0,1.0,1.0,
497,10.0,increament,0.6,100.0,standard,25.0,1.0,1.0,
498,10.0,increament,0.6,100.0,standard,25.0,1.0,1.0,
499,10.0,increament,0.6,100.0,standard,25.0,1.0,1.0,
500,10.0,increament,0.6,100.0,standard,25.0,1.0,1.0,
501,10.0,increament,0.6,100.0,standard,25.0,1.0,1.0,
502,10.0,increament,0.84,140.0,oddball,27.0,1.0,1.0,0.690134400036186
503,10.0,increament,0.6,100.0,standard,25.0,1.0,1.0,
504,10.0,increament,0.6,100.0,standard,25.0,1.0,1.0,
505,10.0,increament,0.6,100.0,standard,25.0,1.0,1.0,
506,10.0,increament,0.6,100.0,standard,25.0,1.0,1.0,
507,10.0,increament,0.6,100.0,standard,25.0,1.0,1.0,
508,10.0,increament,0.6,100.0,standard,25.0,1.0,1.0,
509,10.0,increament,0.6,100.0,standard,25.0,1.0,1.0,
510,10.0,decreament,0.6,100.0,standard,21.0,1.0,1.0,
511,10.0,decreament,0.6,100.0,standard,21.0,1.0,1.0,
512,10.0,decreament,0.6,100.0,standard,21.0,1.0,1.0,
513,10.0,decreament,0.6,100.0,standard,21.0,1.0,1.0,
514,10.0,decreament,0.6,100.0,standard,21.0,1.0,1.0,
515,10.0,decreament,0.6,100.0,standard,21.0,1.0,1.0,
516,10.0,decreament,0.24,40.0,oddball,22.0,1.0,1.0,0.7488196003250778
517,10.0,decreament,0.6,100.0,standard,21.0,1.0,1.0,
518,10.0,decreament,0.6,100.0,standard,21.0,1.0,1.0,
519,10.0,decreament,0.6,100.0,standard,21.0,1.0,1.0,
520,10.0,decreament,0.6,100.0,standard,21.0,1.0,1.0,
521,10.0,decreament,0.6,100.0,standard,21.0,1.0,1.0,
522,10.0,decreament,0.6,100.0,standard,21.0,1.0,1.0,
523,10.0,decreament,0.36,60.0,oddball,23.0,1.0,1.0,0.8127581002190709
524,10.0,decreament,0.6,100.0,standard,21.0,1.0,1.0,
525,10.0,decreament,0.6,100.0,standard,21.0,1.0,1.0,
526,10.0,decreament,0.6,100.0,standard,21.0,1.0,1.0,
527,10.0,decreament,0.6,100.0,standard,21.0,1.0,1.0,
528,10.0,decreament,0.6,100.0,standard,21.0,1.0,1.0,
529,10.0,decreament,0.6,100.0,standard,21.0,1.0,1.0,
530,10.0,decreament,0.6,100.0,standard,21.0,1.0,1.0,
531,10.0,decreament,0.6,100.0,standard,21.0,1.0,1.0,
532,10.0,decreament,0.48,80.0,oddball,24.0,1.0,0.0,
533,10.0,decreament,0.6,100.0,standard,21.0,1.0,1.0,
534,10.0,decreament,0.6,100.0,standard,21.0,1.0,1.0,
535,10.0,decreament,0.6,100.0,standard,21.0,1.0,1.0,
536,10.0,decreament,0.6,100.0,standard,21.0,1.0,1.0,
537,10.0,decreament,0.6,100.0,standard,21.0,1.0,1.0,
538,10.0,decreament,0.6,100.0,standard,21.0,1.0,1.0,
539,10.0,decreament,0.6,100.0,standard,21.0,1.0,1.0,
540,10.0,increament,0.6,100.0,standard,25.0,1.0,1.0,
541,10.0,increament,0.6,100.0,standard,25.0,1.0,1.0,
542,10.0,increament,0.6,100.0,standard,25.0,1.0,1.0,
543,10.0,increament,0.6,100.0,standard,25.0,1.0,1.0,
544,10.0,increament,0.6,100.0,standard,25.0,1.0,1.0,
545,10.0,increament,0.6,100.0,standard,25.0,1.0,1.0,
546,10.0,increament,0.96,160.0,oddball,28.0,1.0,1.0,0.5388150005601346
547,10.0,increament,0.6,100.0,standard,25.0,1.0,1.0,
548,10.0,increament,0.6,100.0,standard,25.0,1.0,1.0,
549,10.0,increament,0.6,100.0,standard,25.0,1.0,1.0,
550,10.0,increament,0.6,100.0,standard,25.0,1.0,1.0,
551,10.0,increament,0.6,100.0,standard,25.0,1.0,1.0,
552,10.0,increament,0.6,100.0,standard,25.0,1.0,1.0,
553,10.0,increament,0.6,100.0,standard,25.0,1.0,1.0,
554,10.0,increament,0.6,100.0,standard,25.0,1.0,1.0,
555,10.0,increament,0.6,100.0,standard,25.0,1.0,1.0,
556,10.0,increament,0.84,140.0,oddball,27.0,1.0,1.0,0.6623150003142655
557,10.0,increament,0.6,100.0,standard,25.0,1.0,1.0,
558,10.0,increament,0.6,100.0,standard,25.0,1.0,1.0,
559,10.0,increament,0.6,100.0,standard,25.0,1.0,1.0,
560,10.0,increament,0.6,100.0,standard,25.0,1.0,1.0,
561,10.0,increament,0.6,100.0,standard,25.0,1.0,1.0,
562,10.0,increament,0.6,100.0,standard,25.0,1.0,1.0,
563,10.0,increament,0.6,100.0,standard,25.0,1.0,1.0,
564,10.0,increament,0.6,100.0,standard,25.0,1.0,1.0,
565,10.0,increament,0.6,100.0,standard,25.0,1.0,1.0,
566,10.0,increament,0.6,100.0,standard,25.0,1.0,1.0,
567,10.0,increament,0.6,100.0,standard,25.0,1.0,1.0,
568,10.0,increament,0.6,100.0,standard,25.0,1.0,1.0,
569,10.0,increament,0.72,120.0,oddball,26.0,1.0,0.0,
570,10.0,decreament,0.6,100.0,standard,21.0,1.0,1.0,
571,10.0,decreament,0.6,100.0,standard,21.0,1.0,1.0,
572,10.0,decreament,0.6,100.0,standard,21.0,1.0,1.0,
573,10.0,decreament,0.6,100.0,standard,21.0,1.0,1.0,
574,10.0,decreament,0.6,100.0,standard,21.0,1.0,1.0,
575,10.0,decreament,0.24,40.0,oddball,22.0,1.0,1.0,0.6975020002573729
576,10.0,decreament,0.6,100.0,standard,21.0,1.0,1.0,
577,10.0,decreament,0.6,100.0,standard,21.0,1.0,1.0,
578,10.0,decreament,0.6,100.0,standard,21.0,1.0,1.0,
579,10.0,decreament,0.48,80.0,oddball,24.0,1.0,0.0,
580,10.0,decreament,0.6,100.0,standard,21.0,1.0,1.0,
581,10.0,decreament,0.6,100.0,standard,21.0,1.0,1.0,
582,10.0,decreament,0.6,100.0,standard,21.0,1.0,1.0,
583,10.0,decreament,0.6,100.0,standard,21.0,1.0,1.0,
584,10.0,decreament,0.6,100.0,standard,21.0,1.0,1.0,
585,10.0,decreament,0.6,100.0,standard,21.0,1.0,1.0,
586,10.0,decreament,0.6,100.0,standard,21.0,1.0,1.0,
587,10.0,decreament,0.6,100.0,standard,21.0,1.0,1.0,
588,10.0,decreament,0.6,100.0,standard,21.0,1.0,1.0,
589,10.0,decreament,0.6,100.0,standard,21.0,1.0,1.0,
590,10.0,decreament,0.6,100.0,standard,21.0,1.0,1.0,
591,10.0,decreament,0.36,60.0,oddball,23.0,1.0,0.0,
592,10.0,decreament,0.6,100.0,standard,21.0,1.0,1.0,
593,10.0,decreament,0.6,100.0,standard,21.0,1.0,1.0,
594,10.0,decreament,0.6,100.0,standard,21.0,1.0,1.0,
595,10.0,decreament,0.6,100.0,standard,21.0,1.0,1.0,
596,10.0,decreament,0.6,100.0,standard,21.0,1.0,1.0,
597,10.0,decreament,0.6,100.0,standard,21.0,1.0,1.0,
598,10.0,decreament,0.6,100.0,standard,21.0,1.0,1.0,
599,10.0,decreament,0.6,100.0,standard,21.0,1.0,1.0,
600,5.0,increament,0.6,100.0,standard,15.0,2.0,1.0,
601,5.0,increament,0.6,100.0,standard,15.0,2.0,1.0,
602,5.0,increament,0.6,100.0,standard,15.0,2.0,1.0,
603,5.0,increament,0.6,100.0,standard,15.0,2.0,1.0,
604,5.0,increament,0.6,100.0,standard,15.0,2.0,1.0,
605,5.0,increament,0.6,100.0,standard,15.0,2.0,1.0,
606,5.0,increament,0.6,100.0,standard,15.0,2.0,1.0,
607,5.0,increament,0.96,160.0,oddball,18.0,2.0,1.0,0.5027793003246188
608,5.0,increament,0.6,100.0,standard,15.0,2.0,1.0,
609,5.0,increament,0.6,100.0,standard,15.0,2.0,1.0,
610,5.0,increament,0.6,100.0,standard,15.0,2.0,1.0,
611,5.0,increament,0.6,100.0,standard,15.0,2.0,1.0,
612,5.0,increament,0.6,100.0,standard,15.0,2.0,1.0,
613,5.0,increament,0.72,120.0,oddball,16.0,2.0,0.0,
614,5.0,increament,0.6,100.0,standard,15.0,2.0,1.0,
615,5.0,increament,0.6,100.0,standard,15.0,2.0,1.0,
616,5.0,increament,0.6,100.0,standard,15.0,2.0,1.0,
617,5.0,increament,0.6,100.0,standard,15.0,2.0,1.0,
618,5.0,increament,0.6,100.0,standard,15.0,2.0,1.0,
619,5.0,increament,0.6,100.0,standard,15.0,2.0,1.0,
620,5.0,increament,0.6,100.0,standard,15.0,2.0,1.0,
621,5.0,increament,0.6,100.0,standard,15.0,2.0,1.0,
622,5.0,increament,0.6,100.0,standard,15.0,2.0,1.0,
623,5.0,increament,0.6,100.0,standard,15.0,2.0,1.0,
624,5.0,increament,0.6,100.0,standard,15.0,2.0,1.0,
625,5.0,increament,0.6,100.0,standard,15.0,2.0,1.0,
626,5.0,increament,0.84,140.0,oddball,17.0,2.0,1.0,0.6697811000049114
627,5.0,increament,0.6,100.0,standard,15.0,2.0,1.0,
628,5.0,increament,0.6,100.0,standard,15.0,2.0,1.0,
629,5.0,increament,0.6,100.0,standard,15.0,2.0,1.0,
630,5.0,decreament,0.6,100.0,standard,11.0,2.0,1.0,
631,5.0,decreament,0.6,100.0,standard,11.0,2.0,1.0,
632,5.0,decreament,0.6,100.0,standard,11.0,2.0,1.0,
633,5.0,decreament,0.6,100.0,standard,11.0,2.0,1.0,
634,5.0,decreament,0.6,100.0,standard,11.0,2.0,1.0,
635,5.0,decreament,0.6,100.0,standard,11.0,2.0,1.0,
636,5.0,decreament,0.6,100.0,standard,11.0,2.0,1.0,
637,5.0,decreament,0.6,100.0,standard,11.0,2.0,1.0,
638,5.0,decreament,0.6,100.0,standard,11.0,2.0,1.0,
639,5.0,decreament,0.6,100.0,standard,11.0,2.0,1.0,
640,5.0,decreament,0.36,60.0,oddball,13.0,2.0,1.0,0.7192460005171597
641,5.0,decreament,0.6,100.0,standard,11.0,2.0,1.0,
642,5.0,decreament,0.6,100.0,standard,11.0,2.0,1.0,
643,5.0,decreament,0.6,100.0,standard,11.0,2.0,1.0,
644,5.0,decreament,0.24,40.0,oddball,12.0,2.0,1.0,0.7070221002213657
645,5.0,decreament,0.6,100.0,standard,11.0,2.0,1.0,
646,5.0,decreament,0.6,100.0,standard,11.0,2.0,1.0,
647,5.0,decreament,0.6,100.0,standard,11.0,2.0,1.0,
648,5.0,decreament,0.6,100.0,standard,11.0,2.0,1.0,
649,5.0,decreament,0.6,100.0,standard,11.0,2.0,1.0,
650,5.0,decreament,0.6,100.0,standard,11.0,2.0,1.0,
651,5.0,decreament,0.6,100.0,standard,11.0,2.0,1.0,
652,5.0,decreament,0.6,100.0,standard,11.0,2.0,1.0,
653,5.0,decreament,0.6,100.0,standard,11.0,2.0,1.0,
654,5.0,decreament,0.6,100.0,standard,11.0,2.0,1.0,
655,5.0,decreament,0.48,80.0,oddball,14.0,2.0,0.0,
656,5.0,decreament,0.6,100.0,standard,11.0,2.0,1.0,
657,5.0,decreament,0.6,100.0,standard,11.0,2.0,1.0,
658,5.0,decreament,0.6,100.0,standard,11.0,2.0,1.0,
659,5.0,decreament,0.6,100.0,standard,11.0,2.0,1.0,
660,5.0,increament,0.6,100.0,standard,15.0,2.0,1.0,
661,5.0,increament,0.6,100.0,standard,15.0,2.0,1.0,
662,5.0,increament,0.6,100.0,standard,15.0,2.0,1.0,
663,5.0,increament,0.6,100.0,standard,15.0,2.0,1.0,
664,5.0,increament,0.6,100.0,standard,15.0,2.0,1.0,
665,5.0,increament,0.72,120.0,oddball,16.0,2.0,0.0,
666,5.0,increament,0.6,100.0,standard,15.0,2.0,1.0,
667,5.0,increament,0.6,100.0,standard,15.0,2.0,1.0,
668,5.0,increament,0.6,100.0,standard,15.0,2.0,1.0,
669,5.0,increament,0.6,100.0,standard,15.0,2.0,1.0,
670,5.0,increament,0.6,100.0,standard,15.0,2.0,1.0,
671,5.0,increament,0.6,100.0,standard,15.0,2.0,1.0,
672,5.0,increament,0.6,100.0,standard,15.0,2.0,1.0,
673,5.0,increament,0.6,100.0,standard,15.0,2.0,1.0,
674,5.0,increament,0.6,100.0,standard,15.0,2.0,1.0,
675,5.0,increament,0.6,100.0,standard,15.0,2.0,1.0,
676,5.0,increament,0.6,100.0,standard,15.0,2.0,1.0,
677,5.0,increament,0.6,100.0,standard,15.0,2.0,1.0,
678,5.0,increament,0.96,160.0,oddball,18.0,2.0,1.0,0.4398893001489341
679,5.0,increament,0.6,100.0,standard,15.0,2.0,1.0,
680,5.0,increament,0.6,100.0,standard,15.0,2.0,1.0,
681,5.0,increament,0.6,100.0,standard,15.0,2.0,1.0,
682,5.0,increament,0.6,100.0,standard,15.0,2.0,1.0,
683,5.0,increament,0.6,100.0,standard,15.0,2.0,1.0,
684,5.0,increament,0.6,100.0,standard,15.0,2.0,1.0,
685,5.0,increament,0.84,140.0,oddball,17.0,2.0,0.0,
686,5.0,increament,0.6,100.0,standard,15.0,2.0,1.0,
687,5.0,increament,0.6,100.0,standard,15.0,2.0,1.0,
688,5.0,increament,0.6,100.0,standard,15.0,2.0,1.0,
689,5.0,increament,0.6,100.0,standard,15.0,2.0,1.0,
690,5.0,decreament,0.6,100.0,standard,11.0,2.0,1.0,
691,5.0,decreament,0.6,100.0,standard,11.0,2.0,1.0,
692,5.0,decreament,0.6,100.0,standard,11.0,2.0,1.0,
693,5.0,decreament,0.6,100.0,standard,11.0,2.0,1.0,
694,5.0,decreament,0.6,100.0,standard,11.0,2.0,1.0,
695,5.0,decreament,0.24,40.0,oddball,12.0,2.0,1.0,0.7061568005010486
696,5.0,decreament,0.6,100.0,standard,11.0,2.0,1.0,
697,5.0,decreament,0.6,100.0,standard,11.0,2.0,1.0,
698,5.0,decreament,0.6,100.0,standard,11.0,2.0,1.0,
699,5.0,decreament,0.6,100.0,standard,11.0,2.0,1.0,
700,5.0,decreament,0.6,100.0,standard,11.0,2.0,1.0,
701,5.0,decreament,0.6,100.0,standard,11.0,2.0,1.0,
702,5.0,decreament,0.6,100.0,standard,11.0,2.0,1.0,
703,5.0,decreament,0.36,60.0,oddball,13.0,2.0,0.0,
704,5.0,decreament,0.6,100.0,standard,11.0,2.0,1.0,
705,5.0,decreament,0.6,100.0,standard,11.0,2.0,1.0,
706,5.0,decreament,0.6,100.0,standard,11.0,2.0,1.0,
707,5.0,decreament,0.48,80.0,oddball,14.0,2.0,0.0,
708,5.0,decreament,0.6,100.0,standard,11.0,2.0,1.0,
709,5.0,decreament,0.6,100.0,standard,11.0,2.0,1.0,
710,5.0,decreament,0.6,100.0,standard,11.0,2.0,1.0,
711,5.0,decreament,0.6,100.0,standard,11.0,2.0,1.0,
712,5.0,decreament,0.6,100.0,standard,11.0,2.0,1.0,
713,5.0,decreament,0.6,100.0,standard,11.0,2.0,1.0,
714,5.0,decreament,0.6,100.0,standard,11.0,2.0,1.0,
715,5.0,decreament,0.6,100.0,standard,11.0,2.0,1.0,
716,5.0,decreament,0.6,100.0,standard,11.0,2.0,1.0,
717,5.0,decreament,0.6,100.0,standard,11.0,2.0,1.0,
718,5.0,decreament,0.6,100.0,standard,11.0,2.0,1.0,
719,5.0,decreament,0.6,100.0,standard,11.0,2.0,1.0,
720,5.0,increament,0.6,100.0,standard,15.0,2.0,1.0,
721,5.0,increament,0.6,100.0,standard,15.0,2.0,1.0,
722,5.0,increament,0.6,100.0,standard,15.0,2.0,1.0,
723,5.0,increament,0.6,100.0,standard,15.0,2.0,1.0,
724,5.0,increament,0.6,100.0,standard,15.0,2.0,1.0,
725,5.0,increament,0.6,100.0,standard,15.0,2.0,1.0,
726,5.0,increament,0.6,100.0,standard,15.0,2.0,1.0,
727,5.0,increament,0.6,100.0,standard,15.0,2.0,1.0,
728,5.0,increament,0.6,100.0,standard,15.0,2.0,1.0,
729,5.0,increament,0.72,120.0,oddball,16.0,2.0,1.0,0.902706800494343
730,5.0,increament,0.6,100.0,standard,15.0,2.0,1.0,
731,5.0,increament,0.6,100.0,standard,15.0,2.0,1.0,
732,5.0,increament,0.6,100.0,standard,15.0,2.0,1.0,
733,5.0,increament,0.6,100.0,standard,15.0,2.0,1.0,
734,5.0,increament,0.6,100.0,standard,15.0,2.0,1.0,
735,5.0,increament,0.6,100.0,standard,15.0,2.0,1.0,
736,5.0,increament,0.84,140.0,oddball,17.0,2.0,1.0,0.5453300001099706
737,5.0,increament,0.6,100.0,standard,15.0,2.0,1.0,
738,5.0,increament,0.6,100.0,standard,15.0,2.0,1.0,
739,5.0,increament,0.6,100.0,standard,15.0,2.0,1.0,
740,5.0,increament,0.6,100.0,standard,15.0,2.0,1.0,
741,5.0,increament,0.96,160.0,oddball,18.0,2.0,0.0,
742,5.0,increament,0.6,100.0,standard,15.0,2.0,1.0,
743,5.0,increament,0.6,100.0,standard,15.0,2.0,1.0,
744,5.0,increament,0.6,100.0,standard,15.0,2.0,1.0,
745,5.0,increament,0.6,100.0,standard,15.0,2.0,1.0,
746,5.0,increament,0.6,100.0,standard,15.0,2.0,1.0,
747,5.0,increament,0.6,100.0,standard,15.0,2.0,1.0,
748,5.0,increament,0.6,100.0,standard,15.0,2.0,1.0,
749,5.0,increament,0.6,100.0,standard,15.0,2.0,1.0,
750,5.0,decreament,0.6,100.0,standard,11.0,2.0,1.0,
751,5.0,decreament,0.6,100.0,standard,11.0,2.0,1.0,
752,5.0,decreament,0.6,100.0,standard,11.0,2.0,1.0,
753,5.0,decreament,0.6,100.0,standard,11.0,2.0,1.0,
754,5.0,decreament,0.6,100.0,standard,11.0,2.0,1.0,
755,5.0,decreament,0.6,100.0,standard,11.0,2.0,1.0,
756,5.0,decreament,0.6,100.0,standard,11.0,2.0,1.0,
757,5.0,decreament,0.6,100.0,standard,11.0,2.0,1.0,
758,5.0,decreament,0.6,100.0,standard,11.0,2.0,1.0,
759,5.0,decreament,0.6,100.0,standard,11.0,2.0,1.0,
760,5.0,decreament,0.24,40.0,oddball,12.0,2.0,1.0,0.7409742004238069
761,5.0,decreament,0.6,100.0,standard,11.0,2.0,1.0,
762,5.0,decreament,0.6,100.0,standard,11.0,2.0,1.0,
763,5.0,decreament,0.6,100.0,standard,11.0,2.0,1.0,
764,5.0,decreament,0.6,100.0,standard,11.0,2.0,1.0,
765,5.0,decreament,0.6,100.0,standard,11.0,2.0,1.0,
766,5.0,decreament,0.6,100.0,standard,11.0,2.0,1.0,
767,5.0,decreament,0.6,100.0,standard,11.0,2.0,1.0,
768,5.0,decreament,0.48,80.0,oddball,14.0,2.0,0.0,
769,5.0,decreament,0.6,100.0,standard,11.0,2.0,1.0,
770,5.0,decreament,0.6,100.0,standard,11.0,2.0,1.0,
771,5.0,decreament,0.6,100.0,standard,11.0,2.0,1.0,
772,5.0,decreament,0.6,100.0,standard,11.0,2.0,1.0,
773,5.0,decreament,0.36,60.0,oddball,13.0,2.0,1.0,0.9288323004730046
774,5.0,decreament,0.6,100.0,standard,11.0,2.0,1.0,
775,5.0,decreament,0.6,100.0,standard,11.0,2.0,1.0,
776,5.0,decreament,0.6,100.0,standard,11.0,2.0,1.0,
777,5.0,decreament,0.6,100.0,standard,11.0,2.0,1.0,
778,5.0,decreament,0.6,100.0,standard,11.0,2.0,1.0,
779,5.0,decreament,0.6,100.0,standard,11.0,2.0,1.0,
780,5.0,increament,0.6,100.0,standard,15.0,2.0,1.0,
781,5.0,increament,0.6,100.0,standard,15.0,2.0,1.0,
782,5.0,increament,0.6,100.0,standard,15.0,2.0,1.0,
783,5.0,increament,0.6,100.0,standard,15.0,2.0,1.0,
784,5.0,increament,0.6,100.0,standard,15.0,2.0,1.0,
785,5.0,increament,0.6,100.0,standard,15.0,2.0,1.0,
786,5.0,increament,0.72,120.0,oddball,16.0,2.0,0.0,
787,5.0,increament,0.6,100.0,standard,15.0,2.0,1.0,
788,5.0,increament,0.6,100.0,standard,15.0,2.0,1.0,
789,5.0,increament,0.6,100.0,standard,15.0,2.0,1.0,
790,5.0,increament,0.6,100.0,standard,15.0,2.0,1.0,
791,5.0,increament,0.6,100.0,standard,15.0,2.0,1.0,
792,5.0,increament,0.6,100.0,standard,15.0,2.0,1.0,
793,5.0,increament,0.6,100.0,standard,15.0,2.0,1.0,
794,5.0,increament,0.6,100.0,standard,15.0,2.0,1.0,
795,5.0,increament,0.84,140.0,oddball,17.0,2.0,0.0,
796,5.0,increament,0.6,100.0,standard,15.0,2.0,1.0,
797,5.0,increament,0.6,100.0,standard,15.0,2.0,1.0,
798,5.0,increament,0.6,100.0,standard,15.0,2.0,1.0,
799,5.0,increament,0.6,100.0,standard,15.0,2.0,1.0,
800,5.0,increament,0.6,100.0,standard,15.0,2.0,1.0,
801,5.0,increament,0.96,160.0,oddball,18.0,2.0,1.0,0.6394274006597698
802,5.0,increament,0.6,100.0,standard,15.0,2.0,1.0,
803,5.0,increament,0.6,100.0,standard,15.0,2.0,1.0,
804,5.0,increament,0.6,100.0,standard,15.0,2.0,1.0,
805,5.0,increament,0.6,100.0,standard,15.0,2.0,1.0,
806,5.0,increament,0.6,100.0,standard,15.0,2.0,1.0,
807,5.0,increament,0.6,100.0,standard,15.0,2.0,1.0,
808,5.0,increament,0.6,100.0,standard,15.0,2.0,1.0,
809,5.0,increament,0.6,100.0,standard,15.0,2.0,1.0,
810,5.0,decreament,0.6,100.0,standard,11.0,2.0,1.0,
811,5.0,decreament,0.6,100.0,standard,11.0,2.0,1.0,
812,5.0,decreament,0.6,100.0,standard,11.0,2.0,1.0,
813,5.0,decreament,0.6,100.0,standard,11.0,2.0,1.0,
814,5.0,decreament,0.6,100.0,standard,11.0,2.0,1.0,
815,5.0,decreament,0.6,100.0,standard,11.0,2.0,1.0,
816,5.0,decreament,0.6,100.0,standard,11.0,2.0,1.0,
817,5.0,decreament,0.6,100.0,standard,11.0,2.0,1.0,
818,5.0,decreament,0.6,100.0,standard,11.0,2.0,1.0,
819,5.0,decreament,0.6,100.0,standard,11.0,2.0,1.0,
820,5.0,decreament,0.6,100.0,standard,11.0,2.0,1.0,
821,5.0,decreament,0.6,100.0,standard,11.0,2.0,1.0,
822,5.0,decreament,0.6,100.0,standard,11.0,2.0,1.0,
823,5.0,decreament,0.6,100.0,standard,11.0,2.0,1.0,
824,5.0,decreament,0.24,40.0,oddball,12.0,2.0,1.0,0.6317776003852487
825,5.0,decreament,0.6,100.0,standard,11.0,2.0,1.0,
826,5.0,decreament,0.6,100.0,standard,11.0,2.0,1.0,
827,5.0,decreament,0.6,100.0,standard,11.0,2.0,1.0,
828,5.0,decreament,0.6,100.0,standard,11.0,2.0,1.0,
829,5.0,decreament,0.6,100.0,standard,11.0,2.0,1.0,
830,5.0,decreament,0.6,100.0,standard,11.0,2.0,1.0,
831,5.0,decreament,0.6,100.0,standard,11.0,2.0,1.0,
832,5.0,decreament,0.6,100.0,standard,11.0,2.0,1.0,
833,5.0,decreament,0.36,60.0,oddball,13.0,2.0,1.0,0.8524096002802253
834,5.0,decreament,0.6,100.0,standard,11.0,2.0,1.0,
835,5.0,decreament,0.6,100.0,standard,11.0,2.0,1.0,
836,5.0,decreament,0.6,100.0,standard,11.0,2.0,1.0,
837,5.0,decreament,0.6,100.0,standard,11.0,2.0,1.0,
838,5.0,decreament,0.48,80.0,oddball,14.0,2.0,0.0,
839,5.0,decreament,0.6,100.0,standard,11.0,2.0,1.0,
840,5.0,increament,0.6,100.0,standard,15.0,2.0,1.0,
841,5.0,increament,0.6,100.0,standard,15.0,2.0,1.0,
842,5.0,increament,0.6,100.0,standard,15.0,2.0,1.0,
843,5.0,increament,0.6,100.0,standard,15.0,2.0,1.0,
844,5.0,increament,0.6,100.0,standard,15.0,2.0,1.0,
845,5.0,increament,0.6,100.0,standard,15.0,2.0,1.0,
846,5.0,increament,0.6,100.0,standard,15.0,2.0,1.0,
847,5.0,increament,0.6,100.0,standard,15.0,2.0,1.0,
848,5.0,increament,0.6,100.0,standard,15.0,2.0,1.0,
849,5.0,increament,0.6,100.0,standard,15.0,2.0,1.0,
850,5.0,increament,0.6,100.0,standard,15.0,2.0,1.0,
851,5.0,increament,0.6,100.0,standard,15.0,2.0,1.0,
852,5.0,increament,0.6,100.0,standard,15.0,2.0,1.0,
853,5.0,increament,0.6,100.0,standard,15.0,2.0,1.0,
854,5.0,increament,0.6,100.0,standard,15.0,2.0,1.0,
855,5.0,increament,0.96,160.0,oddball,18.0,2.0,1.0,0.5411981004290283
856,5.0,increament,0.6,100.0,standard,15.0,2.0,1.0,
857,5.0,increament,0.6,100.0,standard,15.0,2.0,1.0,
858,5.0,increament,0.6,100.0,standard,15.0,2.0,1.0,
859,5.0,increament,0.6,100.0,standard,15.0,2.0,1.0,
860,5.0,increament,0.72,120.0,oddball,16.0,2.0,0.0,
861,5.0,increament,0.6,100.0,standard,15.0,2.0,1.0,
862,5.0,increament,0.6,100.0,standard,15.0,2.0,1.0,
863,5.0,increament,0.6,100.0,standard,15.0,2.0,1.0,
864,5.0,increament,0.6,100.0,standard,15.0,2.0,1.0,
865,5.0,increament,0.6,100.0,standard,15.0,2.0,1.0,
866,5.0,increament,0.84,140.0,oddball,17.0,2.0,0.0,
867,5.0,increament,0.6,100.0,standard,15.0,2.0,1.0,
868,5.0,increament,0.6,100.0,standard,15.0,2.0,1.0,
869,5.0,increament,0.6,100.0,standard,15.0,2.0,1.0,
870,5.0,decreament,0.6,100.0,standard,11.0,2.0,1.0,
871,5.0,decreament,0.6,100.0,standard,11.0,2.0,1.0,
872,5.0,decreament,0.6,100.0,standard,11.0,2.0,1.0,
873,5.0,decreament,0.6,100.0,standard,11.0,2.0,1.0,
874,5.0,decreament,0.6,100.0,standard,11.0,2.0,1.0,
875,5.0,decreament,0.48,80.0,oddball,14.0,2.0,0.0,
876,5.0,decreament,0.6,100.0,standard,11.0,2.0,1.0,
877,5.0,decreament,0.6,100.0,standard,11.0,2.0,1.0,
878,5.0,decreament,0.6,100.0,standard,11.0,2.0,1.0,
879,5.0,decreament,0.6,100.0,standard,11.0,2.0,1.0,
880,5.0,decreament,0.6,100.0,standard,11.0,2.0,1.0,
881,5.0,decreament,0.6,100.0,standard,11.0,2.0,1.0,
882,5.0,decreament,0.6,100.0,standard,11.0,2.0,1.0,
883,5.0,decreament,0.6,100.0,standard,11.0,2.0,1.0,
884,5.0,decreament,0.6,100.0,standard,11.0,2.0,1.0,
885,5.0,decreament,0.24,40.0,oddball,12.0,2.0,1.0,0.732602100353688
886,5.0,decreament,0.6,100.0,standard,11.0,2.0,1.0,
887,5.0,decreament,0.6,100.0,standard,11.0,2.0,1.0,
888,5.0,decreament,0.6,100.0,standard,11.0,2.0,1.0,
889,5.0,decreament,0.6,100.0,standard,11.0,2.0,1.0,
890,5.0,decreament,0.6,100.0,standard,11.0,2.0,1.0,
891,5.0,decreament,0.6,100.0,standard,11.0,2.0,1.0,
892,5.0,decreament,0.6,100.0,standard,11.0,2.0,1.0,
893,5.0,decreament,0.6,100.0,standard,11.0,2.0,1.0,
894,5.0,decreament,0.36,60.0,oddball,13.0,2.0,0.0,
895,5.0,decreament,0.6,100.0,standard,11.0,2.0,1.0,
896,5.0,decreament,0.6,100.0,standard,11.0,2.0,1.0,
897,5.0,decreament,0.6,100.0,standard,11.0,2.0,1.0,
898,5.0,decreament,0.6,100.0,standard,11.0,2.0,1.0,
899,5.0,decreament,0.6,100.0,standard,11.0,2.0,1.0,
900,0.0,increament,0.6,100.0,standard,5.0,3.0,1.0,
901,0.0,increament,0.6,100.0,standard,5.0,3.0,1.0,
902,0.0,increament,0.6,100.0,standard,5.0,3.0,1.0,
903,0.0,increament,0.6,100.0,standard,5.0,3.0,1.0,
904,0.0,increament,0.6,100.0,standard,5.0,3.0,1.0,
905,0.0,increament,0.6,100.0,standard,5.0,3.0,1.0,
906,0.0,increament,0.6,100.0,standard,5.0,3.0,1.0,
907,0.0,increament,0.6,100.0,standard,5.0,3.0,1.0,
908,0.0,increament,0.6,100.0,standard,5.0,3.0,1.0,
909,0.0,increament,0.6,100.0,standard,5.0,3.0,1.0,
910,0.0,increament,0.6,100.0,standard,5.0,3.0,1.0,
911,0.0,increament,0.6,100.0,standard,5.0,3.0,1.0,
912,0.0,increament,0.6,100.0,standard,5.0,3.0,1.0,
913,0.0,increament,0.6,100.0,standard,5.0,3.0,1.0,
914,0.0,increament,0.6,100.0,standard,5.0,3.0,1.0,
915,0.0,increament,0.6,100.0,standard,5.0,3.0,1.0,
916,0.0,increament,0.6,100.0,standard,5.0,3.0,1.0,
917,0.0,increament,0.84,140.0,oddball,7.0,3.0,0.0,
918,0.0,increament,0.6,100.0,standard,5.0,3.0,1.0,
919,0.0,increament,0.6,100.0,standard,5.0,3.0,1.0,
920,0.0,increament,0.6,100.0,standard,5.0,3.0,1.0,
921,0.0,increament,0.6,100.0,standard,5.0,3.0,1.0,
922,0.0,increament,0.6,100.0,standard,5.0,3.0,1.0,
923,0.0,increament,0.96,160.0,oddball,8.0,3.0,1.0,0.536039600148797
924,0.0,increament,0.6,100.0,standard,5.0,3.0,1.0,
925,0.0,increament,0.6,100.0,standard,5.0,3.0,1.0,
926,0.0,increament,0.6,100.0,standard,5.0,3.0,1.0,
927,0.0,increament,0.6,100.0,standard,5.0,3.0,1.0,
928,0.0,increament,0.6,100.0,standard,5.0,3.0,1.0,
929,0.0,increament,0.72,120.0,oddball,6.0,3.0,0.0,
930,0.0,decreament,0.6,100.0,standard,1.0,3.0,1.0,
931,0.0,decreament,0.6,100.0,standard,1.0,3.0,1.0,
932,0.0,decreament,0.6,100.0,standard,1.0,3.0,1.0,
933,0.0,decreament,0.6,100.0,standard,1.0,3.0,1.0,
934,0.0,decreament,0.6,100.0,standard,1.0,3.0,1.0,
935,0.0,decreament,0.6,100.0,standard,1.0,3.0,1.0,
936,0.0,decreament,0.6,100.0,standard,1.0,3.0,1.0,
937,0.0,decreament,0.6,100.0,standard,1.0,3.0,1.0,
938,0.0,decreament,0.6,100.0,standard,1.0,3.0,1.0,
939,0.0,decreament,0.6,100.0,standard,1.0,3.0,1.0,
940,0.0,decreament,0.6,100.0,standard,1.0,3.0,1.0,
941,0.0,decreament,0.6,100.0,standard,1.0,3.0,1.0,
942,0.0,decreament,0.6,100.0,standard,1.0,3.0,1.0,
943,0.0,decreament,0.6,100.0,standard,1.0,3.0,1.0,
944,0.0,decreament,0.6,100.0,standard,1.0,3.0,1.0,
945,0.0,decreament,0.6,100.0,standard,1.0,3.0,1.0,
946,0.0,decreament,0.24,40.0,oddball,2.0,3.0,1.0,0.7059844005852938
947,0.0,decreament,0.6,100.0,standard,1.0,3.0,1.0,
948,0.0,decreament,0.6,100.0,standard,1.0,3.0,1.0,
949,0.0,decreament,0.6,100.0,standard,1.0,3.0,1.0,
950,0.0,decreament,0.48,80.0,oddball,4.0,3.0,0.0,
951,0.0,decreament,0.6,100.0,standard,1.0,3.0,1.0,
952,0.0,decreament,0.6,100.0,standard,1.0,3.0,1.0,
953,0.0,decreament,0.6,100.0,standard,1.0,3.0,1.0,
954,0.0,decreament,0.6,100.0,standard,1.0,3.0,1.0,
955,0.0,decreament,0.6,100.0,standard,1.0,3.0,1.0,
956,0.0,decreament,0.6,100.0,standard,1.0,3.0,1.0,
957,0.0,decreament,0.6,100.0,standard,1.0,3.0,1.0,
958,0.0,decreament,0.36,60.0,oddball,3.0,3.0,1.0,0.8670427002944052
959,0.0,decreament,0.6,100.0,standard,1.0,3.0,1.0,
960,0.0,increament,0.6,100.0,standard,5.0,3.0,1.0,
961,0.0,increament,0.6,100.0,standard,5.0,3.0,1.0,
962,0.0,increament,0.6,100.0,standard,5.0,3.0,1.0,
963,0.0,increament,0.6,100.0,standard,5.0,3.0,1.0,
964,0.0,increament,0.6,100.0,standard,5.0,3.0,1.0,
965,0.0,increament,0.6,100.0,standard,5.0,3.0,1.0,
966,0.0,increament,0.6,100.0,standard,5.0,3.0,1.0,
967,0.0,increament,0.6,100.0,standard,5.0,3.0,1.0,
968,0.0,increament,0.6,100.0,standard,5.0,3.0,1.0,
969,0.0,increament,0.84,140.0,oddball,7.0,3.0,0.0,
970,0.0,increament,0.6,100.0,standard,5.0,3.0,1.0,
971,0.0,increament,0.6,100.0,standard,5.0,3.0,1.0,
972,0.0,increament,0.6,100.0,standard,5.0,3.0,1.0,
973,0.0,increament,0.6,100.0,standard,5.0,3.0,1.0,
974,0.0,increament,0.72,120.0,oddball,6.0,3.0,0.0,
975,0.0,increament,0.6,100.0,standard,5.0,3.0,1.0,
976,0.0,increament,0.6,100.0,standard,5.0,3.0,1.0,
977,0.0,increament,0.6,100.0,standard,5.0,3.0,1.0,
978,0.0,increament,0.6,100.0,standard,5.0,3.0,1.0,
979,0.0,increament,0.6,100.0,standard,5.0,3.0,1.0,
980,0.0,increament,0.96,160.0,oddball,8.0,3.0,1.0,0.4053512001410126
981,0.0,increament,0.6,100.0,standard,5.0,3.0,1.0,
982,0.0,increament,0.6,100.0,standard,5.0,3.0,1.0,
983,0.0,increament,0.6,100.0,standard,5.0,3.0,1.0,
984,0.0,increament,0.6,100.0,standard,5.0,3.0,1.0,
985,0.0,increament,0.6,100.0,standard,5.0,3.0,1.0,
986,0.0,increament,0.6,100.0,standard,5.0,3.0,1.0,
987,0.0,increament,0.6,100.0,standard,5.0,3.0,1.0,
988,0.0,increament,0.6,100.0,standard,5.0,3.0,1.0,
989,0.0,increament,0.6,100.0,standard,5.0,3.0,1.0,
990,0.0,decreament,0.6,100.0,standard,1.0,3.0,1.0,
991,0.0,decreament,0.6,100.0,standard,1.0,3.0,1.0,
992,0.0,decreament,0.6,100.0,standard,1.0,3.0,1.0,
993,0.0,decreament,0.6,100.0,standard,1.0,3.0,1.0,
994,0.0,decreament,0.6,100.0,standard,1.0,3.0,1.0,
995,0.0,decreament,0.6,100.0,standard,1.0,3.0,1.0,
996,0.0,decreament,0.6,100.0,standard,1.0,3.0,1.0,
997,0.0,decreament,0.6,100.0,standard,1.0,3.0,1.0,
998,0.0,decreament,0.48,80.0,oddball,4.0,3.0,0.0,
999,0.0,decreament,0.6,100.0,standard,1.0,3.0,1.0,
1000,0.0,decreament,0.6,100.0,standard,1.0,3.0,1.0,
1001,0.0,decreament,0.6,100.0,standard,1.0,3.0,1.0,
1002,0.0,decreament,0.6,100.0,standard,1.0,3.0,1.0,
1003,0.0,decreament,0.6,100.0,standard,1.0,3.0,1.0,
1004,0.0,decreament,0.6,100.0,standard,1.0,3.0,1.0,
1005,0.0,decreament,0.6,100.0,standard,1.0,3.0,1.0,
1006,0.0,decreament,0.6,100.0,standard,1.0,3.0,1.0,
1007,0.0,decreament,0.6,100.0,standard,1.0,3.0,1.0,
1008,0.0,decreament,0.6,100.0,standard,1.0,3.0,1.0,
1009,0.0,decreament,0.24,40.0,oddball,2.0,3.0,1.0,0.7308197002857924
1010,0.0,decreament,0.6,100.0,standard,1.0,3.0,1.0,
1011,0.0,decreament,0.6,100.0,standard,1.0,3.0,1.0,
1012,0.0,decreament,0.6,100.0,standard,1.0,3.0,1.0,
1013,0.0,decreament,0.36,60.0,oddball,3.0,3.0,1.0,0.7643766002729535
1014,0.0,decreament,0.6,100.0,standard,1.0,3.0,1.0,
1015,0.0,decreament,0.6,100.0,standard,1.0,3.0,1.0,
1016,0.0,decreament,0.6,100.0,standard,1.0,3.0,1.0,
1017,0.0,decreament,0.6,100.0,standard,1.0,3.0,1.0,
1018,0.0,decreament,0.6,100.0,standard,1.0,3.0,1.0,
1019,0.0,decreament,0.6,100.0,standard,1.0,3.0,1.0,
1020,0.0,increament,0.6,100.0,standard,5.0,3.0,1.0,
1021,0.0,increament,0.6,100.0,standard,5.0,3.0,1.0,
1022,0.0,increament,0.6,100.0,standard,5.0,3.0,1.0,
1023,0.0,increament,0.6,100.0,standard,5.0,3.0,1.0,
1024,0.0,increament,0.6,100.0,standard,5.0,3.0,1.0,
1025,0.0,increament,0.6,100.0,standard,5.0,3.0,1.0,
1026,0.0,increament,0.6,100.0,standard,5.0,3.0,1.0,
1027,0.0,increament,0.96,160.0,oddball,8.0,3.0,1.0,0.6248110001906753
1028,0.0,increament,0.6,100.0,standard,5.0,3.0,1.0,
1029,0.0,increament,0.6,100.0,standard,5.0,3.0,1.0,
1030,0.0,increament,0.6,100.0,standard,5.0,3.0,1.0,
1031,0.0,increament,0.6,100.0,standard,5.0,3.0,1.0,
1032,0.0,increament,0.6,100.0,standard,5.0,3.0,1.0,
1033,0.0,increament,0.6,100.0,standard,5.0,3.0,1.0,
1034,0.0,increament,0.6,100.0,standard,5.0,3.0,1.0,
1035,0.0,increament,0.6,100.0,standard,5.0,3.0,1.0,
1036,0.0,increament,0.6,100.0,standard,5.0,3.0,1.0,
1037,0.0,increament,0.6,100.0,standard,5.0,3.0,1.0,
1038,0.0,increament,0.6,100.0,standard,5.0,3.0,1.0,
1039,0.0,increament,0.6,100.0,standard,5.0,3.0,1.0,
1040,0.0,increament,0.6,100.0,standard,5.0,3.0,1.0,
1041,0.0,increament,0.72,120.0,oddball,6.0,3.0,0.0,
1042,0.0,increament,0.6,100.0,standard,5.0,3.0,1.0,
1043,0.0,increament,0.6,100.0,standard,5.0,3.0,1.0,
1044,0.0,increament,0.6,100.0,standard,5.0,3.0,1.0,
1045,0.0,increament,0.84,140.0,oddball,7.0,3.0,0.0,
1046,0.0,increament,0.6,100.0,standard,5.0,3.0,1.0,
1047,0.0,increament,0.6,100.0,standard,5.0,3.0,1.0,
1048,0.0,increament,0.6,100.0,standard,5.0,3.0,1.0,
1049,0.0,increament,0.6,100.0,standard,5.0,3.0,1.0,
1050,0.0,decreament,0.6,100.0,standard,1.0,3.0,1.0,
1051,0.0,decreament,0.6,100.0,standard,1.0,3.0,1.0,
1052,0.0,decreament,0.6,100.0,standard,1.0,3.0,1.0,
1053,0.0,decreament,0.6,100.0,standard,1.0,3.0,1.0,
1054,0.0,decreament,0.6,100.0,standard,1.0,3.0,1.0,
1055,0.0,decreament,0.6,100.0,standard,1.0,3.0,1.0,
1056,0.0,decreament,0.6,100.0,standard,1.0,3.0,1.0,
1057,0.0,decreament,0.6,100.0,standard,1.0,3.0,1.0,
1058,0.0,decreament,0.6,100.0,standard,1.0,3.0,1.0,
1059,0.0,decreament,0.6,100.0,standard,1.0,3.0,1.0,
1060,0.0,decreament,0.6,100.0,standard,1.0,3.0,1.0,
1061,0.0,decreament,0.24,40.0,oddball,2.0,3.0,1.0,0.7300546001642942
1062,0.0,decreament,0.6,100.0,standard,1.0,3.0,1.0,
1063,0.0,decreament,0.6,100.0,standard,1.0,3.0,1.0,
1064,0.0,decreament,0.6,100.0,standard,1.0,3.0,1.0,
1065,0.0,decreament,0.36,60.0,oddball,3.0,3.0,1.0,0.8059460003860295
1066,0.0,decreament,0.6,100.0,standard,1.0,3.0,1.0,
1067,0.0,decreament,0.6,100.0,standard,1.0,3.0,1.0,
1068,0.0,decreament,0.6,100.0,standard,1.0,3.0,1.0,
1069,0.0,decreament,0.6,100.0,standard,1.0,3.0,1.0,
1070,0.0,decreament,0.6,100.0,standard,1.0,3.0,1.0,
1071,0.0,decreament,0.6,100.0,standard,1.0,3.0,1.0,
1072,0.0,decreament,0.6,100.0,standard,1.0,3.0,1.0,
1073,0.0,decreament,0.6,100.0,standard,1.0,3.0,1.0,
1074,0.0,decreament,0.6,100.0,standard,1.0,3.0,1.0,
1075,0.0,decreament,0.6,100.0,standard,1.0,3.0,1.0,
1076,0.0,decreament,0.6,100.0,standard,1.0,3.0,1.0,
1077,0.0,decreament,0.6,100.0,standard,1.0,3.0,1.0,
1078,0.0,decreament,0.48,80.0,oddball,4.0,3.0,0.0,
1079,0.0,decreament,0.6,100.0,standard,1.0,3.0,1.0,
1080,0.0,increament,0.6,100.0,standard,5.0,3.0,1.0,
1081,0.0,increament,0.6,100.0,standard,5.0,3.0,1.0,
1082,0.0,increament,0.6,100.0,standard,5.0,3.0,1.0,
1083,0.0,increament,0.6,100.0,standard,5.0,3.0,1.0,
1084,0.0,increament,0.6,100.0,standard,5.0,3.0,1.0,
1085,0.0,increament,0.6,100.0,standard,5.0,3.0,1.0,
1086,0.0,increament,0.6,100.0,standard,5.0,3.0,1.0,
1087,0.0,increament,0.6,100.0,standard,5.0,3.0,1.0,
1088,0.0,increament,0.72,120.0,oddball,6.0,3.0,0.0,
1089,0.0,increament,0.6,100.0,standard,5.0,3.0,1.0,
1090,0.0,increament,0.6,100.0,standard,5.0,3.0,1.0,
1091,0.0,increament,0.6,100.0,standard,5.0,3.0,1.0,
1092,0.0,increament,0.6,100.0,standard,5.0,3.0,1.0,
1093,0.0,increament,0.6,100.0,standard,5.0,3.0,1.0,
1094,0.0,increament,0.6,100.0,standard,5.0,3.0,1.0,
1095,0.0,increament,0.6,100.0,standard,5.0,3.0,1.0,
1096,0.0,increament,0.6,100.0,standard,5.0,3.0,1.0,
1097,0.0,increament,0.96,160.0,oddball,8.0,3.0,1.0,0.4404276004061103
1098,0.0,increament,0.6,100.0,standard,5.0,3.0,1.0,
1099,0.0,increament,0.6,100.0,standard,5.0,3.0,1.0,
1100,0.0,increament,0.6,100.0,standard,5.0,3.0,1.0,
1101,0.0,increament,0.6,100.0,standard,5.0,3.0,1.0,
1102,0.0,increament,0.6,100.0,standard,5.0,3.0,1.0,
1103,0.0,increament,0.6,100.0,standard,5.0,3.0,1.0,
1104,0.0,increament,0.6,100.0,standard,5.0,3.0,1.0,
1105,0.0,increament,0.6,100.0,standard,5.0,3.0,1.0,
1106,0.0,increament,0.6,100.0,standard,5.0,3.0,1.0,
1107,0.0,increament,0.6,100.0,standard,5.0,3.0,1.0,
1108,0.0,increament,0.6,100.0,standard,5.0,3.0,1.0,
1109,0.0,increament,0.84,140.0,oddball,7.0,3.0,1.0,0.7483010003343225
1110,0.0,decreament,0.6,100.0,standard,1.0,3.0,1.0,
1111,0.0,decreament,0.6,100.0,standard,1.0,3.0,1.0,
1112,0.0,decreament,0.6,100.0,standard,1.0,3.0,1.0,
1113,0.0,decreament,0.6,100.0,standard,1.0,3.0,1.0,
1114,0.0,decreament,0.6,100.0,standard,1.0,3.0,1.0,
1115,0.0,decreament,0.6,100.0,standard,1.0,3.0,1.0,
1116,0.0,decreament,0.6,100.0,standard,1.0,3.0,1.0,
1117,0.0,decreament,0.36,60.0,oddball,3.0,3.0,1.0,0.718187200371176
1118,0.0,decreament,0.6,100.0,standard,1.0,3.0,1.0,
1119,0.0,decreament,0.6,100.0,standard,1.0,3.0,1.0,
1120,0.0,decreament,0.6,100.0,standard,1.0,3.0,1.0,
1121,0.0,decreament,0.48,80.0,oddball,4.0,3.0,1.0,0.8869768003933132
1122,0.0,decreament,0.6,100.0,standard,1.0,3.0,1.0,
1123,0.0,decreament,0.6,100.0,standard,1.0,3.0,1.0,
1124,0.0,decreament,0.6,100.0,standard,1.0,3.0,1.0,
1125,0.0,decreament,0.6,100.0,standard,1.0,3.0,1.0,
1126,0.0,decreament,0.6,100.0,standard,1.0,3.0,1.0,
1127,0.0,decreament,0.6,100.0,standard,1.0,3.0,1.0,
1128,0.0,decreament,0.6,100.0,standard,1.0,3.0,1.0,
1129,0.0,decreament,0.6,100.0,standard,1.0,3.0,1.0,
1130,0.0,decreament,0.6,100.0,standard,1.0,3.0,1.0,
1131,0.0,decreament,0.6,100.0,standard,1.0,3.0,1.0,
1132,0.0,decreament,0.6,100.0,standard,1.0,3.0,1.0,
1133,0.0,decreament,0.6,100.0,standard,1.0,3.0,1.0,
1134,0.0,decreament,0.6,100.0,standard,1.0,3.0,1.0,
1135,0.0,decreament,0.6,100.0,standard,1.0,3.0,1.0,
1136,0.0,decreament,0.6,100.0,standard,1.0,3.0,1.0,
1137,0.0,decreament,0.24,40.0,oddball,2.0,3.0,1.0,0.6804102002643049
1138,0.0,decreament,0.6,100.0,standard,1.0,3.0,1.0,
1139,0.0,decreament,0.6,100.0,standard,1.0,3.0,1.0,
1140,0.0,increament,0.6,100.0,standard,5.0,3.0,1.0,
1141,0.0,increament,0.6,100.0,standard,5.0,3.0,1.0,
1142,0.0,increament,0.6,100.0,standard,5.0,3.0,1.0,
1143,0.0,increament,0.6,100.0,standard,5.0,3.0,1.0,
1144,0.0,increament,0.6,100.0,standard,5.0,3.0,1.0,
1145,0.0,increament,0.6,100.0,standard,5.0,3.0,1.0,
1146,0.0,increament,0.96,160.0,oddball,8.0,3.0,1.0,0.8769429000094533
1147,0.0,increament,0.6,100.0,standard,5.0,3.0,1.0,
1148,0.0,increament,0.6,100.0,standard,5.0,3.0,1.0,
1149,0.0,increament,0.6,100.0,standard,5.0,3.0,1.0,
1150,0.0,increament,0.6,100.0,standard,5.0,3.0,1.0,
1151,0.0,increament,0.6,100.0,standard,5.0,3.0,1.0,
1152,0.0,increament,0.84,140.0,oddball,7.0,3.0,0.0,
1153,0.0,increament,0.6,100.0,standard,5.0,3.0,1.0,
1154,0.0,increament,0.6,100.0,standard,5.0,3.0,1.0,
1155,0.0,increament,0.6,100.0,standard,5.0,3.0,1.0,
1156,0.0,increament,0.6,100.0,standard,5.0,3.0,1.0,
1157,0.0,increament,0.6,100.0,standard,5.0,3.0,1.0,
1158,0.0,increament,0.6,100.0,standard,5.0,3.0,1.0,
1159,0.0,increament,0.6,100.0,standard,5.0,3.0,1.0,
1160,0.0,increament,0.6,100.0,standard,5.0,3.0,1.0,
1161,0.0,increament,0.6,100.0,standard,5.0,3.0,1.0,
1162,0.0,increament,0.6,100.0,standard,5.0,3.0,1.0,
1163,0.0,increament,0.6,100.0,standard,5.0,3.0,1.0,
1164,0.0,increament,0.6,100.0,standard,5.0,3.0,1.0,
1165,0.0,increament,0.6,100.0,standard,5.0,3.0,1.0,
1166,0.0,increament,0.6,100.0,standard,5.0,3.0,1.0,
1167,0.0,increament,0.6,100.0,standard,5.0,3.0,1.0,
1168,0.0,increament,0.72,120.0,oddball,6.0,3.0,0.0,
1169,0.0,increament,0.6,100.0,standard,5.0,3.0,1.0,
1170,0.0,decreament,0.6,100.0,standard,1.0,3.0,1.0,
1171,0.0,decreament,0.6,100.0,standard,1.0,3.0,1.0,
1172,0.0,decreament,0.6,100.0,standard,1.0,3.0,1.0,
1173,0.0,decreament,0.6,100.0,standard,1.0,3.0,1.0,
1174,0.0,decreament,0.6,100.0,standard,1.0,3.0,1.0,
1175,0.0,decreament,0.6,100.0,standard,1.0,3.0,1.0,
1176,0.0,decreament,0.36,60.0,oddball,3.0,3.0,0.0,
1177,0.0,decreament,0.6,100.0,standard,1.0,3.0,1.0,
1178,0.0,decreament,0.6,100.0,standard,1.0,3.0,1.0,
1179,0.0,decreament,0.6,100.0,standard,1.0,3.0,1.0,
1180,0.0,decreament,0.6,100.0,standard,1.0,3.0,1.0,
1181,0.0,decreament,0.24,40.0,oddball,2.0,3.0,1.0,0.7032850002869964
1182,0.0,decreament,0.6,100.0,standard,1.0,3.0,1.0,
1183,0.0,decreament,0.6,100.0,standard,1.0,3.0,1.0,
1184,0.0,decreament,0.6,100.0,standard,1.0,3.0,1.0,
1185,0.0,decreament,0.6,100.0,standard,1.0,3.0,1.0,
1186,0.0,decreament,0.6,100.0,standard,1.0,3.0,1.0,
1187,0.0,decreament,0.48,80.0,oddball,4.0,3.0,0.0,
1188,0.0,decreament,0.6,100.0,standard,1.0,3.0,1.0,
1189,0.0,decreament,0.6,100.0,standard,1.0,3.0,1.0,
1190,0.0,decreament,0.6,100.0,standard,1.0,3.0,1.0,
1191,0.0,decreament,0.6,100.0,standard,1.0,3.0,1.0,
1192,0.0,decreament,0.6,100.0,standard,1.0,3.0,1.0,
1193,0.0,decreament,0.6,100.0,standard,1.0,3.0,1.0,
1194,0.0,decreament,0.6,100.0,standard,1.0,3.0,1.0,
1195,0.0,decreament,0.6,100.0,standard,1.0,3.0,1.0,
1196,0.0,decreament,0.6,100.0,standard,1.0,3.0,1.0,
1197,0.0,decreament,0.6,100.0,standard,1.0,3.0,1.0,
1198,0.0,decreament,0.6,100.0,standard,1.0,3.0,1.0,
1199,0.0,decreament,0.6,100.0,standard,1.0,3.0,1.0,
