,grating_freq,direction,duration,scaling,stim_type,trigger,blocks.thisN,resp.corr,resp.rt
0,0.0,decreament,0.6,100.0,standard,1.0,0.0,1.0,
1,0.0,decreament,0.6,100.0,standard,1.0,0.0,1.0,
2,0.0,decreament,0.6,100.0,standard,1.0,0.0,1.0,
3,0.0,decreament,0.6,100.0,standard,1.0,0.0,1.0,
4,0.0,decreament,0.6,100.0,standard,1.0,0.0,1.0,
5,0.0,decreament,0.6,100.0,standard,1.0,0.0,1.0,
6,0.0,decreament,0.6,100.0,standard,1.0,0.0,1.0,
7,0.0,decreament,0.36,60.0,oddball,3.0,0.0,1.0,0.5015054999385029
8,0.0,decreament,0.6,100.0,standard,1.0,0.0,1.0,
9,0.0,decreament,0.6,100.0,standard,1.0,0.0,1.0,
10,0.0,decreament,0.6,100.0,standard,1.0,0.0,1.0,
11,0.0,decreament,0.48,80.0,oddball,4.0,0.0,1.0,0.3988685000222176
12,0.0,decreament,0.6,100.0,standard,1.0,0.0,1.0,
13,0.0,decreament,0.6,100.0,standard,1.0,0.0,1.0,
14,0.0,decreament,0.6,100.0,standard,1.0,0.0,0.0,0.4362047000322491
15,0.0,decreament,0.6,100.0,standard,1.0,0.0,1.0,
16,0.0,decreament,0.6,100.0,standard,1.0,0.0,1.0,
17,0.0,decreament,0.6,100.0,standard,1.0,0.0,1.0,
18,0.0,decreament,0.6,100.0,standard,1.0,0.0,1.0,
19,0.0,decreament,0.6,100.0,standard,1.0,0.0,1.0,
20,0.0,decreament,0.24,40.0,oddball,2.0,0.0,1.0,0.6888228999450803
21,0.0,decreament,0.6,100.0,standard,1.0,0.0,1.0,
22,0.0,decreament,0.6,100.0,standard,1.0,0.0,1.0,
23,0.0,decreament,0.6,100.0,standard,1.0,0.0,1.0,
24,0.0,decreament,0.6,100.0,standard,1.0,0.0,1.0,
25,0.0,decreament,0.6,100.0,standard,1.0,0.0,1.0,
26,0.0,decreament,0.6,100.0,standard,1.0,0.0,1.0,
27,0.0,decreament,0.6,100.0,standard,1.0,0.0,1.0,
28,0.0,decreament,0.6,100.0,standard,1.0,0.0,1.0,
29,0.0,decreament,0.6,100.0,standard,1.0,0.0,1.0,
30,0.0,increament,0.6,100.0,standard,5.0,0.0,1.0,
31,0.0,increament,0.6,100.0,standard,5.0,0.0,1.0,
32,0.0,increament,0.6,100.0,standard,5.0,0.0,1.0,
33,0.0,increament,0.6,100.0,standard,5.0,0.0,1.0,
34,0.0,increament,0.6,100.0,standard,5.0,0.0,1.0,
35,0.0,increament,0.96,160.0,oddball,8.0,0.0,1.0,0.3764889999292791
36,0.0,increament,0.6,100.0,standard,5.0,0.0,1.0,
37,0.0,increament,0.6,100.0,standard,5.0,0.0,1.0,
38,0.0,increament,0.6,100.0,standard,5.0,0.0,1.0,
39,0.0,increament,0.6,100.0,standard,5.0,0.0,1.0,
40,0.0,increament,0.6,100.0,standard,5.0,0.0,1.0,
41,0.0,increament,0.6,100.0,standard,5.0,0.0,1.0,
42,0.0,increament,0.6,100.0,standard,5.0,0.0,1.0,
43,0.0,increament,0.6,100.0,standard,5.0,0.0,1.0,
44,0.0,increament,0.6,100.0,standard,5.0,0.0,1.0,
45,0.0,increament,0.6,100.0,standard,5.0,0.0,1.0,
46,0.0,increament,0.6,100.0,standard,5.0,0.0,1.0,
47,0.0,increament,0.6,100.0,standard,5.0,0.0,1.0,
48,0.0,increament,0.6,100.0,standard,5.0,0.0,1.0,
49,0.0,increament,0.6,100.0,standard,5.0,0.0,1.0,
50,0.0,increament,0.6,100.0,standard,5.0,0.0,1.0,
51,0.0,increament,0.6,100.0,standard,5.0,0.0,1.0,
52,0.0,increament,0.72,120.0,oddball,6.0,0.0,1.0,1.241497400100343
53,0.0,increament,0.6,100.0,standard,5.0,0.0,1.0,
54,0.0,increament,0.6,100.0,standard,5.0,0.0,0.0,0.473413800005801
55,0.0,increament,0.6,100.0,standard,5.0,0.0,1.0,
56,0.0,increament,0.6,100.0,standard,5.0,0.0,1.0,
57,0.0,increament,0.6,100.0,standard,5.0,0.0,1.0,
58,0.0,increament,0.6,100.0,standard,5.0,0.0,1.0,
59,0.0,increament,0.84,140.0,oddball,7.0,0.0,1.0,0.7794291999889538
60,0.0,decreament,0.6,100.0,standard,1.0,0.0,1.0,
61,0.0,decreament,0.6,100.0,standard,1.0,0.0,1.0,
62,0.0,decreament,0.6,100.0,standard,1.0,0.0,1.0,
63,0.0,decreament,0.6,100.0,standard,1.0,0.0,1.0,
64,0.0,decreament,0.6,100.0,standard,1.0,0.0,1.0,
65,0.0,decreament,0.6,100.0,standard,1.0,0.0,1.0,
66,0.0,decreament,0.6,100.0,standard,1.0,0.0,1.0,
67,0.0,decreament,0.6,100.0,standard,1.0,0.0,1.0,
68,0.0,decreament,0.48,80.0,oddball,4.0,0.0,0.0,
69,0.0,decreament,0.6,100.0,standard,1.0,0.0,1.0,
70,0.0,decreament,0.6,100.0,standard,1.0,0.0,1.0,
71,0.0,decreament,0.6,100.0,standard,1.0,0.0,1.0,
72,0.0,decreament,0.24,40.0,oddball,2.0,0.0,1.0,0.5557203999487683
73,0.0,decreament,0.6,100.0,standard,1.0,0.0,1.0,
74,0.0,decreament,0.6,100.0,standard,1.0,0.0,1.0,
75,0.0,decreament,0.6,100.0,standard,1.0,0.0,1.0,
76,0.0,decreament,0.6,100.0,standard,1.0,0.0,1.0,
77,0.0,decreament,0.6,100.0,standard,1.0,0.0,1.0,
78,0.0,decreament,0.6,100.0,standard,1.0,0.0,1.0,
79,0.0,decreament,0.36,60.0,oddball,3.0,0.0,1.0,0.684300999972038
80,0.0,decreament,0.6,100.0,standard,1.0,0.0,1.0,
81,0.0,decreament,0.6,100.0,standard,1.0,0.0,1.0,
82,0.0,decreament,0.6,100.0,standard,1.0,0.0,1.0,
83,0.0,decreament,0.6,100.0,standard,1.0,0.0,1.0,
84,0.0,decreament,0.6,100.0,standard,1.0,0.0,1.0,
85,0.0,decreament,0.6,100.0,standard,1.0,0.0,1.0,
86,0.0,decreament,0.6,100.0,standard,1.0,0.0,1.0,
87,0.0,decreament,0.6,100.0,standard,1.0,0.0,1.0,
88,0.0,decreament,0.6,100.0,standard,1.0,0.0,1.0,
89,0.0,decreament,0.6,100.0,standard,1.0,0.0,1.0,
90,0.0,increament,0.6,100.0,standard,5.0,0.0,1.0,
91,0.0,increament,0.6,100.0,standard,5.0,0.0,1.0,
92,0.0,increament,0.6,100.0,standard,5.0,0.0,1.0,
93,0.0,increament,0.6,100.0,standard,5.0,0.0,1.0,
94,0.0,increament,0.6,100.0,standard,5.0,0.0,1.0,
95,0.0,increament,0.96,160.0,oddball,8.0,0.0,1.0,0.3249125999864191
96,0.0,increament,0.6,100.0,standard,5.0,0.0,1.0,
97,0.0,increament,0.6,100.0,standard,5.0,0.0,1.0,
98,0.0,increament,0.6,100.0,standard,5.0,0.0,1.0,
99,0.0,increament,0.6,100.0,standard,5.0,0.0,1.0,
100,0.0,increament,0.6,100.0,standard,5.0,0.0,1.0,
101,0.0,increament,0.6,100.0,standard,5.0,0.0,1.0,
102,0.0,increament,0.6,100.0,standard,5.0,0.0,1.0,
103,0.0,increament,0.72,120.0,oddball,6.0,0.0,1.0,0.8655295999487862
104,0.0,increament,0.6,100.0,standard,5.0,0.0,1.0,
105,0.0,increament,0.6,100.0,standard,5.0,0.0,1.0,
106,0.0,increament,0.6,100.0,standard,5.0,0.0,1.0,
107,0.0,increament,0.6,100.0,standard,5.0,0.0,1.0,
108,0.0,increament,0.6,100.0,standard,5.0,0.0,1.0,
109,0.0,increament,0.6,100.0,standard,5.0,0.0,1.0,
110,0.0,increament,0.6,100.0,standard,5.0,0.0,1.0,
111,0.0,increament,0.6,100.0,standard,5.0,0.0,1.0,
112,0.0,increament,0.84,140.0,oddball,7.0,0.0,1.0,0.4056629999540746
113,0.0,increament,0.6,100.0,standard,5.0,0.0,1.0,
114,0.0,increament,0.6,100.0,standard,5.0,0.0,1.0,
115,0.0,increament,0.6,100.0,standard,5.0,0.0,1.0,
116,0.0,increament,0.6,100.0,standard,5.0,0.0,1.0,
117,0.0,increament,0.6,100.0,standard,5.0,0.0,1.0,
118,0.0,increament,0.6,100.0,standard,5.0,0.0,1.0,
119,0.0,increament,0.6,100.0,standard,5.0,0.0,1.0,
120,0.0,decreament,0.6,100.0,standard,1.0,0.0,1.0,
121,0.0,decreament,0.6,100.0,standard,1.0,0.0,1.0,
122,0.0,decreament,0.6,100.0,standard,1.0,0.0,1.0,
123,0.0,decreament,0.6,100.0,standard,1.0,0.0,1.0,
124,0.0,decreament,0.6,100.0,standard,1.0,0.0,1.0,
125,0.0,decreament,0.48,80.0,oddball,4.0,0.0,0.0,
126,0.0,decreament,0.6,100.0,standard,1.0,0.0,1.0,
127,0.0,decreament,0.6,100.0,standard,1.0,0.0,1.0,
128,0.0,decreament,0.6,100.0,standard,1.0,0.0,1.0,
129,0.0,decreament,0.6,100.0,standard,1.0,0.0,1.0,
130,0.0,decreament,0.6,100.0,standard,1.0,0.0,1.0,
131,0.0,decreament,0.6,100.0,standard,1.0,0.0,1.0,
132,0.0,decreament,0.6,100.0,standard,1.0,0.0,1.0,
133,0.0,decreament,0.6,100.0,standard,1.0,0.0,0.0,0.483045500004664
134,0.0,decreament,0.6,100.0,standard,1.0,0.0,1.0,
135,0.0,decreament,0.6,100.0,standard,1.0,0.0,1.0,
136,0.0,decreament,0.6,100.0,standard,1.0,0.0,1.0,
137,0.0,decreament,0.6,100.0,standard,1.0,0.0,1.0,
138,0.0,decreament,0.6,100.0,standard,1.0,0.0,1.0,
139,0.0,decreament,0.6,100.0,standard,1.0,0.0,1.0,
140,0.0,decreament,0.6,100.0,standard,1.0,0.0,1.0,
141,0.0,decreament,0.6,100.0,standard,1.0,0.0,1.0,
142,0.0,decreament,0.24,40.0,oddball,2.0,0.0,1.0,0.4392116999952122
143,0.0,decreament,0.6,100.0,standard,1.0,0.0,1.0,
144,0.0,decreament,0.6,100.0,standard,1.0,0.0,1.0,
145,0.0,decreament,0.6,100.0,standard,1.0,0.0,1.0,
146,0.0,decreament,0.6,100.0,standard,1.0,0.0,1.0,
147,0.0,decreament,0.6,100.0,standard,1.0,0.0,1.0,
148,0.0,decreament,0.36,60.0,oddball,3.0,0.0,1.0,0.7756664999760687
149,0.0,decreament,0.6,100.0,standard,1.0,0.0,1.0,
150,0.0,increament,0.6,100.0,standard,5.0,0.0,1.0,
151,0.0,increament,0.6,100.0,standard,5.0,0.0,1.0,
152,0.0,increament,0.6,100.0,standard,5.0,0.0,1.0,
153,0.0,increament,0.6,100.0,standard,5.0,0.0,1.0,
154,0.0,increament,0.6,100.0,standard,5.0,0.0,1.0,
155,0.0,increament,0.6,100.0,standard,5.0,0.0,1.0,
156,0.0,increament,0.96,160.0,oddball,8.0,0.0,1.0,0.3499364000745117
157,0.0,increament,0.6,100.0,standard,5.0,0.0,1.0,
158,0.0,increament,0.6,100.0,standard,5.0,0.0,1.0,
159,0.0,increament,0.6,100.0,standard,5.0,0.0,1.0,
160,0.0,increament,0.72,120.0,oddball,6.0,0.0,0.0,
161,0.0,increament,0.6,100.0,standard,5.0,0.0,1.0,
162,0.0,increament,0.6,100.0,standard,5.0,0.0,1.0,
163,0.0,increament,0.6,100.0,standard,5.0,0.0,1.0,
164,0.0,increament,0.6,100.0,standard,5.0,0.0,1.0,
165,0.0,increament,0.6,100.0,standard,5.0,0.0,1.0,
166,0.0,increament,0.6,100.0,standard,5.0,0.0,1.0,
167,0.0,increament,0.6,100.0,standard,5.0,0.0,1.0,
168,0.0,increament,0.6,100.0,standard,5.0,0.0,1.0,
169,0.0,increament,0.6,100.0,standard,5.0,0.0,1.0,
170,0.0,increament,0.6,100.0,standard,5.0,0.0,1.0,
171,0.0,increament,0.6,100.0,standard,5.0,0.0,1.0,
172,0.0,increament,0.6,100.0,standard,5.0,0.0,1.0,
173,0.0,increament,0.6,100.0,standard,5.0,0.0,1.0,
174,0.0,increament,0.6,100.0,standard,5.0,0.0,1.0,
175,0.0,increament,0.6,100.0,standard,5.0,0.0,1.0,
176,0.0,increament,0.6,100.0,standard,5.0,0.0,1.0,
177,0.0,increament,0.6,100.0,standard,5.0,0.0,1.0,
178,0.0,increament,0.84,140.0,oddball,7.0,0.0,0.0,
179,0.0,increament,0.6,100.0,standard,5.0,0.0,1.0,
180,0.0,decreament,0.6,100.0,standard,1.0,0.0,1.0,
181,0.0,decreament,0.6,100.0,standard,1.0,0.0,1.0,
182,0.0,decreament,0.6,100.0,standard,1.0,0.0,1.0,
183,0.0,decreament,0.6,100.0,standard,1.0,0.0,1.0,
184,0.0,decreament,0.6,100.0,standard,1.0,0.0,1.0,
185,0.0,decreament,0.6,100.0,standard,1.0,0.0,1.0,
186,0.0,decreament,0.6,100.0,standard,1.0,0.0,1.0,
187,0.0,decreament,0.6,100.0,standard,1.0,0.0,1.0,
188,0.0,decreament,0.24,40.0,oddball,2.0,0.0,1.0,0.5662198000354692
189,0.0,decreament,0.6,100.0,standard,1.0,0.0,1.0,
190,0.0,decreament,0.6,100.0,standard,1.0,0.0,1.0,
191,0.0,decreament,0.6,100.0,standard,1.0,0.0,1.0,
192,0.0,decreament,0.6,100.0,standard,1.0,0.0,1.0,
193,0.0,decreament,0.6,100.0,standard,1.0,0.0,1.0,
194,0.0,decreament,0.6,100.0,standard,1.0,0.0,1.0,
195,0.0,decreament,0.48,80.0,oddball,4.0,0.0,0.0,
196,0.0,decreament,0.6,100.0,standard,1.0,0.0,1.0,
197,0.0,decreament,0.6,100.0,standard,1.0,0.0,1.0,
198,0.0,decreament,0.6,100.0,standard,1.0,0.0,1.0,
199,0.0,decreament,0.6,100.0,standard,1.0,0.0,1.0,
200,0.0,decreament,0.6,100.0,standard,1.0,0.0,1.0,
201,0.0,decreament,0.6,100.0,standard,1.0,0.0,1.0,
202,0.0,decreament,0.6,100.0,standard,1.0,0.0,1.0,
203,0.0,decreament,0.36,60.0,oddball,3.0,0.0,1.0,0.494151100050658
204,0.0,decreament,0.6,100.0,standard,1.0,0.0,1.0,
205,0.0,decreament,0.6,100.0,standard,1.0,0.0,1.0,
206,0.0,decreament,0.6,100.0,standard,1.0,0.0,1.0,
207,0.0,decreament,0.6,100.0,standard,1.0,0.0,1.0,
208,0.0,decreament,0.6,100.0,standard,1.0,0.0,1.0,
209,0.0,decreament,0.6,100.0,standard,1.0,0.0,1.0,
210,0.0,increament,0.6,100.0,standard,5.0,0.0,1.0,
211,0.0,increament,0.6,100.0,standard,5.0,0.0,1.0,
212,0.0,increament,0.6,100.0,standard,5.0,0.0,1.0,
213,0.0,increament,0.6,100.0,standard,5.0,0.0,1.0,
214,0.0,increament,0.6,100.0,standard,5.0,0.0,1.0,
215,0.0,increament,0.6,100.0,standard,5.0,0.0,1.0,
216,0.0,increament,0.6,100.0,standard,5.0,0.0,1.0,
217,0.0,increament,0.6,100.0,standard,5.0,0.0,1.0,
218,0.0,increament,0.6,100.0,standard,5.0,0.0,1.0,
219,0.0,increament,0.6,100.0,standard,5.0,0.0,1.0,
220,0.0,increament,0.6,100.0,standard,5.0,0.0,1.0,
221,0.0,increament,0.6,100.0,standard,5.0,0.0,1.0,
222,0.0,increament,0.96,160.0,oddball,8.0,0.0,1.0,0.3771818000823259
223,0.0,increament,0.6,100.0,standard,5.0,0.0,1.0,
224,0.0,increament,0.6,100.0,standard,5.0,0.0,1.0,
225,0.0,increament,0.6,100.0,standard,5.0,0.0,1.0,
226,0.0,increament,0.6,100.0,standard,5.0,0.0,1.0,
227,0.0,increament,0.84,140.0,oddball,7.0,0.0,0.0,
228,0.0,increament,0.6,100.0,standard,5.0,0.0,1.0,
229,0.0,increament,0.6,100.0,standard,5.0,0.0,1.0,
230,0.0,increament,0.6,100.0,standard,5.0,0.0,1.0,
231,0.0,increament,0.6,100.0,standard,5.0,0.0,1.0,
232,0.0,increament,0.6,100.0,standard,5.0,0.0,1.0,
233,0.0,increament,0.6,100.0,standard,5.0,0.0,1.0,
234,0.0,increament,0.6,100.0,standard,5.0,0.0,1.0,
235,0.0,increament,0.6,100.0,standard,5.0,0.0,1.0,
236,0.0,increament,0.72,120.0,oddball,6.0,0.0,0.0,
237,0.0,increament,0.6,100.0,standard,5.0,0.0,1.0,
238,0.0,increament,0.6,100.0,standard,5.0,0.0,1.0,
239,0.0,increament,0.6,100.0,standard,5.0,0.0,1.0,
240,0.0,decreament,0.6,100.0,standard,1.0,0.0,1.0,
241,0.0,decreament,0.6,100.0,standard,1.0,0.0,1.0,
242,0.0,decreament,0.6,100.0,standard,1.0,0.0,1.0,
243,0.0,decreament,0.6,100.0,standard,1.0,0.0,1.0,
244,0.0,decreament,0.6,100.0,standard,1.0,0.0,1.0,
245,0.0,decreament,0.6,100.0,standard,1.0,0.0,1.0,
246,0.0,decreament,0.48,80.0,oddball,4.0,0.0,0.0,
247,0.0,decreament,0.6,100.0,standard,1.0,0.0,1.0,
248,0.0,decreament,0.6,100.0,standard,1.0,0.0,1.0,
249,0.0,decreament,0.6,100.0,standard,1.0,0.0,1.0,
250,0.0,decreament,0.6,100.0,standard,1.0,0.0,1.0,
251,0.0,decreament,0.6,100.0,standard,1.0,0.0,0.0,0.6551227000309154
252,0.0,decreament,0.6,100.0,standard,1.0,0.0,1.0,
253,0.0,decreament,0.6,100.0,standard,1.0,0.0,1.0,
254,0.0,decreament,0.24,40.0,oddball,2.0,0.0,1.0,0.6483519000466913
255,0.0,decreament,0.6,100.0,standard,1.0,0.0,1.0,
256,0.0,decreament,0.6,100.0,standard,1.0,0.0,1.0,
257,0.0,decreament,0.6,100.0,standard,1.0,0.0,1.0,
258,0.0,decreament,0.36,60.0,oddball,3.0,0.0,1.0,0.5179966000141576
259,0.0,decreament,0.6,100.0,standard,1.0,0.0,1.0,
260,0.0,decreament,0.6,100.0,standard,1.0,0.0,1.0,
261,0.0,decreament,0.6,100.0,standard,1.0,0.0,1.0,
262,0.0,decreament,0.6,100.0,standard,1.0,0.0,1.0,
263,0.0,decreament,0.6,100.0,standard,1.0,0.0,1.0,
264,0.0,decreament,0.6,100.0,standard,1.0,0.0,1.0,
265,0.0,decreament,0.6,100.0,standard,1.0,0.0,1.0,
266,0.0,decreament,0.6,100.0,standard,1.0,0.0,1.0,
267,0.0,decreament,0.6,100.0,standard,1.0,0.0,1.0,
268,0.0,decreament,0.6,100.0,standard,1.0,0.0,1.0,
269,0.0,decreament,0.6,100.0,standard,1.0,0.0,1.0,
270,0.0,increament,0.6,100.0,standard,5.0,0.0,1.0,
271,0.0,increament,0.6,100.0,standard,5.0,0.0,1.0,
272,0.0,increament,0.6,100.0,standard,5.0,0.0,1.0,
273,0.0,increament,0.6,100.0,standard,5.0,0.0,1.0,
274,0.0,increament,0.6,100.0,standard,5.0,0.0,1.0,
275,0.0,increament,0.6,100.0,standard,5.0,0.0,1.0,
276,0.0,increament,0.6,100.0,standard,5.0,0.0,1.0,
277,0.0,increament,0.6,100.0,standard,5.0,0.0,0.0,0.4859731999458745
278,0.0,increament,0.6,100.0,standard,5.0,0.0,1.0,
279,0.0,increament,0.6,100.0,standard,5.0,0.0,1.0,
280,0.0,increament,0.6,100.0,standard,5.0,0.0,1.0,
281,0.0,increament,0.6,100.0,standard,5.0,0.0,1.0,
282,0.0,increament,0.6,100.0,standard,5.0,0.0,1.0,
283,0.0,increament,0.6,100.0,standard,5.0,0.0,1.0,
284,0.0,increament,0.6,100.0,standard,5.0,0.0,1.0,
285,0.0,increament,0.84,140.0,oddball,7.0,0.0,0.0,
286,0.0,increament,0.6,100.0,standard,5.0,0.0,1.0,
287,0.0,increament,0.6,100.0,standard,5.0,0.0,1.0,
288,0.0,increament,0.6,100.0,standard,5.0,0.0,1.0,
289,0.0,increament,0.6,100.0,standard,5.0,0.0,1.0,
290,0.0,increament,0.6,100.0,standard,5.0,0.0,1.0,
291,0.0,increament,0.6,100.0,standard,5.0,0.0,1.0,
292,0.0,increament,0.72,120.0,oddball,6.0,0.0,0.0,
293,0.0,increament,0.6,100.0,standard,5.0,0.0,1.0,
294,0.0,increament,0.6,100.0,standard,5.0,0.0,1.0,
295,0.0,increament,0.6,100.0,standard,5.0,0.0,1.0,
296,0.0,increament,0.96,160.0,oddball,8.0,0.0,1.0,0.5541954000946134
297,0.0,increament,0.6,100.0,standard,5.0,0.0,1.0,
298,0.0,increament,0.6,100.0,standard,5.0,0.0,1.0,
299,0.0,increament,0.6,100.0,standard,5.0,0.0,1.0,
300,5.0,decreament,0.6,100.0,standard,11.0,1.0,1.0,
301,5.0,decreament,0.6,100.0,standard,11.0,1.0,1.0,
302,5.0,decreament,0.6,100.0,standard,11.0,1.0,1.0,
303,5.0,decreament,0.6,100.0,standard,11.0,1.0,1.0,
304,5.0,decreament,0.6,100.0,standard,11.0,1.0,1.0,
305,5.0,decreament,0.6,100.0,standard,11.0,1.0,1.0,
306,5.0,decreament,0.48,80.0,oddball,14.0,1.0,0.0,
307,5.0,decreament,0.6,100.0,standard,11.0,1.0,1.0,
308,5.0,decreament,0.6,100.0,standard,11.0,1.0,1.0,
309,5.0,decreament,0.6,100.0,standard,11.0,1.0,1.0,
310,5.0,decreament,0.6,100.0,standard,11.0,1.0,1.0,
311,5.0,decreament,0.6,100.0,standard,11.0,1.0,1.0,
312,5.0,decreament,0.36,60.0,oddball,13.0,1.0,1.0,0.705025100032799
313,5.0,decreament,0.6,100.0,standard,11.0,1.0,1.0,
314,5.0,decreament,0.6,100.0,standard,11.0,1.0,1.0,
315,5.0,decreament,0.6,100.0,standard,11.0,1.0,1.0,
316,5.0,decreament,0.6,100.0,standard,11.0,1.0,1.0,
317,5.0,decreament,0.6,100.0,standard,11.0,1.0,1.0,
318,5.0,decreament,0.6,100.0,standard,11.0,1.0,1.0,
319,5.0,decreament,0.6,100.0,standard,11.0,1.0,1.0,
320,5.0,decreament,0.6,100.0,standard,11.0,1.0,1.0,
321,5.0,decreament,0.6,100.0,standard,11.0,1.0,1.0,
322,5.0,decreament,0.6,100.0,standard,11.0,1.0,1.0,
323,5.0,decreament,0.6,100.0,standard,11.0,1.0,1.0,
324,5.0,decreament,0.24,40.0,oddball,12.0,1.0,1.0,0.6466653000097722
325,5.0,decreament,0.6,100.0,standard,11.0,1.0,1.0,
326,5.0,decreament,0.6,100.0,standard,11.0,1.0,1.0,
327,5.0,decreament,0.6,100.0,standard,11.0,1.0,1.0,
328,5.0,decreament,0.6,100.0,standard,11.0,1.0,1.0,
329,5.0,decreament,0.6,100.0,standard,11.0,1.0,1.0,
330,5.0,increament,0.6,100.0,standard,15.0,1.0,1.0,
331,5.0,increament,0.6,100.0,standard,15.0,1.0,1.0,
332,5.0,increament,0.6,100.0,standard,15.0,1.0,1.0,
333,5.0,increament,0.6,100.0,standard,15.0,1.0,1.0,
334,5.0,increament,0.6,100.0,standard,15.0,1.0,1.0,
335,5.0,increament,0.96,160.0,oddball,18.0,1.0,1.0,0.5010481999488547
336,5.0,increament,0.6,100.0,standard,15.0,1.0,1.0,
337,5.0,increament,0.6,100.0,standard,15.0,1.0,1.0,
338,5.0,increament,0.6,100.0,standard,15.0,1.0,1.0,
339,5.0,increament,0.84,140.0,oddball,17.0,1.0,1.0,0.4760468000313267
340,5.0,increament,0.6,100.0,standard,15.0,1.0,1.0,
341,5.0,increament,0.6,100.0,standard,15.0,1.0,1.0,
342,5.0,increament,0.6,100.0,standard,15.0,1.0,1.0,
343,5.0,increament,0.6,100.0,standard,15.0,1.0,1.0,
344,5.0,increament,0.6,100.0,standard,15.0,1.0,1.0,
345,5.0,increament,0.6,100.0,standard,15.0,1.0,1.0,
346,5.0,increament,0.6,100.0,standard,15.0,1.0,1.0,
347,5.0,increament,0.6,100.0,standard,15.0,1.0,1.0,
348,5.0,increament,0.6,100.0,standard,15.0,1.0,1.0,
349,5.0,increament,0.72,120.0,oddball,16.0,1.0,0.0,
350,5.0,increament,0.6,100.0,standard,15.0,1.0,1.0,
351,5.0,increament,0.6,100.0,standard,15.0,1.0,1.0,
352,5.0,increament,0.6,100.0,standard,15.0,1.0,1.0,
353,5.0,increament,0.6,100.0,standard,15.0,1.0,1.0,
354,5.0,increament,0.6,100.0,standard,15.0,1.0,1.0,
355,5.0,increament,0.6,100.0,standard,15.0,1.0,1.0,
356,5.0,increament,0.6,100.0,standard,15.0,1.0,1.0,
357,5.0,increament,0.6,100.0,standard,15.0,1.0,1.0,
358,5.0,increament,0.6,100.0,standard,15.0,1.0,1.0,
359,5.0,increament,0.6,100.0,standard,15.0,1.0,1.0,
360,5.0,decreament,0.6,100.0,standard,11.0,1.0,1.0,
361,5.0,decreament,0.6,100.0,standard,11.0,1.0,1.0,
362,5.0,decreament,0.6,100.0,standard,11.0,1.0,1.0,
363,5.0,decreament,0.6,100.0,standard,11.0,1.0,1.0,
364,5.0,decreament,0.6,100.0,standard,11.0,1.0,1.0,
365,5.0,decreament,0.36,60.0,oddball,13.0,1.0,0.0,
366,5.0,decreament,0.6,100.0,standard,11.0,1.0,1.0,
367,5.0,decreament,0.6,100.0,standard,11.0,1.0,1.0,
368,5.0,decreament,0.6,100.0,standard,11.0,1.0,1.0,
369,5.0,decreament,0.6,100.0,standard,11.0,1.0,1.0,
370,5.0,decreament,0.6,100.0,standard,11.0,1.0,1.0,
371,5.0,decreament,0.6,100.0,standard,11.0,1.0,1.0,
372,5.0,decreament,0.6,100.0,standard,11.0,1.0,1.0,
373,5.0,decreament,0.6,100.0,standard,11.0,1.0,1.0,
374,5.0,decreament,0.6,100.0,standard,11.0,1.0,1.0,
375,5.0,decreament,0.6,100.0,standard,11.0,1.0,1.0,
376,5.0,decreament,0.6,100.0,standard,11.0,1.0,1.0,
377,5.0,decreament,0.24,40.0,oddball,12.0,1.0,1.0,0.4564527000766247
378,5.0,decreament,0.6,100.0,standard,11.0,1.0,1.0,
379,5.0,decreament,0.6,100.0,standard,11.0,1.0,1.0,
380,5.0,decreament,0.6,100.0,standard,11.0,1.0,1.0,
381,5.0,decreament,0.6,100.0,standard,11.0,1.0,1.0,
382,5.0,decreament,0.6,100.0,standard,11.0,1.0,1.0,
383,5.0,decreament,0.6,100.0,standard,11.0,1.0,1.0,
384,5.0,decreament,0.48,80.0,oddball,14.0,1.0,1.0,0.6644442999968305
385,5.0,decreament,0.6,100.0,standard,11.0,1.0,1.0,
386,5.0,decreament,0.6,100.0,standard,11.0,1.0,1.0,
387,5.0,decreament,0.6,100.0,standard,11.0,1.0,1.0,
388,5.0,decreament,0.6,100.0,standard,11.0,1.0,1.0,
389,5.0,decreament,0.6,100.0,standard,11.0,1.0,1.0,
390,5.0,increament,0.6,100.0,standard,15.0,1.0,1.0,
391,5.0,increament,0.6,100.0,standard,15.0,1.0,1.0,
392,5.0,increament,0.6,100.0,standard,15.0,1.0,1.0,
393,5.0,increament,0.6,100.0,standard,15.0,1.0,1.0,
394,5.0,increament,0.6,100.0,standard,15.0,1.0,1.0,
395,5.0,increament,0.6,100.0,standard,15.0,1.0,1.0,
396,5.0,increament,0.6,100.0,standard,15.0,1.0,1.0,
397,5.0,increament,0.6,100.0,standard,15.0,1.0,1.0,
398,5.0,increament,0.6,100.0,standard,15.0,1.0,1.0,
399,5.0,increament,0.6,100.0,standard,15.0,1.0,1.0,
400,5.0,increament,0.6,100.0,standard,15.0,1.0,1.0,
401,5.0,increament,0.6,100.0,standard,15.0,1.0,1.0,
402,5.0,increament,0.6,100.0,standard,15.0,1.0,1.0,
403,5.0,increament,0.6,100.0,standard,15.0,1.0,1.0,
404,5.0,increament,0.96,160.0,oddball,18.0,1.0,1.0,0.2780511999735608
405,5.0,increament,0.6,100.0,standard,15.0,1.0,1.0,
406,5.0,increament,0.6,100.0,standard,15.0,1.0,1.0,
407,5.0,increament,0.6,100.0,standard,15.0,1.0,1.0,
408,5.0,increament,0.6,100.0,standard,15.0,1.0,1.0,
409,5.0,increament,0.6,100.0,standard,15.0,1.0,1.0,
410,5.0,increament,0.6,100.0,standard,15.0,1.0,1.0,
411,5.0,increament,0.6,100.0,standard,15.0,1.0,1.0,
412,5.0,increament,0.6,100.0,standard,15.0,1.0,1.0,
413,5.0,increament,0.72,120.0,oddball,16.0,1.0,0.0,
414,5.0,increament,0.6,100.0,standard,15.0,1.0,1.0,
415,5.0,increament,0.6,100.0,standard,15.0,1.0,1.0,
416,5.0,increament,0.6,100.0,standard,15.0,1.0,1.0,
417,5.0,increament,0.84,140.0,oddball,17.0,1.0,1.0,0.7881360000465065
418,5.0,increament,0.6,100.0,standard,15.0,1.0,1.0,
419,5.0,increament,0.6,100.0,standard,15.0,1.0,1.0,
420,5.0,decreament,0.6,100.0,standard,11.0,1.0,1.0,
421,5.0,decreament,0.6,100.0,standard,11.0,1.0,1.0,
422,5.0,decreament,0.6,100.0,standard,11.0,1.0,1.0,
423,5.0,decreament,0.6,100.0,standard,11.0,1.0,1.0,
424,5.0,decreament,0.6,100.0,standard,11.0,1.0,1.0,
425,5.0,decreament,0.6,100.0,standard,11.0,1.0,1.0,
426,5.0,decreament,0.6,100.0,standard,11.0,1.0,1.0,
427,5.0,decreament,0.6,100.0,standard,11.0,1.0,1.0,
428,5.0,decreament,0.6,100.0,standard,11.0,1.0,1.0,
429,5.0,decreament,0.6,100.0,standard,11.0,1.0,1.0,
430,5.0,decreament,0.6,100.0,standard,11.0,1.0,1.0,
431,5.0,decreament,0.6,100.0,standard,11.0,1.0,1.0,
432,5.0,decreament,0.6,100.0,standard,11.0,1.0,1.0,
433,5.0,decreament,0.6,100.0,standard,11.0,1.0,1.0,
434,5.0,decreament,0.6,100.0,standard,11.0,1.0,1.0,
435,5.0,decreament,0.36,60.0,oddball,13.0,1.0,1.0,0.8832582000177354
436,5.0,decreament,0.6,100.0,standard,11.0,1.0,1.0,
437,5.0,decreament,0.6,100.0,standard,11.0,1.0,1.0,
438,5.0,decreament,0.6,100.0,standard,11.0,1.0,1.0,
439,5.0,decreament,0.6,100.0,standard,11.0,1.0,1.0,
440,5.0,decreament,0.24,40.0,oddball,12.0,1.0,1.0,0.8376120999455452
441,5.0,decreament,0.6,100.0,standard,11.0,1.0,1.0,
442,5.0,decreament,0.6,100.0,standard,11.0,1.0,1.0,
443,5.0,decreament,0.6,100.0,standard,11.0,1.0,1.0,
444,5.0,decreament,0.48,80.0,oddball,14.0,1.0,0.0,
445,5.0,decreament,0.6,100.0,standard,11.0,1.0,1.0,
446,5.0,decreament,0.6,100.0,standard,11.0,1.0,1.0,
447,5.0,decreament,0.6,100.0,standard,11.0,1.0,1.0,
448,5.0,decreament,0.6,100.0,standard,11.0,1.0,1.0,
449,5.0,decreament,0.6,100.0,standard,11.0,1.0,1.0,
450,5.0,increament,0.6,100.0,standard,15.0,1.0,1.0,
451,5.0,increament,0.6,100.0,standard,15.0,1.0,1.0,
452,5.0,increament,0.6,100.0,standard,15.0,1.0,1.0,
453,5.0,increament,0.6,100.0,standard,15.0,1.0,1.0,
454,5.0,increament,0.6,100.0,standard,15.0,1.0,1.0,
455,5.0,increament,0.6,100.0,standard,15.0,1.0,1.0,
456,5.0,increament,0.84,140.0,oddball,17.0,1.0,1.0,0.3077166000148281
457,5.0,increament,0.6,100.0,standard,15.0,1.0,1.0,
458,5.0,increament,0.6,100.0,standard,15.0,1.0,1.0,
459,5.0,increament,0.6,100.0,standard,15.0,1.0,1.0,
460,5.0,increament,0.6,100.0,standard,15.0,1.0,1.0,
461,5.0,increament,0.6,100.0,standard,15.0,1.0,1.0,
462,5.0,increament,0.6,100.0,standard,15.0,1.0,1.0,
463,5.0,increament,0.6,100.0,standard,15.0,1.0,1.0,
464,5.0,increament,0.6,100.0,standard,15.0,1.0,1.0,
465,5.0,increament,0.96,160.0,oddball,18.0,1.0,1.0,0.8225076999515295
466,5.0,increament,0.6,100.0,standard,15.0,1.0,1.0,
467,5.0,increament,0.6,100.0,standard,15.0,1.0,1.0,
468,5.0,increament,0.6,100.0,standard,15.0,1.0,1.0,
469,5.0,increament,0.72,120.0,oddball,16.0,1.0,0.0,
470,5.0,increament,0.6,100.0,standard,15.0,1.0,1.0,
471,5.0,increament,0.6,100.0,standard,15.0,1.0,1.0,
472,5.0,increament,0.6,100.0,standard,15.0,1.0,1.0,
473,5.0,increament,0.6,100.0,standard,15.0,1.0,1.0,
474,5.0,increament,0.6,100.0,standard,15.0,1.0,1.0,
475,5.0,increament,0.6,100.0,standard,15.0,1.0,1.0,
476,5.0,increament,0.6,100.0,standard,15.0,1.0,1.0,
477,5.0,increament,0.6,100.0,standard,15.0,1.0,1.0,
478,5.0,increament,0.6,100.0,standard,15.0,1.0,1.0,
479,5.0,increament,0.6,100.0,standard,15.0,1.0,1.0,
480,5.0,decreament,0.6,100.0,standard,11.0,1.0,1.0,
481,5.0,decreament,0.6,100.0,standard,11.0,1.0,1.0,
482,5.0,decreament,0.6,100.0,standard,11.0,1.0,1.0,
483,5.0,decreament,0.6,100.0,standard,11.0,1.0,1.0,
484,5.0,decreament,0.6,100.0,standard,11.0,1.0,1.0,
485,5.0,decreament,0.6,100.0,standard,11.0,1.0,1.0,
486,5.0,decreament,0.6,100.0,standard,11.0,1.0,1.0,
487,5.0,decreament,0.6,100.0,standard,11.0,1.0,1.0,
488,5.0,decreament,0.6,100.0,standard,11.0,1.0,1.0,
489,5.0,decreament,0.6,100.0,standard,11.0,1.0,1.0,
490,5.0,decreament,0.6,100.0,standard,11.0,1.0,1.0,
491,5.0,decreament,0.6,100.0,standard,11.0,1.0,1.0,
492,5.0,decreament,0.6,100.0,standard,11.0,1.0,1.0,
493,5.0,decreament,0.36,60.0,oddball,13.0,1.0,1.0,0.6076827000360936
494,5.0,decreament,0.6,100.0,standard,11.0,1.0,1.0,
495,5.0,decreament,0.6,100.0,standard,11.0,1.0,1.0,
496,5.0,decreament,0.6,100.0,standard,11.0,1.0,1.0,
497,5.0,decreament,0.6,100.0,standard,11.0,1.0,1.0,
498,5.0,decreament,0.48,80.0,oddball,14.0,1.0,0.0,
499,5.0,decreament,0.6,100.0,standard,11.0,1.0,1.0,
500,5.0,decreament,0.6,100.0,standard,11.0,1.0,1.0,
501,5.0,decreament,0.6,100.0,standard,11.0,1.0,1.0,
502,5.0,decreament,0.6,100.0,standard,11.0,1.0,1.0,
503,5.0,decreament,0.6,100.0,standard,11.0,1.0,1.0,
504,5.0,decreament,0.6,100.0,standard,11.0,1.0,1.0,
505,5.0,decreament,0.6,100.0,standard,11.0,1.0,1.0,
506,5.0,decreament,0.24,40.0,oddball,12.0,1.0,1.0,0.6420140999834985
507,5.0,decreament,0.6,100.0,standard,11.0,1.0,1.0,
508,5.0,decreament,0.6,100.0,standard,11.0,1.0,1.0,
509,5.0,decreament,0.6,100.0,standard,11.0,1.0,1.0,
510,5.0,increament,0.6,100.0,standard,15.0,1.0,1.0,
511,5.0,increament,0.6,100.0,standard,15.0,1.0,1.0,
512,5.0,increament,0.6,100.0,standard,15.0,1.0,1.0,
513,5.0,increament,0.6,100.0,standard,15.0,1.0,1.0,
514,5.0,increament,0.6,100.0,standard,15.0,1.0,1.0,
515,5.0,increament,0.6,100.0,standard,15.0,1.0,1.0,
516,5.0,increament,0.6,100.0,standard,15.0,1.0,1.0,
517,5.0,increament,0.6,100.0,standard,15.0,1.0,1.0,
518,5.0,increament,0.6,100.0,standard,15.0,1.0,1.0,
519,5.0,increament,0.6,100.0,standard,15.0,1.0,1.0,
520,5.0,increament,0.84,140.0,oddball,17.0,1.0,1.0,0.9205190000357106
521,5.0,increament,0.6,100.0,standard,15.0,1.0,1.0,
522,5.0,increament,0.6,100.0,standard,15.0,1.0,1.0,
523,5.0,increament,0.6,100.0,standard,15.0,1.0,1.0,
524,5.0,increament,0.6,100.0,standard,15.0,1.0,1.0,
525,5.0,increament,0.6,100.0,standard,15.0,1.0,1.0,
526,5.0,increament,0.6,100.0,standard,15.0,1.0,1.0,
527,5.0,increament,0.6,100.0,standard,15.0,1.0,1.0,
528,5.0,increament,0.6,100.0,standard,15.0,1.0,1.0,
529,5.0,increament,0.6,100.0,standard,15.0,1.0,1.0,
530,5.0,increament,0.6,100.0,standard,15.0,1.0,1.0,
531,5.0,increament,0.6,100.0,standard,15.0,1.0,1.0,
532,5.0,increament,0.6,100.0,standard,15.0,1.0,1.0,
533,5.0,increament,0.6,100.0,standard,15.0,1.0,1.0,
534,5.0,increament,0.96,160.0,oddball,18.0,1.0,1.0,0.3339770000893622
535,5.0,increament,0.6,100.0,standard,15.0,1.0,1.0,
536,5.0,increament,0.6,100.0,standard,15.0,1.0,1.0,
537,5.0,increament,0.6,100.0,standard,15.0,1.0,1.0,
538,5.0,increament,0.72,120.0,oddball,16.0,1.0,0.0,
539,5.0,increament,0.6,100.0,standard,15.0,1.0,1.0,
540,5.0,decreament,0.6,100.0,standard,11.0,1.0,1.0,
541,5.0,decreament,0.6,100.0,standard,11.0,1.0,1.0,
542,5.0,decreament,0.6,100.0,standard,11.0,1.0,1.0,
543,5.0,decreament,0.6,100.0,standard,11.0,1.0,1.0,
544,5.0,decreament,0.6,100.0,standard,11.0,1.0,1.0,
545,5.0,decreament,0.6,100.0,standard,11.0,1.0,1.0,
546,5.0,decreament,0.6,100.0,standard,11.0,1.0,1.0,
547,5.0,decreament,0.6,100.0,standard,11.0,1.0,1.0,
548,5.0,decreament,0.48,80.0,oddball,14.0,1.0,0.0,
549,5.0,decreament,0.6,100.0,standard,11.0,1.0,1.0,
550,5.0,decreament,0.6,100.0,standard,11.0,1.0,1.0,
551,5.0,decreament,0.6,100.0,standard,11.0,1.0,1.0,
552,5.0,decreament,0.6,100.0,standard,11.0,1.0,1.0,
553,5.0,decreament,0.6,100.0,standard,11.0,1.0,1.0,
554,5.0,decreament,0.6,100.0,standard,11.0,1.0,1.0,
555,5.0,decreament,0.6,100.0,standard,11.0,1.0,1.0,
556,5.0,decreament,0.6,100.0,standard,11.0,1.0,1.0,
557,5.0,decreament,0.24,40.0,oddball,12.0,1.0,1.0,0.584374500089325
558,5.0,decreament,0.6,100.0,standard,11.0,1.0,1.0,
559,5.0,decreament,0.6,100.0,standard,11.0,1.0,1.0,
560,5.0,decreament,0.6,100.0,standard,11.0,1.0,1.0,
561,5.0,decreament,0.6,100.0,standard,11.0,1.0,1.0,
562,5.0,decreament,0.36,60.0,oddball,13.0,1.0,0.0,
563,5.0,decreament,0.6,100.0,standard,11.0,1.0,1.0,
564,5.0,decreament,0.6,100.0,standard,11.0,1.0,1.0,
565,5.0,decreament,0.6,100.0,standard,11.0,1.0,1.0,
566,5.0,decreament,0.6,100.0,standard,11.0,1.0,1.0,
567,5.0,decreament,0.6,100.0,standard,11.0,1.0,1.0,
568,5.0,decreament,0.6,100.0,standard,11.0,1.0,1.0,
569,5.0,decreament,0.6,100.0,standard,11.0,1.0,1.0,
570,5.0,increament,0.6,100.0,standard,15.0,1.0,1.0,
571,5.0,increament,0.6,100.0,standard,15.0,1.0,1.0,
572,5.0,increament,0.6,100.0,standard,15.0,1.0,1.0,
573,5.0,increament,0.6,100.0,standard,15.0,1.0,1.0,
574,5.0,increament,0.6,100.0,standard,15.0,1.0,1.0,
575,5.0,increament,0.6,100.0,standard,15.0,1.0,1.0,
576,5.0,increament,0.6,100.0,standard,15.0,1.0,1.0,
577,5.0,increament,0.6,100.0,standard,15.0,1.0,1.0,
578,5.0,increament,0.6,100.0,standard,15.0,1.0,1.0,
579,5.0,increament,0.6,100.0,standard,15.0,1.0,1.0,
580,5.0,increament,0.6,100.0,standard,15.0,1.0,1.0,
581,5.0,increament,0.84,140.0,oddball,17.0,1.0,1.0,0.4520916999317705
582,5.0,increament,0.6,100.0,standard,15.0,1.0,1.0,
583,5.0,increament,0.6,100.0,standard,15.0,1.0,1.0,
584,5.0,increament,0.6,100.0,standard,15.0,1.0,1.0,
585,5.0,increament,0.96,160.0,oddball,18.0,1.0,0.0,
586,5.0,increament,0.6,100.0,standard,15.0,1.0,1.0,
587,5.0,increament,0.6,100.0,standard,15.0,1.0,1.0,
588,5.0,increament,0.6,100.0,standard,15.0,1.0,1.0,
589,5.0,increament,0.6,100.0,standard,15.0,1.0,1.0,
590,5.0,increament,0.6,100.0,standard,15.0,1.0,1.0,
591,5.0,increament,0.6,100.0,standard,15.0,1.0,1.0,
592,5.0,increament,0.6,100.0,standard,15.0,1.0,1.0,
593,5.0,increament,0.6,100.0,standard,15.0,1.0,1.0,
594,5.0,increament,0.6,100.0,standard,15.0,1.0,1.0,
595,5.0,increament,0.72,120.0,oddball,16.0,1.0,0.0,
596,5.0,increament,0.6,100.0,standard,15.0,1.0,1.0,
597,5.0,increament,0.6,100.0,standard,15.0,1.0,1.0,
598,5.0,increament,0.6,100.0,standard,15.0,1.0,1.0,
599,5.0,increament,0.6,100.0,standard,15.0,1.0,1.0,
600,10.0,decreament,0.6,100.0,standard,21.0,2.0,1.0,
601,10.0,decreament,0.6,100.0,standard,21.0,2.0,1.0,
602,10.0,decreament,0.6,100.0,standard,21.0,2.0,1.0,
603,10.0,decreament,0.6,100.0,standard,21.0,2.0,1.0,
604,10.0,decreament,0.6,100.0,standard,21.0,2.0,1.0,
605,10.0,decreament,0.6,100.0,standard,21.0,2.0,1.0,
606,10.0,decreament,0.6,100.0,standard,21.0,2.0,1.0,
607,10.0,decreament,0.36,60.0,oddball,23.0,2.0,1.0,0.9070373000577092
608,10.0,decreament,0.6,100.0,standard,21.0,2.0,1.0,
609,10.0,decreament,0.6,100.0,standard,21.0,2.0,1.0,
610,10.0,decreament,0.6,100.0,standard,21.0,2.0,1.0,
611,10.0,decreament,0.6,100.0,standard,21.0,2.0,1.0,
612,10.0,decreament,0.6,100.0,standard,21.0,2.0,1.0,
613,10.0,decreament,0.6,100.0,standard,21.0,2.0,1.0,
614,10.0,decreament,0.6,100.0,standard,21.0,2.0,1.0,
615,10.0,decreament,0.6,100.0,standard,21.0,2.0,1.0,
616,10.0,decreament,0.6,100.0,standard,21.0,2.0,1.0,
617,10.0,decreament,0.6,100.0,standard,21.0,2.0,1.0,
618,10.0,decreament,0.6,100.0,standard,21.0,2.0,1.0,
619,10.0,decreament,0.6,100.0,standard,21.0,2.0,1.0,
620,10.0,decreament,0.24,40.0,oddball,22.0,2.0,1.0,0.7053922999184579
621,10.0,decreament,0.6,100.0,standard,21.0,2.0,1.0,
622,10.0,decreament,0.6,100.0,standard,21.0,2.0,1.0,
623,10.0,decreament,0.6,100.0,standard,21.0,2.0,1.0,
624,10.0,decreament,0.48,80.0,oddball,24.0,2.0,0.0,
625,10.0,decreament,0.6,100.0,standard,21.0,2.0,1.0,
626,10.0,decreament,0.6,100.0,standard,21.0,2.0,1.0,
627,10.0,decreament,0.6,100.0,standard,21.0,2.0,1.0,
628,10.0,decreament,0.6,100.0,standard,21.0,2.0,1.0,
629,10.0,decreament,0.6,100.0,standard,21.0,2.0,1.0,
630,10.0,increament,0.6,100.0,standard,25.0,2.0,1.0,
631,10.0,increament,0.6,100.0,standard,25.0,2.0,1.0,
632,10.0,increament,0.6,100.0,standard,25.0,2.0,1.0,
633,10.0,increament,0.6,100.0,standard,25.0,2.0,1.0,
634,10.0,increament,0.6,100.0,standard,25.0,2.0,1.0,
635,10.0,increament,0.6,100.0,standard,25.0,2.0,1.0,
636,10.0,increament,0.72,120.0,oddball,26.0,2.0,1.0,0.5241752000292763
637,10.0,increament,0.6,100.0,standard,25.0,2.0,1.0,
638,10.0,increament,0.6,100.0,standard,25.0,2.0,1.0,
639,10.0,increament,0.6,100.0,standard,25.0,2.0,1.0,
640,10.0,increament,0.6,100.0,standard,25.0,2.0,1.0,
641,10.0,increament,0.6,100.0,standard,25.0,2.0,1.0,
642,10.0,increament,0.6,100.0,standard,25.0,2.0,1.0,
643,10.0,increament,0.6,100.0,standard,25.0,2.0,1.0,
644,10.0,increament,0.6,100.0,standard,25.0,2.0,1.0,
645,10.0,increament,0.6,100.0,standard,25.0,2.0,1.0,
646,10.0,increament,0.6,100.0,standard,25.0,2.0,1.0,
647,10.0,increament,0.6,100.0,standard,25.0,2.0,1.0,
648,10.0,increament,0.6,100.0,standard,25.0,2.0,1.0,
649,10.0,increament,0.6,100.0,standard,25.0,2.0,1.0,
650,10.0,increament,0.6,100.0,standard,25.0,2.0,1.0,
651,10.0,increament,0.6,100.0,standard,25.0,2.0,1.0,
652,10.0,increament,0.6,100.0,standard,25.0,2.0,1.0,
653,10.0,increament,0.6,100.0,standard,25.0,2.0,1.0,
654,10.0,increament,0.6,100.0,standard,25.0,2.0,1.0,
655,10.0,increament,0.96,160.0,oddball,28.0,2.0,1.0,0.7340487000765279
656,10.0,increament,0.6,100.0,standard,25.0,2.0,1.0,
657,10.0,increament,0.6,100.0,standard,25.0,2.0,1.0,
658,10.0,increament,0.6,100.0,standard,25.0,2.0,1.0,
659,10.0,increament,0.84,140.0,oddball,27.0,2.0,1.0,0.4823735000099987
660,10.0,decreament,0.6,100.0,standard,21.0,2.0,1.0,
661,10.0,decreament,0.6,100.0,standard,21.0,2.0,1.0,
662,10.0,decreament,0.6,100.0,standard,21.0,2.0,1.0,
663,10.0,decreament,0.6,100.0,standard,21.0,2.0,1.0,
664,10.0,decreament,0.6,100.0,standard,21.0,2.0,1.0,
665,10.0,decreament,0.6,100.0,standard,21.0,2.0,1.0,
666,10.0,decreament,0.24,40.0,oddball,22.0,2.0,1.0,0.677906799945049
667,10.0,decreament,0.6,100.0,standard,21.0,2.0,1.0,
668,10.0,decreament,0.6,100.0,standard,21.0,2.0,1.0,
669,10.0,decreament,0.6,100.0,standard,21.0,2.0,1.0,
670,10.0,decreament,0.6,100.0,standard,21.0,2.0,1.0,
671,10.0,decreament,0.6,100.0,standard,21.0,2.0,1.0,
672,10.0,decreament,0.6,100.0,standard,21.0,2.0,1.0,
673,10.0,decreament,0.6,100.0,standard,21.0,2.0,1.0,
674,10.0,decreament,0.6,100.0,standard,21.0,2.0,1.0,
675,10.0,decreament,0.6,100.0,standard,21.0,2.0,1.0,
676,10.0,decreament,0.36,60.0,oddball,23.0,2.0,0.0,
677,10.0,decreament,0.6,100.0,standard,21.0,2.0,1.0,
678,10.0,decreament,0.6,100.0,standard,21.0,2.0,1.0,
679,10.0,decreament,0.6,100.0,standard,21.0,2.0,1.0,
680,10.0,decreament,0.48,80.0,oddball,24.0,2.0,0.0,
681,10.0,decreament,0.6,100.0,standard,21.0,2.0,1.0,
682,10.0,decreament,0.6,100.0,standard,21.0,2.0,1.0,
683,10.0,decreament,0.6,100.0,standard,21.0,2.0,1.0,
684,10.0,decreament,0.6,100.0,standard,21.0,2.0,1.0,
685,10.0,decreament,0.6,100.0,standard,21.0,2.0,1.0,
686,10.0,decreament,0.6,100.0,standard,21.0,2.0,1.0,
687,10.0,decreament,0.6,100.0,standard,21.0,2.0,1.0,
688,10.0,decreament,0.6,100.0,standard,21.0,2.0,1.0,
689,10.0,decreament,0.6,100.0,standard,21.0,2.0,1.0,
690,10.0,increament,0.6,100.0,standard,25.0,2.0,1.0,
691,10.0,increament,0.6,100.0,standard,25.0,2.0,1.0,
692,10.0,increament,0.6,100.0,standard,25.0,2.0,1.0,
693,10.0,increament,0.6,100.0,standard,25.0,2.0,1.0,
694,10.0,increament,0.6,100.0,standard,25.0,2.0,1.0,
695,10.0,increament,0.6,100.0,standard,25.0,2.0,1.0,
696,10.0,increament,0.6,100.0,standard,25.0,2.0,1.0,
697,10.0,increament,0.6,100.0,standard,25.0,2.0,1.0,
698,10.0,increament,0.6,100.0,standard,25.0,2.0,0.0,0.6626143000321463
699,10.0,increament,0.96,160.0,oddball,28.0,2.0,1.0,0.3946524999337271
700,10.0,increament,0.6,100.0,standard,25.0,2.0,1.0,
701,10.0,increament,0.6,100.0,standard,25.0,2.0,1.0,
702,10.0,increament,0.6,100.0,standard,25.0,2.0,1.0,
703,10.0,increament,0.6,100.0,standard,25.0,2.0,1.0,
704,10.0,increament,0.84,140.0,oddball,27.0,2.0,1.0,0.4478584999451414
705,10.0,increament,0.6,100.0,standard,25.0,2.0,1.0,
706,10.0,increament,0.6,100.0,standard,25.0,2.0,1.0,
707,10.0,increament,0.6,100.0,standard,25.0,2.0,1.0,
708,10.0,increament,0.6,100.0,standard,25.0,2.0,1.0,
709,10.0,increament,0.6,100.0,standard,25.0,2.0,1.0,
710,10.0,increament,0.6,100.0,standard,25.0,2.0,1.0,
711,10.0,increament,0.6,100.0,standard,25.0,2.0,1.0,
712,10.0,increament,0.72,120.0,oddball,26.0,2.0,0.0,
713,10.0,increament,0.6,100.0,standard,25.0,2.0,1.0,
714,10.0,increament,0.6,100.0,standard,25.0,2.0,1.0,
715,10.0,increament,0.6,100.0,standard,25.0,2.0,1.0,
716,10.0,increament,0.6,100.0,standard,25.0,2.0,1.0,
717,10.0,increament,0.6,100.0,standard,25.0,2.0,1.0,
718,10.0,increament,0.6,100.0,standard,25.0,2.0,1.0,
719,10.0,increament,0.6,100.0,standard,25.0,2.0,1.0,
720,10.0,decreament,0.6,100.0,standard,21.0,2.0,1.0,
721,10.0,decreament,0.6,100.0,standard,21.0,2.0,1.0,
722,10.0,decreament,0.6,100.0,standard,21.0,2.0,1.0,
723,10.0,decreament,0.6,100.0,standard,21.0,2.0,1.0,
724,10.0,decreament,0.6,100.0,standard,21.0,2.0,1.0,
725,10.0,decreament,0.6,100.0,standard,21.0,2.0,1.0,
726,10.0,decreament,0.6,100.0,standard,21.0,2.0,1.0,
727,10.0,decreament,0.6,100.0,standard,21.0,2.0,1.0,
728,10.0,decreament,0.6,100.0,standard,21.0,2.0,1.0,
729,10.0,decreament,0.6,100.0,standard,21.0,2.0,1.0,
730,10.0,decreament,0.6,100.0,standard,21.0,2.0,1.0,
731,10.0,decreament,0.6,100.0,standard,21.0,2.0,1.0,
732,10.0,decreament,0.6,100.0,standard,21.0,2.0,1.0,
733,10.0,decreament,0.6,100.0,standard,21.0,2.0,1.0,
734,10.0,decreament,0.6,100.0,standard,21.0,2.0,1.0,
735,10.0,decreament,0.24,40.0,oddball,22.0,2.0,1.0,0.7893345000920817
736,10.0,decreament,0.6,100.0,standard,21.0,2.0,1.0,
737,10.0,decreament,0.6,100.0,standard,21.0,2.0,1.0,
738,10.0,decreament,0.6,100.0,standard,21.0,2.0,1.0,
739,10.0,decreament,0.6,100.0,standard,21.0,2.0,1.0,
740,10.0,decreament,0.6,100.0,standard,21.0,2.0,1.0,
741,10.0,decreament,0.36,60.0,oddball,23.0,2.0,1.0,0.6998620999511331
742,10.0,decreament,0.6,100.0,standard,21.0,2.0,1.0,
743,10.0,decreament,0.6,100.0,standard,21.0,2.0,1.0,
744,10.0,decreament,0.6,100.0,standard,21.0,2.0,1.0,
745,10.0,decreament,0.6,100.0,standard,21.0,2.0,1.0,
746,10.0,decreament,0.6,100.0,standard,21.0,2.0,1.0,
747,10.0,decreament,0.48,80.0,oddball,24.0,2.0,0.0,
748,10.0,decreament,0.6,100.0,standard,21.0,2.0,1.0,
749,10.0,decreament,0.6,100.0,standard,21.0,2.0,1.0,
750,10.0,increament,0.6,100.0,standard,25.0,2.0,1.0,
751,10.0,increament,0.6,100.0,standard,25.0,2.0,1.0,
752,10.0,increament,0.6,100.0,standard,25.0,2.0,1.0,
753,10.0,increament,0.6,100.0,standard,25.0,2.0,1.0,
754,10.0,increament,0.6,100.0,standard,25.0,2.0,1.0,
755,10.0,increament,0.6,100.0,standard,25.0,2.0,1.0,
756,10.0,increament,0.6,100.0,standard,25.0,2.0,1.0,
757,10.0,increament,0.96,160.0,oddball,28.0,2.0,1.0,0.6173122000182047
758,10.0,increament,0.6,100.0,standard,25.0,2.0,1.0,
759,10.0,increament,0.6,100.0,standard,25.0,2.0,1.0,
760,10.0,increament,0.6,100.0,standard,25.0,2.0,1.0,
761,10.0,increament,0.6,100.0,standard,25.0,2.0,1.0,
762,10.0,increament,0.72,120.0,oddball,26.0,2.0,1.0,0.3993627000600099
763,10.0,increament,0.6,100.0,standard,25.0,2.0,1.0,
764,10.0,increament,0.6,100.0,standard,25.0,2.0,1.0,
765,10.0,increament,0.6,100.0,standard,25.0,2.0,1.0,
766,10.0,increament,0.6,100.0,standard,25.0,2.0,1.0,
767,10.0,increament,0.6,100.0,standard,25.0,2.0,1.0,
768,10.0,increament,0.6,100.0,standard,25.0,2.0,1.0,
769,10.0,increament,0.6,100.0,standard,25.0,2.0,1.0,
770,10.0,increament,0.6,100.0,standard,25.0,2.0,1.0,
771,10.0,increament,0.6,100.0,standard,25.0,2.0,1.0,
772,10.0,increament,0.84,140.0,oddball,27.0,2.0,0.0,
773,10.0,increament,0.6,100.0,standard,25.0,2.0,1.0,
774,10.0,increament,0.6,100.0,standard,25.0,2.0,1.0,
775,10.0,increament,0.6,100.0,standard,25.0,2.0,1.0,
776,10.0,increament,0.6,100.0,standard,25.0,2.0,1.0,
777,10.0,increament,0.6,100.0,standard,25.0,2.0,1.0,
778,10.0,increament,0.6,100.0,standard,25.0,2.0,1.0,
779,10.0,increament,0.6,100.0,standard,25.0,2.0,1.0,
780,10.0,decreament,0.6,100.0,standard,21.0,2.0,1.0,
781,10.0,decreament,0.6,100.0,standard,21.0,2.0,1.0,
782,10.0,decreament,0.6,100.0,standard,21.0,2.0,1.0,
783,10.0,decreament,0.6,100.0,standard,21.0,2.0,1.0,
784,10.0,decreament,0.6,100.0,standard,21.0,2.0,1.0,
785,10.0,decreament,0.6,100.0,standard,21.0,2.0,1.0,
786,10.0,decreament,0.6,100.0,standard,21.0,2.0,1.0,
787,10.0,decreament,0.6,100.0,standard,21.0,2.0,1.0,
788,10.0,decreament,0.48,80.0,oddball,24.0,2.0,0.0,
789,10.0,decreament,0.6,100.0,standard,21.0,2.0,1.0,
790,10.0,decreament,0.6,100.0,standard,21.0,2.0,1.0,
791,10.0,decreament,0.6,100.0,standard,21.0,2.0,1.0,
792,10.0,decreament,0.6,100.0,standard,21.0,2.0,1.0,
793,10.0,decreament,0.6,100.0,standard,21.0,2.0,1.0,
794,10.0,decreament,0.6,100.0,standard,21.0,2.0,1.0,
795,10.0,decreament,0.6,100.0,standard,21.0,2.0,1.0,
796,10.0,decreament,0.6,100.0,standard,21.0,2.0,1.0,
797,10.0,decreament,0.6,100.0,standard,21.0,2.0,1.0,
798,10.0,decreament,0.6,100.0,standard,21.0,2.0,1.0,
799,10.0,decreament,0.6,100.0,standard,21.0,2.0,1.0,
800,10.0,decreament,0.24,40.0,oddball,22.0,2.0,1.0,0.6363944000331685
801,10.0,decreament,0.6,100.0,standard,21.0,2.0,1.0,
802,10.0,decreament,0.6,100.0,standard,21.0,2.0,1.0,
803,10.0,decreament,0.6,100.0,standard,21.0,2.0,1.0,
804,10.0,decreament,0.6,100.0,standard,21.0,2.0,1.0,
805,10.0,decreament,0.6,100.0,standard,21.0,2.0,1.0,
806,10.0,decreament,0.6,100.0,standard,21.0,2.0,1.0,
807,10.0,decreament,0.36,60.0,oddball,23.0,2.0,1.0,0.7069724999601021
808,10.0,decreament,0.6,100.0,standard,21.0,2.0,1.0,
809,10.0,decreament,0.6,100.0,standard,21.0,2.0,1.0,
810,10.0,increament,0.6,100.0,standard,25.0,2.0,1.0,
811,10.0,increament,0.6,100.0,standard,25.0,2.0,1.0,
812,10.0,increament,0.6,100.0,standard,25.0,2.0,1.0,
813,10.0,increament,0.6,100.0,standard,25.0,2.0,1.0,
814,10.0,increament,0.6,100.0,standard,25.0,2.0,1.0,
815,10.0,increament,0.6,100.0,standard,25.0,2.0,1.0,
816,10.0,increament,0.6,100.0,standard,25.0,2.0,1.0,
817,10.0,increament,0.6,100.0,standard,25.0,2.0,1.0,
818,10.0,increament,0.6,100.0,standard,25.0,2.0,1.0,
819,10.0,increament,0.6,100.0,standard,25.0,2.0,1.0,
820,10.0,increament,0.6,100.0,standard,25.0,2.0,1.0,
821,10.0,increament,0.96,160.0,oddball,28.0,2.0,1.0,0.3709173999959603
822,10.0,increament,0.6,100.0,standard,25.0,2.0,1.0,
823,10.0,increament,0.6,100.0,standard,25.0,2.0,1.0,
824,10.0,increament,0.6,100.0,standard,25.0,2.0,1.0,
825,10.0,increament,0.6,100.0,standard,25.0,2.0,1.0,
826,10.0,increament,0.6,100.0,standard,25.0,2.0,1.0,
827,10.0,increament,0.6,100.0,standard,25.0,2.0,1.0,
828,10.0,increament,0.6,100.0,standard,25.0,2.0,1.0,
829,10.0,increament,0.6,100.0,standard,25.0,2.0,1.0,
830,10.0,increament,0.6,100.0,standard,25.0,2.0,1.0,
831,10.0,increament,0.84,140.0,oddball,27.0,2.0,0.0,
832,10.0,increament,0.6,100.0,standard,25.0,2.0,1.0,
833,10.0,increament,0.6,100.0,standard,25.0,2.0,1.0,
834,10.0,increament,0.6,100.0,standard,25.0,2.0,1.0,
835,10.0,increament,0.6,100.0,standard,25.0,2.0,1.0,
836,10.0,increament,0.6,100.0,standard,25.0,2.0,1.0,
837,10.0,increament,0.72,120.0,oddball,26.0,2.0,0.0,
838,10.0,increament,0.6,100.0,standard,25.0,2.0,1.0,
839,10.0,increament,0.6,100.0,standard,25.0,2.0,1.0,
840,10.0,decreament,0.6,100.0,standard,21.0,2.0,1.0,
841,10.0,decreament,0.6,100.0,standard,21.0,2.0,1.0,
842,10.0,decreament,0.6,100.0,standard,21.0,2.0,1.0,
843,10.0,decreament,0.6,100.0,standard,21.0,2.0,1.0,
844,10.0,decreament,0.6,100.0,standard,21.0,2.0,1.0,
845,10.0,decreament,0.6,100.0,standard,21.0,2.0,1.0,
846,10.0,decreament,0.6,100.0,standard,21.0,2.0,1.0,
847,10.0,decreament,0.6,100.0,standard,21.0,2.0,1.0,
848,10.0,decreament,0.24,40.0,oddball,22.0,2.0,1.0,0.7680426000151783
849,10.0,decreament,0.6,100.0,standard,21.0,2.0,1.0,
850,10.0,decreament,0.6,100.0,standard,21.0,2.0,1.0,
851,10.0,decreament,0.6,100.0,standard,21.0,2.0,1.0,
852,10.0,decreament,0.6,100.0,standard,21.0,2.0,1.0,
853,10.0,decreament,0.6,100.0,standard,21.0,2.0,1.0,
854,10.0,decreament,0.36,60.0,oddball,23.0,2.0,0.0,
855,10.0,decreament,0.6,100.0,standard,21.0,2.0,1.0,
856,10.0,decreament,0.6,100.0,standard,21.0,2.0,1.0,
857,10.0,decreament,0.6,100.0,standard,21.0,2.0,1.0,
858,10.0,decreament,0.6,100.0,standard,21.0,2.0,1.0,
859,10.0,decreament,0.6,100.0,standard,21.0,2.0,1.0,
860,10.0,decreament,0.6,100.0,standard,21.0,2.0,1.0,
861,10.0,decreament,0.6,100.0,standard,21.0,2.0,1.0,
862,10.0,decreament,0.48,80.0,oddball,24.0,2.0,0.0,
863,10.0,decreament,0.6,100.0,standard,21.0,2.0,1.0,
864,10.0,decreament,0.6,100.0,standard,21.0,2.0,1.0,
865,10.0,decreament,0.6,100.0,standard,21.0,2.0,1.0,
866,10.0,decreament,0.6,100.0,standard,21.0,2.0,1.0,
867,10.0,decreament,0.6,100.0,standard,21.0,2.0,1.0,
868,10.0,decreament,0.6,100.0,standard,21.0,2.0,1.0,
869,10.0,decreament,0.6,100.0,standard,21.0,2.0,1.0,
870,10.0,increament,0.6,100.0,standard,25.0,2.0,1.0,
871,10.0,increament,0.6,100.0,standard,25.0,2.0,1.0,
872,10.0,increament,0.6,100.0,standard,25.0,2.0,1.0,
873,10.0,increament,0.6,100.0,standard,25.0,2.0,1.0,
874,10.0,increament,0.6,100.0,standard,25.0,2.0,1.0,
875,10.0,increament,0.84,140.0,oddball,27.0,2.0,1.0,0.3360218999441713
876,10.0,increament,0.6,100.0,standard,25.0,2.0,1.0,
877,10.0,increament,0.6,100.0,standard,25.0,2.0,1.0,
878,10.0,increament,0.6,100.0,standard,25.0,2.0,1.0,
879,10.0,increament,0.6,100.0,standard,25.0,2.0,1.0,
880,10.0,increament,0.6,100.0,standard,25.0,2.0,1.0,
881,10.0,increament,0.6,100.0,standard,25.0,2.0,1.0,
882,10.0,increament,0.6,100.0,standard,25.0,2.0,1.0,
883,10.0,increament,0.6,100.0,standard,25.0,2.0,1.0,
884,10.0,increament,0.96,160.0,oddball,28.0,2.0,1.0,0.4828321998938918
885,10.0,increament,0.6,100.0,standard,25.0,2.0,1.0,
886,10.0,increament,0.6,100.0,standard,25.0,2.0,1.0,
887,10.0,increament,0.6,100.0,standard,25.0,2.0,1.0,
888,10.0,increament,0.6,100.0,standard,25.0,2.0,1.0,
889,10.0,increament,0.6,100.0,standard,25.0,2.0,1.0,
890,10.0,increament,0.6,100.0,standard,25.0,2.0,1.0,
891,10.0,increament,0.6,100.0,standard,25.0,2.0,1.0,
892,10.0,increament,0.6,100.0,standard,25.0,2.0,1.0,
893,10.0,increament,0.6,100.0,standard,25.0,2.0,1.0,
894,10.0,increament,0.6,100.0,standard,25.0,2.0,1.0,
895,10.0,increament,0.6,100.0,standard,25.0,2.0,1.0,
896,10.0,increament,0.72,120.0,oddball,26.0,2.0,0.0,
897,10.0,increament,0.6,100.0,standard,25.0,2.0,1.0,
898,10.0,increament,0.6,100.0,standard,25.0,2.0,1.0,
899,10.0,increament,0.6,100.0,standard,25.0,2.0,1.0,
900,20.0,decreament,0.6,100.0,standard,41.0,3.0,1.0,
901,20.0,decreament,0.6,100.0,standard,41.0,3.0,1.0,
902,20.0,decreament,0.6,100.0,standard,41.0,3.0,1.0,
903,20.0,decreament,0.6,100.0,standard,41.0,3.0,1.0,
904,20.0,decreament,0.6,100.0,standard,41.0,3.0,1.0,
905,20.0,decreament,0.6,100.0,standard,41.0,3.0,1.0,
906,20.0,decreament,0.6,100.0,standard,41.0,3.0,1.0,
907,20.0,decreament,0.36,60.0,oddball,43.0,3.0,0.0,
908,20.0,decreament,0.6,100.0,standard,41.0,3.0,1.0,
909,20.0,decreament,0.6,100.0,standard,41.0,3.0,1.0,
910,20.0,decreament,0.6,100.0,standard,41.0,3.0,1.0,
911,20.0,decreament,0.6,100.0,standard,41.0,3.0,1.0,
912,20.0,decreament,0.6,100.0,standard,41.0,3.0,1.0,
913,20.0,decreament,0.6,100.0,standard,41.0,3.0,1.0,
914,20.0,decreament,0.6,100.0,standard,41.0,3.0,1.0,
915,20.0,decreament,0.24,40.0,oddball,42.0,3.0,1.0,0.5054979000706226
916,20.0,decreament,0.6,100.0,standard,41.0,3.0,1.0,
917,20.0,decreament,0.6,100.0,standard,41.0,3.0,1.0,
918,20.0,decreament,0.6,100.0,standard,41.0,3.0,1.0,
919,20.0,decreament,0.6,100.0,standard,41.0,3.0,1.0,
920,20.0,decreament,0.6,100.0,standard,41.0,3.0,1.0,
921,20.0,decreament,0.6,100.0,standard,41.0,3.0,1.0,
922,20.0,decreament,0.6,100.0,standard,41.0,3.0,1.0,
923,20.0,decreament,0.6,100.0,standard,41.0,3.0,1.0,
924,20.0,decreament,0.6,100.0,standard,41.0,3.0,1.0,
925,20.0,decreament,0.6,100.0,standard,41.0,3.0,1.0,
926,20.0,decreament,0.6,100.0,standard,41.0,3.0,1.0,
927,20.0,decreament,0.48,80.0,oddball,44.0,3.0,0.0,
928,20.0,decreament,0.6,100.0,standard,41.0,3.0,1.0,
929,20.0,decreament,0.6,100.0,standard,41.0,3.0,1.0,
930,20.0,increament,0.6,100.0,standard,45.0,3.0,1.0,
931,20.0,increament,0.6,100.0,standard,45.0,3.0,1.0,
932,20.0,increament,0.6,100.0,standard,45.0,3.0,1.0,
933,20.0,increament,0.6,100.0,standard,45.0,3.0,1.0,
934,20.0,increament,0.6,100.0,standard,45.0,3.0,1.0,
935,20.0,increament,0.6,100.0,standard,45.0,3.0,0.0,1.3162104000803083
936,20.0,increament,0.6,100.0,standard,45.0,3.0,1.0,
937,20.0,increament,0.6,100.0,standard,45.0,3.0,1.0,
938,20.0,increament,0.6,100.0,standard,45.0,3.0,1.0,
939,20.0,increament,0.6,100.0,standard,45.0,3.0,0.0,0.4834502000594511
940,20.0,increament,0.6,100.0,standard,45.0,3.0,1.0,
941,20.0,increament,0.6,100.0,standard,45.0,3.0,1.0,
942,20.0,increament,0.6,100.0,standard,45.0,3.0,1.0,
943,20.0,increament,0.6,100.0,standard,45.0,3.0,1.0,
944,20.0,increament,0.6,100.0,standard,45.0,3.0,1.0,
945,20.0,increament,0.6,100.0,standard,45.0,3.0,1.0,
946,20.0,increament,0.6,100.0,standard,45.0,3.0,1.0,
947,20.0,increament,0.6,100.0,standard,45.0,3.0,1.0,
948,20.0,increament,0.6,100.0,standard,45.0,3.0,1.0,
949,20.0,increament,0.72,120.0,oddball,46.0,3.0,1.0,0.4612609000178054
950,20.0,increament,0.6,100.0,standard,45.0,3.0,1.0,
951,20.0,increament,0.6,100.0,standard,45.0,3.0,1.0,
952,20.0,increament,0.6,100.0,standard,45.0,3.0,1.0,
953,20.0,increament,0.84,140.0,oddball,47.0,3.0,1.0,0.6764074000529945
954,20.0,increament,0.6,100.0,standard,45.0,3.0,1.0,
955,20.0,increament,0.6,100.0,standard,45.0,3.0,1.0,
956,20.0,increament,0.6,100.0,standard,45.0,3.0,1.0,
957,20.0,increament,0.6,100.0,standard,45.0,3.0,1.0,
958,20.0,increament,0.96,160.0,oddball,48.0,3.0,1.0,0.4874615999870002
959,20.0,increament,0.6,100.0,standard,45.0,3.0,1.0,
960,20.0,decreament,0.6,100.0,standard,41.0,3.0,1.0,
961,20.0,decreament,0.6,100.0,standard,41.0,3.0,1.0,
962,20.0,decreament,0.6,100.0,standard,41.0,3.0,1.0,
963,20.0,decreament,0.6,100.0,standard,41.0,3.0,1.0,
964,20.0,decreament,0.6,100.0,standard,41.0,3.0,1.0,
965,20.0,decreament,0.6,100.0,standard,41.0,3.0,1.0,
966,20.0,decreament,0.6,100.0,standard,41.0,3.0,1.0,
967,20.0,decreament,0.6,100.0,standard,41.0,3.0,1.0,
968,20.0,decreament,0.6,100.0,standard,41.0,3.0,1.0,
969,20.0,decreament,0.6,100.0,standard,41.0,3.0,1.0,
970,20.0,decreament,0.6,100.0,standard,41.0,3.0,1.0,
971,20.0,decreament,0.6,100.0,standard,41.0,3.0,1.0,
972,20.0,decreament,0.24,40.0,oddball,42.0,3.0,1.0,0.5353476000018418
973,20.0,decreament,0.6,100.0,standard,41.0,3.0,1.0,
974,20.0,decreament,0.6,100.0,standard,41.0,3.0,1.0,
975,20.0,decreament,0.6,100.0,standard,41.0,3.0,1.0,
976,20.0,decreament,0.6,100.0,standard,41.0,3.0,1.0,
977,20.0,decreament,0.6,100.0,standard,41.0,3.0,1.0,
978,20.0,decreament,0.6,100.0,standard,41.0,3.0,1.0,
979,20.0,decreament,0.6,100.0,standard,41.0,3.0,1.0,
980,20.0,decreament,0.6,100.0,standard,41.0,3.0,1.0,
981,20.0,decreament,0.6,100.0,standard,41.0,3.0,1.0,
982,20.0,decreament,0.36,60.0,oddball,43.0,3.0,0.0,
983,20.0,decreament,0.6,100.0,standard,41.0,3.0,1.0,
984,20.0,decreament,0.6,100.0,standard,41.0,3.0,1.0,
985,20.0,decreament,0.6,100.0,standard,41.0,3.0,1.0,
986,20.0,decreament,0.6,100.0,standard,41.0,3.0,1.0,
987,20.0,decreament,0.6,100.0,standard,41.0,3.0,1.0,
988,20.0,decreament,0.6,100.0,standard,41.0,3.0,1.0,
989,20.0,decreament,0.48,80.0,oddball,44.0,3.0,0.0,
990,20.0,increament,0.6,100.0,standard,45.0,3.0,1.0,
991,20.0,increament,0.6,100.0,standard,45.0,3.0,1.0,
992,20.0,increament,0.6,100.0,standard,45.0,3.0,1.0,
993,20.0,increament,0.6,100.0,standard,45.0,3.0,1.0,
994,20.0,increament,0.6,100.0,standard,45.0,3.0,1.0,
995,20.0,increament,0.6,100.0,standard,45.0,3.0,1.0,
996,20.0,increament,0.6,100.0,standard,45.0,3.0,1.0,
997,20.0,increament,0.96,160.0,oddball,48.0,3.0,1.0,0.3352798001142218
998,20.0,increament,0.6,100.0,standard,45.0,3.0,1.0,
999,20.0,increament,0.6,100.0,standard,45.0,3.0,1.0,
1000,20.0,increament,0.6,100.0,standard,45.0,3.0,1.0,
1001,20.0,increament,0.6,100.0,standard,45.0,3.0,1.0,
1002,20.0,increament,0.6,100.0,standard,45.0,3.0,1.0,
1003,20.0,increament,0.6,100.0,standard,45.0,3.0,1.0,
1004,20.0,increament,0.6,100.0,standard,45.0,3.0,1.0,
1005,20.0,increament,0.6,100.0,standard,45.0,3.0,1.0,
1006,20.0,increament,0.6,100.0,standard,45.0,3.0,1.0,
1007,20.0,increament,0.6,100.0,standard,45.0,3.0,1.0,
1008,20.0,increament,0.84,140.0,oddball,47.0,3.0,1.0,0.5199803999857977
1009,20.0,increament,0.6,100.0,standard,45.0,3.0,1.0,
1010,20.0,increament,0.6,100.0,standard,45.0,3.0,1.0,
1011,20.0,increament,0.6,100.0,standard,45.0,3.0,1.0,
1012,20.0,increament,0.6,100.0,standard,45.0,3.0,1.0,
1013,20.0,increament,0.6,100.0,standard,45.0,3.0,1.0,
1014,20.0,increament,0.72,120.0,oddball,46.0,3.0,0.0,
1015,20.0,increament,0.6,100.0,standard,45.0,3.0,1.0,
1016,20.0,increament,0.6,100.0,standard,45.0,3.0,1.0,
1017,20.0,increament,0.6,100.0,standard,45.0,3.0,1.0,
1018,20.0,increament,0.6,100.0,standard,45.0,3.0,0.0,0.4012867000419646
1019,20.0,increament,0.6,100.0,standard,45.0,3.0,1.0,
1020,20.0,decreament,0.6,100.0,standard,41.0,3.0,1.0,
1021,20.0,decreament,0.6,100.0,standard,41.0,3.0,1.0,
1022,20.0,decreament,0.6,100.0,standard,41.0,3.0,1.0,
1023,20.0,decreament,0.6,100.0,standard,41.0,3.0,1.0,
1024,20.0,decreament,0.6,100.0,standard,41.0,3.0,1.0,
1025,20.0,decreament,0.6,100.0,standard,41.0,3.0,1.0,
1026,20.0,decreament,0.6,100.0,standard,41.0,3.0,1.0,
1027,20.0,decreament,0.6,100.0,standard,41.0,3.0,1.0,
1028,20.0,decreament,0.6,100.0,standard,41.0,3.0,1.0,
1029,20.0,decreament,0.6,100.0,standard,41.0,3.0,1.0,
1030,20.0,decreament,0.6,100.0,standard,41.0,3.0,1.0,
1031,20.0,decreament,0.6,100.0,standard,41.0,3.0,1.0,
1032,20.0,decreament,0.6,100.0,standard,41.0,3.0,1.0,
1033,20.0,decreament,0.6,100.0,standard,41.0,3.0,1.0,
1034,20.0,decreament,0.6,100.0,standard,41.0,3.0,1.0,
1035,20.0,decreament,0.48,80.0,oddball,44.0,3.0,0.0,
1036,20.0,decreament,0.6,100.0,standard,41.0,3.0,1.0,
1037,20.0,decreament,0.6,100.0,standard,41.0,3.0,1.0,
1038,20.0,decreament,0.6,100.0,standard,41.0,3.0,1.0,
1039,20.0,decreament,0.6,100.0,standard,41.0,3.0,1.0,
1040,20.0,decreament,0.36,60.0,oddball,43.0,3.0,1.0,1.0168146999785677
1041,20.0,decreament,0.6,100.0,standard,41.0,3.0,1.0,
1042,20.0,decreament,0.6,100.0,standard,41.0,3.0,1.0,
1043,20.0,decreament,0.6,100.0,standard,41.0,3.0,1.0,
1044,20.0,decreament,0.24,40.0,oddball,42.0,3.0,1.0,0.843130600056611
1045,20.0,decreament,0.6,100.0,standard,41.0,3.0,1.0,
1046,20.0,decreament,0.6,100.0,standard,41.0,3.0,1.0,
1047,20.0,decreament,0.6,100.0,standard,41.0,3.0,1.0,
1048,20.0,decreament,0.6,100.0,standard,41.0,3.0,1.0,
1049,20.0,decreament,0.6,100.0,standard,41.0,3.0,1.0,
1050,20.0,increament,0.6,100.0,standard,45.0,3.0,1.0,
1051,20.0,increament,0.6,100.0,standard,45.0,3.0,1.0,
1052,20.0,increament,0.6,100.0,standard,45.0,3.0,1.0,
1053,20.0,increament,0.6,100.0,standard,45.0,3.0,1.0,
1054,20.0,increament,0.6,100.0,standard,45.0,3.0,1.0,
1055,20.0,increament,0.6,100.0,standard,45.0,3.0,1.0,
1056,20.0,increament,0.6,100.0,standard,45.0,3.0,1.0,
1057,20.0,increament,0.6,100.0,standard,45.0,3.0,1.0,
1058,20.0,increament,0.84,140.0,oddball,47.0,3.0,1.0,0.4284820000175386
1059,20.0,increament,0.6,100.0,standard,45.0,3.0,1.0,
1060,20.0,increament,0.6,100.0,standard,45.0,3.0,1.0,
1061,20.0,increament,0.6,100.0,standard,45.0,3.0,1.0,
1062,20.0,increament,0.6,100.0,standard,45.0,3.0,1.0,
1063,20.0,increament,0.6,100.0,standard,45.0,3.0,1.0,
1064,20.0,increament,0.6,100.0,standard,45.0,3.0,1.0,
1065,20.0,increament,0.6,100.0,standard,45.0,3.0,1.0,
1066,20.0,increament,0.6,100.0,standard,45.0,3.0,1.0,
1067,20.0,increament,0.6,100.0,standard,45.0,3.0,1.0,
1068,20.0,increament,0.72,120.0,oddball,46.0,3.0,0.0,
1069,20.0,increament,0.6,100.0,standard,45.0,3.0,1.0,
1070,20.0,increament,0.6,100.0,standard,45.0,3.0,1.0,
1071,20.0,increament,0.6,100.0,standard,45.0,3.0,1.0,
1072,20.0,increament,0.6,100.0,standard,45.0,3.0,1.0,
1073,20.0,increament,0.6,100.0,standard,45.0,3.0,1.0,
1074,20.0,increament,0.6,100.0,standard,45.0,3.0,1.0,
1075,20.0,increament,0.6,100.0,standard,45.0,3.0,1.0,
1076,20.0,increament,0.6,100.0,standard,45.0,3.0,1.0,
1077,20.0,increament,0.96,160.0,oddball,48.0,3.0,1.0,0.4486324000172317
1078,20.0,increament,0.6,100.0,standard,45.0,3.0,1.0,
1079,20.0,increament,0.6,100.0,standard,45.0,3.0,1.0,
1080,20.0,decreament,0.6,100.0,standard,41.0,3.0,1.0,
1081,20.0,decreament,0.6,100.0,standard,41.0,3.0,1.0,
1082,20.0,decreament,0.6,100.0,standard,41.0,3.0,1.0,
1083,20.0,decreament,0.6,100.0,standard,41.0,3.0,1.0,
1084,20.0,decreament,0.6,100.0,standard,41.0,3.0,1.0,
1085,20.0,decreament,0.6,100.0,standard,41.0,3.0,1.0,
1086,20.0,decreament,0.6,100.0,standard,41.0,3.0,1.0,
1087,20.0,decreament,0.6,100.0,standard,41.0,3.0,1.0,
1088,20.0,decreament,0.6,100.0,standard,41.0,3.0,1.0,
1089,20.0,decreament,0.6,100.0,standard,41.0,3.0,1.0,
1090,20.0,decreament,0.6,100.0,standard,41.0,3.0,1.0,
1091,20.0,decreament,0.6,100.0,standard,41.0,3.0,1.0,
1092,20.0,decreament,0.6,100.0,standard,41.0,3.0,1.0,
1093,20.0,decreament,0.6,100.0,standard,41.0,3.0,1.0,
1094,20.0,decreament,0.6,100.0,standard,41.0,3.0,1.0,
1095,20.0,decreament,0.6,100.0,standard,41.0,3.0,1.0,
1096,20.0,decreament,0.36,60.0,oddball,43.0,3.0,0.0,
1097,20.0,decreament,0.6,100.0,standard,41.0,3.0,1.0,
1098,20.0,decreament,0.6,100.0,standard,41.0,3.0,1.0,
1099,20.0,decreament,0.6,100.0,standard,41.0,3.0,1.0,
1100,20.0,decreament,0.48,80.0,oddball,44.0,3.0,0.0,
1101,20.0,decreament,0.6,100.0,standard,41.0,3.0,1.0,
1102,20.0,decreament,0.6,100.0,standard,41.0,3.0,1.0,
1103,20.0,decreament,0.6,100.0,standard,41.0,3.0,1.0,
1104,20.0,decreament,0.6,100.0,standard,41.0,3.0,1.0,
1105,20.0,decreament,0.24,40.0,oddball,42.0,3.0,1.0,0.7981583999935538
1106,20.0,decreament,0.6,100.0,standard,41.0,3.0,1.0,
1107,20.0,decreament,0.6,100.0,standard,41.0,3.0,1.0,
1108,20.0,decreament,0.6,100.0,standard,41.0,3.0,1.0,
1109,20.0,decreament,0.6,100.0,standard,41.0,3.0,1.0,
1110,20.0,increament,0.6,100.0,standard,45.0,3.0,1.0,
1111,20.0,increament,0.6,100.0,standard,45.0,3.0,1.0,
1112,20.0,increament,0.6,100.0,standard,45.0,3.0,1.0,
1113,20.0,increament,0.6,100.0,standard,45.0,3.0,1.0,
1114,20.0,increament,0.6,100.0,standard,45.0,3.0,1.0,
1115,20.0,increament,0.72,120.0,oddball,46.0,3.0,1.0,0.7767040999606252
1116,20.0,increament,0.6,100.0,standard,45.0,3.0,1.0,
1117,20.0,increament,0.6,100.0,standard,45.0,3.0,1.0,
1118,20.0,increament,0.6,100.0,standard,45.0,3.0,1.0,
1119,20.0,increament,0.6,100.0,standard,45.0,3.0,1.0,
1120,20.0,increament,0.6,100.0,standard,45.0,3.0,1.0,
1121,20.0,increament,0.6,100.0,standard,45.0,3.0,1.0,
1122,20.0,increament,0.6,100.0,standard,45.0,3.0,1.0,
1123,20.0,increament,0.96,160.0,oddball,48.0,3.0,1.0,0.3765539999585598
1124,20.0,increament,0.6,100.0,standard,45.0,3.0,1.0,
1125,20.0,increament,0.6,100.0,standard,45.0,3.0,1.0,
1126,20.0,increament,0.6,100.0,standard,45.0,3.0,1.0,
1127,20.0,increament,0.6,100.0,standard,45.0,3.0,1.0,
1128,20.0,increament,0.84,140.0,oddball,47.0,3.0,1.0,0.6591846999945119
1129,20.0,increament,0.6,100.0,standard,45.0,3.0,1.0,
1130,20.0,increament,0.6,100.0,standard,45.0,3.0,1.0,
1131,20.0,increament,0.6,100.0,standard,45.0,3.0,1.0,
1132,20.0,increament,0.6,100.0,standard,45.0,3.0,1.0,
1133,20.0,increament,0.6,100.0,standard,45.0,3.0,1.0,
1134,20.0,increament,0.6,100.0,standard,45.0,3.0,1.0,
1135,20.0,increament,0.6,100.0,standard,45.0,3.0,1.0,
1136,20.0,increament,0.6,100.0,standard,45.0,3.0,1.0,
1137,20.0,increament,0.6,100.0,standard,45.0,3.0,1.0,
1138,20.0,increament,0.6,100.0,standard,45.0,3.0,1.0,
1139,20.0,increament,0.6,100.0,standard,45.0,3.0,1.0,
1140,20.0,decreament,0.6,100.0,standard,41.0,3.0,1.0,
1141,20.0,decreament,0.6,100.0,standard,41.0,3.0,1.0,
1142,20.0,decreament,0.6,100.0,standard,41.0,3.0,1.0,
1143,20.0,decreament,0.6,100.0,standard,41.0,3.0,1.0,
1144,20.0,decreament,0.6,100.0,standard,41.0,3.0,1.0,
1145,20.0,decreament,0.6,100.0,standard,41.0,3.0,1.0,
1146,20.0,decreament,0.6,100.0,standard,41.0,3.0,1.0,
1147,20.0,decreament,0.24,40.0,oddball,42.0,3.0,1.0,0.7706066000973806
1148,20.0,decreament,0.6,100.0,standard,41.0,3.0,1.0,
1149,20.0,decreament,0.6,100.0,standard,41.0,3.0,1.0,
1150,20.0,decreament,0.6,100.0,standard,41.0,3.0,1.0,
1151,20.0,decreament,0.6,100.0,standard,41.0,3.0,1.0,
1152,20.0,decreament,0.6,100.0,standard,41.0,3.0,1.0,
1153,20.0,decreament,0.6,100.0,standard,41.0,3.0,1.0,
1154,20.0,decreament,0.6,100.0,standard,41.0,3.0,1.0,
1155,20.0,decreament,0.6,100.0,standard,41.0,3.0,1.0,
1156,20.0,decreament,0.6,100.0,standard,41.0,3.0,1.0,
1157,20.0,decreament,0.48,80.0,oddball,44.0,3.0,0.0,
1158,20.0,decreament,0.6,100.0,standard,41.0,3.0,1.0,
1159,20.0,decreament,0.6,100.0,standard,41.0,3.0,1.0,
1160,20.0,decreament,0.6,100.0,standard,41.0,3.0,1.0,
1161,20.0,decreament,0.6,100.0,standard,41.0,3.0,1.0,
1162,20.0,decreament,0.6,100.0,standard,41.0,3.0,1.0,
1163,20.0,decreament,0.6,100.0,standard,41.0,3.0,1.0,
1164,20.0,decreament,0.6,100.0,standard,41.0,3.0,1.0,
1165,20.0,decreament,0.6,100.0,standard,41.0,3.0,1.0,
1166,20.0,decreament,0.6,100.0,standard,41.0,3.0,1.0,
1167,20.0,decreament,0.36,60.0,oddball,43.0,3.0,0.0,
1168,20.0,decreament,0.6,100.0,standard,41.0,3.0,1.0,
1169,20.0,decreament,0.6,100.0,standard,41.0,3.0,1.0,
1170,20.0,increament,0.6,100.0,standard,45.0,3.0,1.0,
1171,20.0,increament,0.6,100.0,standard,45.0,3.0,1.0,
1172,20.0,increament,0.6,100.0,standard,45.0,3.0,1.0,
1173,20.0,increament,0.6,100.0,standard,45.0,3.0,1.0,
1174,20.0,increament,0.6,100.0,standard,45.0,3.0,1.0,
1175,20.0,increament,0.6,100.0,standard,45.0,3.0,1.0,
1176,20.0,increament,0.6,100.0,standard,45.0,3.0,1.0,
1177,20.0,increament,0.6,100.0,standard,45.0,3.0,1.0,
1178,20.0,increament,0.6,100.0,standard,45.0,3.0,1.0,
1179,20.0,increament,0.6,100.0,standard,45.0,3.0,1.0,
1180,20.0,increament,0.6,100.0,standard,45.0,3.0,1.0,
1181,20.0,increament,0.6,100.0,standard,45.0,3.0,1.0,
1182,20.0,increament,0.6,100.0,standard,45.0,3.0,1.0,
1183,20.0,increament,0.6,100.0,standard,45.0,3.0,1.0,
1184,20.0,increament,0.6,100.0,standard,45.0,3.0,1.0,
1185,20.0,increament,0.72,120.0,oddball,46.0,3.0,0.0,
1186,20.0,increament,0.6,100.0,standard,45.0,3.0,1.0,
1187,20.0,increament,0.6,100.0,standard,45.0,3.0,1.0,
1188,20.0,increament,0.6,100.0,standard,45.0,3.0,1.0,
1189,20.0,increament,0.96,160.0,oddball,48.0,3.0,1.0,0.4743433999828994
1190,20.0,increament,0.6,100.0,standard,45.0,3.0,1.0,
1191,20.0,increament,0.6,100.0,standard,45.0,3.0,1.0,
1192,20.0,increament,0.6,100.0,standard,45.0,3.0,1.0,
1193,20.0,increament,0.6,100.0,standard,45.0,3.0,1.0,
1194,20.0,increament,0.6,100.0,standard,45.0,3.0,1.0,
1195,20.0,increament,0.6,100.0,standard,45.0,3.0,1.0,
1196,20.0,increament,0.6,100.0,standard,45.0,3.0,1.0,
1197,20.0,increament,0.6,100.0,standard,45.0,3.0,1.0,
1198,20.0,increament,0.6,100.0,standard,45.0,3.0,1.0,
1199,20.0,increament,0.84,140.0,oddball,47.0,3.0,1.0,0.6637222999706864
