,grating_freq,direction,duration,scaling,stim_type,trigger,blocks.thisN,resp.corr,resp.rt
0,5.0,increament,0.6,100.0,standard,15.0,0.0,1.0,
1,5.0,increament,0.6,100.0,standard,15.0,0.0,1.0,
2,5.0,increament,0.6,100.0,standard,15.0,0.0,1.0,
3,5.0,increament,0.6,100.0,standard,15.0,0.0,1.0,
4,5.0,increament,0.6,100.0,standard,15.0,0.0,1.0,
5,5.0,increament,0.6,100.0,standard,15.0,0.0,1.0,
6,5.0,increament,0.6,100.0,standard,15.0,0.0,1.0,
7,5.0,increament,0.6,100.0,standard,15.0,0.0,1.0,
8,5.0,increament,0.6,100.0,standard,15.0,0.0,1.0,
9,5.0,increament,0.6,100.0,standard,15.0,0.0,1.0,
10,5.0,increament,0.6,100.0,standard,15.0,0.0,1.0,
11,5.0,increament,0.6,100.0,standard,15.0,0.0,1.0,
12,5.0,increament,0.6,100.0,standard,15.0,0.0,1.0,
13,5.0,increament,0.6,100.0,standard,15.0,0.0,1.0,
14,5.0,increament,0.6,100.0,standard,15.0,0.0,1.0,
15,5.0,increament,0.84,140.0,oddball,17.0,0.0,1.0,0.6906285001896322
16,5.0,increament,0.6,100.0,standard,15.0,0.0,1.0,
17,5.0,increament,0.6,100.0,standard,15.0,0.0,1.0,
18,5.0,increament,0.6,100.0,standard,15.0,0.0,1.0,
19,5.0,increament,0.6,100.0,standard,15.0,0.0,1.0,
20,5.0,increament,0.72,120.0,oddball,16.0,0.0,1.0,0.4188324999995529
21,5.0,increament,0.6,100.0,standard,15.0,0.0,1.0,
22,5.0,increament,0.6,100.0,standard,15.0,0.0,1.0,
23,5.0,increament,0.6,100.0,standard,15.0,0.0,1.0,
24,5.0,increament,0.96,160.0,oddball,18.0,0.0,0.0,
25,5.0,increament,0.6,100.0,standard,15.0,0.0,1.0,
26,5.0,increament,0.6,100.0,standard,15.0,0.0,1.0,
27,5.0,increament,0.6,100.0,standard,15.0,0.0,1.0,
28,5.0,increament,0.6,100.0,standard,15.0,0.0,1.0,
29,5.0,increament,0.6,100.0,standard,15.0,0.0,1.0,
30,5.0,decreament,0.6,100.0,standard,11.0,0.0,1.0,
31,5.0,decreament,0.6,100.0,standard,11.0,0.0,1.0,
32,5.0,decreament,0.6,100.0,standard,11.0,0.0,1.0,
33,5.0,decreament,0.6,100.0,standard,11.0,0.0,1.0,
34,5.0,decreament,0.6,100.0,standard,11.0,0.0,1.0,
35,5.0,decreament,0.6,100.0,standard,11.0,0.0,1.0,
36,5.0,decreament,0.6,100.0,standard,11.0,0.0,1.0,
37,5.0,decreament,0.6,100.0,standard,11.0,0.0,1.0,
38,5.0,decreament,0.6,100.0,standard,11.0,0.0,1.0,
39,5.0,decreament,0.6,100.0,standard,11.0,0.0,1.0,
40,5.0,decreament,0.6,100.0,standard,11.0,0.0,1.0,
41,5.0,decreament,0.6,100.0,standard,11.0,0.0,1.0,
42,5.0,decreament,0.6,100.0,standard,11.0,0.0,1.0,
43,5.0,decreament,0.36,60.0,oddball,13.0,0.0,1.0,1.180070400238037
44,5.0,decreament,0.6,100.0,standard,11.0,0.0,1.0,
45,5.0,decreament,0.6,100.0,standard,11.0,0.0,1.0,
46,5.0,decreament,0.6,100.0,standard,11.0,0.0,1.0,
47,5.0,decreament,0.6,100.0,standard,11.0,0.0,1.0,
48,5.0,decreament,0.24,40.0,oddball,12.0,0.0,1.0,0.6224932000041008
49,5.0,decreament,0.6,100.0,standard,11.0,0.0,1.0,
50,5.0,decreament,0.6,100.0,standard,11.0,0.0,1.0,
51,5.0,decreament,0.6,100.0,standard,11.0,0.0,1.0,
52,5.0,decreament,0.6,100.0,standard,11.0,0.0,1.0,
53,5.0,decreament,0.6,100.0,standard,11.0,0.0,1.0,
54,5.0,decreament,0.6,100.0,standard,11.0,0.0,1.0,
55,5.0,decreament,0.48,80.0,oddball,14.0,0.0,0.0,
56,5.0,decreament,0.6,100.0,standard,11.0,0.0,1.0,
57,5.0,decreament,0.6,100.0,standard,11.0,0.0,1.0,
58,5.0,decreament,0.6,100.0,standard,11.0,0.0,1.0,
59,5.0,decreament,0.6,100.0,standard,11.0,0.0,1.0,
60,5.0,increament,0.6,100.0,standard,15.0,0.0,1.0,
61,5.0,increament,0.6,100.0,standard,15.0,0.0,1.0,
62,5.0,increament,0.6,100.0,standard,15.0,0.0,1.0,
63,5.0,increament,0.6,100.0,standard,15.0,0.0,1.0,
64,5.0,increament,0.6,100.0,standard,15.0,0.0,1.0,
65,5.0,increament,0.6,100.0,standard,15.0,0.0,1.0,
66,5.0,increament,0.96,160.0,oddball,18.0,0.0,1.0,0.5001660999841988
67,5.0,increament,0.6,100.0,standard,15.0,0.0,1.0,
68,5.0,increament,0.6,100.0,standard,15.0,0.0,1.0,
69,5.0,increament,0.6,100.0,standard,15.0,0.0,1.0,
70,5.0,increament,0.6,100.0,standard,15.0,0.0,1.0,
71,5.0,increament,0.6,100.0,standard,15.0,0.0,1.0,
72,5.0,increament,0.6,100.0,standard,15.0,0.0,1.0,
73,5.0,increament,0.6,100.0,standard,15.0,0.0,1.0,
74,5.0,increament,0.6,100.0,standard,15.0,0.0,1.0,
75,5.0,increament,0.6,100.0,standard,15.0,0.0,1.0,
76,5.0,increament,0.6,100.0,standard,15.0,0.0,1.0,
77,5.0,increament,0.6,100.0,standard,15.0,0.0,1.0,
78,5.0,increament,0.6,100.0,standard,15.0,0.0,1.0,
79,5.0,increament,0.84,140.0,oddball,17.0,0.0,1.0,0.4022097000852227
80,5.0,increament,0.6,100.0,standard,15.0,0.0,1.0,
81,5.0,increament,0.6,100.0,standard,15.0,0.0,1.0,
82,5.0,increament,0.6,100.0,standard,15.0,0.0,1.0,
83,5.0,increament,0.6,100.0,standard,15.0,0.0,1.0,
84,5.0,increament,0.72,120.0,oddball,16.0,0.0,0.0,
85,5.0,increament,0.6,100.0,standard,15.0,0.0,1.0,
86,5.0,increament,0.6,100.0,standard,15.0,0.0,1.0,
87,5.0,increament,0.6,100.0,standard,15.0,0.0,1.0,
88,5.0,increament,0.6,100.0,standard,15.0,0.0,1.0,
89,5.0,increament,0.6,100.0,standard,15.0,0.0,1.0,
90,5.0,decreament,0.6,100.0,standard,11.0,0.0,1.0,
91,5.0,decreament,0.6,100.0,standard,11.0,0.0,1.0,
92,5.0,decreament,0.6,100.0,standard,11.0,0.0,1.0,
93,5.0,decreament,0.6,100.0,standard,11.0,0.0,1.0,
94,5.0,decreament,0.6,100.0,standard,11.0,0.0,1.0,
95,5.0,decreament,0.6,100.0,standard,11.0,0.0,1.0,
96,5.0,decreament,0.6,100.0,standard,11.0,0.0,1.0,
97,5.0,decreament,0.6,100.0,standard,11.0,0.0,1.0,
98,5.0,decreament,0.6,100.0,standard,11.0,0.0,1.0,
99,5.0,decreament,0.6,100.0,standard,11.0,0.0,1.0,
100,5.0,decreament,0.6,100.0,standard,11.0,0.0,1.0,
101,5.0,decreament,0.6,100.0,standard,11.0,0.0,1.0,
102,5.0,decreament,0.6,100.0,standard,11.0,0.0,1.0,
103,5.0,decreament,0.6,100.0,standard,11.0,0.0,1.0,
104,5.0,decreament,0.6,100.0,standard,11.0,0.0,1.0,
105,5.0,decreament,0.6,100.0,standard,11.0,0.0,1.0,
106,5.0,decreament,0.6,100.0,standard,11.0,0.0,1.0,
107,5.0,decreament,0.24,40.0,oddball,12.0,0.0,1.0,1.5236254001501948
108,5.0,decreament,0.6,100.0,standard,11.0,0.0,1.0,
109,5.0,decreament,0.6,100.0,standard,11.0,0.0,1.0,
110,5.0,decreament,0.6,100.0,standard,11.0,0.0,1.0,
111,5.0,decreament,0.48,80.0,oddball,14.0,0.0,1.0,0.7703838001471013
112,5.0,decreament,0.6,100.0,standard,11.0,0.0,1.0,
113,5.0,decreament,0.6,100.0,standard,11.0,0.0,1.0,
114,5.0,decreament,0.6,100.0,standard,11.0,0.0,1.0,
115,5.0,decreament,0.36,60.0,oddball,13.0,0.0,1.0,0.8933411999605596
116,5.0,decreament,0.6,100.0,standard,11.0,0.0,1.0,
117,5.0,decreament,0.6,100.0,standard,11.0,0.0,1.0,
118,5.0,decreament,0.6,100.0,standard,11.0,0.0,1.0,
119,5.0,decreament,0.6,100.0,standard,11.0,0.0,1.0,
120,5.0,increament,0.6,100.0,standard,15.0,0.0,1.0,
121,5.0,increament,0.6,100.0,standard,15.0,0.0,1.0,
122,5.0,increament,0.6,100.0,standard,15.0,0.0,1.0,
123,5.0,increament,0.6,100.0,standard,15.0,0.0,1.0,
124,5.0,increament,0.6,100.0,standard,15.0,0.0,1.0,
125,5.0,increament,0.6,100.0,standard,15.0,0.0,1.0,
126,5.0,increament,0.6,100.0,standard,15.0,0.0,1.0,
127,5.0,increament,0.6,100.0,standard,15.0,0.0,1.0,
128,5.0,increament,0.6,100.0,standard,15.0,0.0,1.0,
129,5.0,increament,0.84,140.0,oddball,17.0,0.0,0.0,
130,5.0,increament,0.6,100.0,standard,15.0,0.0,1.0,
131,5.0,increament,0.6,100.0,standard,15.0,0.0,1.0,
132,5.0,increament,0.6,100.0,standard,15.0,0.0,1.0,
133,5.0,increament,0.6,100.0,standard,15.0,0.0,1.0,
134,5.0,increament,0.6,100.0,standard,15.0,0.0,1.0,
135,5.0,increament,0.96,160.0,oddball,18.0,0.0,0.0,
136,5.0,increament,0.6,100.0,standard,15.0,0.0,1.0,
137,5.0,increament,0.6,100.0,standard,15.0,0.0,1.0,
138,5.0,increament,0.6,100.0,standard,15.0,0.0,1.0,
139,5.0,increament,0.6,100.0,standard,15.0,0.0,1.0,
140,5.0,increament,0.6,100.0,standard,15.0,0.0,1.0,
141,5.0,increament,0.6,100.0,standard,15.0,0.0,1.0,
142,5.0,increament,0.72,120.0,oddball,16.0,0.0,0.0,
143,5.0,increament,0.6,100.0,standard,15.0,0.0,1.0,
144,5.0,increament,0.6,100.0,standard,15.0,0.0,1.0,
145,5.0,increament,0.6,100.0,standard,15.0,0.0,1.0,
146,5.0,increament,0.6,100.0,standard,15.0,0.0,1.0,
147,5.0,increament,0.6,100.0,standard,15.0,0.0,1.0,
148,5.0,increament,0.6,100.0,standard,15.0,0.0,1.0,
149,5.0,increament,0.6,100.0,standard,15.0,0.0,1.0,
150,5.0,decreament,0.6,100.0,standard,11.0,0.0,1.0,
151,5.0,decreament,0.6,100.0,standard,11.0,0.0,1.0,
152,5.0,decreament,0.6,100.0,standard,11.0,0.0,1.0,
153,5.0,decreament,0.6,100.0,standard,11.0,0.0,1.0,
154,5.0,decreament,0.6,100.0,standard,11.0,0.0,1.0,
155,5.0,decreament,0.6,100.0,standard,11.0,0.0,1.0,
156,5.0,decreament,0.6,100.0,standard,11.0,0.0,1.0,
157,5.0,decreament,0.6,100.0,standard,11.0,0.0,1.0,
158,5.0,decreament,0.6,100.0,standard,11.0,0.0,1.0,
159,5.0,decreament,0.6,100.0,standard,11.0,0.0,1.0,
160,5.0,decreament,0.6,100.0,standard,11.0,0.0,1.0,
161,5.0,decreament,0.6,100.0,standard,11.0,0.0,1.0,
162,5.0,decreament,0.6,100.0,standard,11.0,0.0,1.0,
163,5.0,decreament,0.6,100.0,standard,11.0,0.0,1.0,
164,5.0,decreament,0.6,100.0,standard,11.0,0.0,1.0,
165,5.0,decreament,0.6,100.0,standard,11.0,0.0,1.0,
166,5.0,decreament,0.6,100.0,standard,11.0,0.0,1.0,
167,5.0,decreament,0.36,60.0,oddball,13.0,0.0,1.0,0.6845980000216514
168,5.0,decreament,0.6,100.0,standard,11.0,0.0,1.0,
169,5.0,decreament,0.6,100.0,standard,11.0,0.0,1.0,
170,5.0,decreament,0.6,100.0,standard,11.0,0.0,1.0,
171,5.0,decreament,0.6,100.0,standard,11.0,0.0,1.0,
172,5.0,decreament,0.6,100.0,standard,11.0,0.0,1.0,
173,5.0,decreament,0.6,100.0,standard,11.0,0.0,1.0,
174,5.0,decreament,0.24,40.0,oddball,12.0,0.0,1.0,0.6206462001428008
175,5.0,decreament,0.6,100.0,standard,11.0,0.0,1.0,
176,5.0,decreament,0.6,100.0,standard,11.0,0.0,1.0,
177,5.0,decreament,0.6,100.0,standard,11.0,0.0,1.0,
178,5.0,decreament,0.6,100.0,standard,11.0,0.0,1.0,
179,5.0,decreament,0.48,80.0,oddball,14.0,0.0,0.0,
180,5.0,increament,0.6,100.0,standard,15.0,0.0,1.0,
181,5.0,increament,0.6,100.0,standard,15.0,0.0,1.0,
182,5.0,increament,0.6,100.0,standard,15.0,0.0,1.0,
183,5.0,increament,0.6,100.0,standard,15.0,0.0,1.0,
184,5.0,increament,0.6,100.0,standard,15.0,0.0,1.0,
185,5.0,increament,0.6,100.0,standard,15.0,0.0,1.0,
186,5.0,increament,0.6,100.0,standard,15.0,0.0,1.0,
187,5.0,increament,0.6,100.0,standard,15.0,0.0,1.0,
188,5.0,increament,0.84,140.0,oddball,17.0,0.0,0.0,
189,5.0,increament,0.6,100.0,standard,15.0,0.0,1.0,
190,5.0,increament,0.6,100.0,standard,15.0,0.0,1.0,
191,5.0,increament,0.6,100.0,standard,15.0,0.0,1.0,
192,5.0,increament,0.6,100.0,standard,15.0,0.0,1.0,
193,5.0,increament,0.6,100.0,standard,15.0,0.0,1.0,
194,5.0,increament,0.6,100.0,standard,15.0,0.0,1.0,
195,5.0,increament,0.6,100.0,standard,15.0,0.0,1.0,
196,5.0,increament,0.72,120.0,oddball,16.0,0.0,0.0,
197,5.0,increament,0.6,100.0,standard,15.0,0.0,1.0,
198,5.0,increament,0.6,100.0,standard,15.0,0.0,1.0,
199,5.0,increament,0.6,100.0,standard,15.0,0.0,1.0,
200,5.0,increament,0.6,100.0,standard,15.0,0.0,1.0,
201,5.0,increament,0.6,100.0,standard,15.0,0.0,1.0,
202,5.0,increament,0.6,100.0,standard,15.0,0.0,1.0,
203,5.0,increament,0.6,100.0,standard,15.0,0.0,1.0,
204,5.0,increament,0.6,100.0,standard,15.0,0.0,1.0,
205,5.0,increament,0.6,100.0,standard,15.0,0.0,1.0,
206,5.0,increament,0.6,100.0,standard,15.0,0.0,1.0,
207,5.0,increament,0.96,160.0,oddball,18.0,0.0,0.0,
208,5.0,increament,0.6,100.0,standard,15.0,0.0,1.0,
209,5.0,increament,0.6,100.0,standard,15.0,0.0,1.0,
210,5.0,decreament,0.6,100.0,standard,11.0,0.0,1.0,
211,5.0,decreament,0.6,100.0,standard,11.0,0.0,1.0,
212,5.0,decreament,0.6,100.0,standard,11.0,0.0,1.0,
213,5.0,decreament,0.6,100.0,standard,11.0,0.0,1.0,
214,5.0,decreament,0.6,100.0,standard,11.0,0.0,1.0,
215,5.0,decreament,0.36,60.0,oddball,13.0,0.0,0.0,
216,5.0,decreament,0.6,100.0,standard,11.0,0.0,1.0,
217,5.0,decreament,0.6,100.0,standard,11.0,0.0,1.0,
218,5.0,decreament,0.6,100.0,standard,11.0,0.0,1.0,
219,5.0,decreament,0.6,100.0,standard,11.0,0.0,1.0,
220,5.0,decreament,0.48,80.0,oddball,14.0,0.0,1.0,0.7001108000986278
221,5.0,decreament,0.6,100.0,standard,11.0,0.0,1.0,
222,5.0,decreament,0.6,100.0,standard,11.0,0.0,1.0,
223,5.0,decreament,0.6,100.0,standard,11.0,0.0,1.0,
224,5.0,decreament,0.6,100.0,standard,11.0,0.0,1.0,
225,5.0,decreament,0.6,100.0,standard,11.0,0.0,1.0,
226,5.0,decreament,0.6,100.0,standard,11.0,0.0,1.0,
227,5.0,decreament,0.6,100.0,standard,11.0,0.0,1.0,
228,5.0,decreament,0.6,100.0,standard,11.0,0.0,1.0,
229,5.0,decreament,0.6,100.0,standard,11.0,0.0,1.0,
230,5.0,decreament,0.6,100.0,standard,11.0,0.0,0.0,0.7274067001417279
231,5.0,decreament,0.6,100.0,standard,11.0,0.0,1.0,
232,5.0,decreament,0.24,40.0,oddball,12.0,0.0,0.0,
233,5.0,decreament,0.6,100.0,standard,11.0,0.0,1.0,
234,5.0,decreament,0.6,100.0,standard,11.0,0.0,1.0,
235,5.0,decreament,0.6,100.0,standard,11.0,0.0,1.0,
236,5.0,decreament,0.6,100.0,standard,11.0,0.0,1.0,
237,5.0,decreament,0.6,100.0,standard,11.0,0.0,1.0,
238,5.0,decreament,0.6,100.0,standard,11.0,0.0,1.0,
239,5.0,decreament,0.6,100.0,standard,11.0,0.0,1.0,
240,5.0,increament,0.6,100.0,standard,15.0,0.0,1.0,
241,5.0,increament,0.6,100.0,standard,15.0,0.0,1.0,
242,5.0,increament,0.6,100.0,standard,15.0,0.0,1.0,
243,5.0,increament,0.6,100.0,standard,15.0,0.0,1.0,
244,5.0,increament,0.6,100.0,standard,15.0,0.0,1.0,
245,5.0,increament,0.72,120.0,oddball,16.0,0.0,0.0,
246,5.0,increament,0.6,100.0,standard,15.0,0.0,1.0,
247,5.0,increament,0.6,100.0,standard,15.0,0.0,1.0,
248,5.0,increament,0.6,100.0,standard,15.0,0.0,1.0,
249,5.0,increament,0.6,100.0,standard,15.0,0.0,1.0,
250,5.0,increament,0.6,100.0,standard,15.0,0.0,1.0,
251,5.0,increament,0.6,100.0,standard,15.0,0.0,1.0,
252,5.0,increament,0.6,100.0,standard,15.0,0.0,1.0,
253,5.0,increament,0.6,100.0,standard,15.0,0.0,1.0,
254,5.0,increament,0.6,100.0,standard,15.0,0.0,1.0,
255,5.0,increament,0.6,100.0,standard,15.0,0.0,1.0,
256,5.0,increament,0.6,100.0,standard,15.0,0.0,1.0,
257,5.0,increament,0.6,100.0,standard,15.0,0.0,1.0,
258,5.0,increament,0.6,100.0,standard,15.0,0.0,1.0,
259,5.0,increament,0.84,140.0,oddball,17.0,0.0,0.0,
260,5.0,increament,0.6,100.0,standard,15.0,0.0,1.0,
261,5.0,increament,0.6,100.0,standard,15.0,0.0,1.0,
262,5.0,increament,0.6,100.0,standard,15.0,0.0,1.0,
263,5.0,increament,0.6,100.0,standard,15.0,0.0,1.0,
264,5.0,increament,0.96,160.0,oddball,18.0,0.0,0.0,
265,5.0,increament,0.6,100.0,standard,15.0,0.0,1.0,
266,5.0,increament,0.6,100.0,standard,15.0,0.0,1.0,
267,5.0,increament,0.6,100.0,standard,15.0,0.0,1.0,
268,5.0,increament,0.6,100.0,standard,15.0,0.0,1.0,
269,5.0,increament,0.6,100.0,standard,15.0,0.0,1.0,
270,5.0,decreament,0.6,100.0,standard,11.0,0.0,1.0,
271,5.0,decreament,0.6,100.0,standard,11.0,0.0,1.0,
272,5.0,decreament,0.6,100.0,standard,11.0,0.0,1.0,
273,5.0,decreament,0.6,100.0,standard,11.0,0.0,1.0,
274,5.0,decreament,0.6,100.0,standard,11.0,0.0,1.0,
275,5.0,decreament,0.36,60.0,oddball,13.0,0.0,0.0,
276,5.0,decreament,0.6,100.0,standard,11.0,0.0,1.0,
277,5.0,decreament,0.6,100.0,standard,11.0,0.0,1.0,
278,5.0,decreament,0.6,100.0,standard,11.0,0.0,1.0,
279,5.0,decreament,0.24,40.0,oddball,12.0,0.0,1.0,0.6975472001358867
280,5.0,decreament,0.6,100.0,standard,11.0,0.0,1.0,
281,5.0,decreament,0.6,100.0,standard,11.0,0.0,1.0,
282,5.0,decreament,0.6,100.0,standard,11.0,0.0,1.0,
283,5.0,decreament,0.6,100.0,standard,11.0,0.0,1.0,
284,5.0,decreament,0.6,100.0,standard,11.0,0.0,1.0,
285,5.0,decreament,0.6,100.0,standard,11.0,0.0,1.0,
286,5.0,decreament,0.6,100.0,standard,11.0,0.0,1.0,
287,5.0,decreament,0.6,100.0,standard,11.0,0.0,1.0,
288,5.0,decreament,0.6,100.0,standard,11.0,0.0,1.0,
289,5.0,decreament,0.6,100.0,standard,11.0,0.0,1.0,
290,5.0,decreament,0.6,100.0,standard,11.0,0.0,1.0,
291,5.0,decreament,0.6,100.0,standard,11.0,0.0,1.0,
292,5.0,decreament,0.6,100.0,standard,11.0,0.0,1.0,
293,5.0,decreament,0.6,100.0,standard,11.0,0.0,1.0,
294,5.0,decreament,0.6,100.0,standard,11.0,0.0,0.0,0.7728902001399547
295,5.0,decreament,0.48,80.0,oddball,14.0,0.0,0.0,
296,5.0,decreament,0.6,100.0,standard,11.0,0.0,1.0,
297,5.0,decreament,0.6,100.0,standard,11.0,0.0,1.0,
298,5.0,decreament,0.6,100.0,standard,11.0,0.0,1.0,
299,5.0,decreament,0.6,100.0,standard,11.0,0.0,1.0,
300,20.0,increament,0.6,100.0,standard,45.0,1.0,1.0,
301,20.0,increament,0.6,100.0,standard,45.0,1.0,1.0,
302,20.0,increament,0.6,100.0,standard,45.0,1.0,1.0,
303,20.0,increament,0.6,100.0,standard,45.0,1.0,1.0,
304,20.0,increament,0.6,100.0,standard,45.0,1.0,1.0,
305,20.0,increament,0.6,100.0,standard,45.0,1.0,1.0,
306,20.0,increament,0.6,100.0,standard,45.0,1.0,1.0,
307,20.0,increament,0.6,100.0,standard,45.0,1.0,1.0,
308,20.0,increament,0.6,100.0,standard,45.0,1.0,1.0,
309,20.0,increament,0.6,100.0,standard,45.0,1.0,1.0,
310,20.0,increament,0.72,120.0,oddball,46.0,1.0,0.0,
311,20.0,increament,0.6,100.0,standard,45.0,1.0,1.0,
312,20.0,increament,0.6,100.0,standard,45.0,1.0,1.0,
313,20.0,increament,0.6,100.0,standard,45.0,1.0,1.0,
314,20.0,increament,0.6,100.0,standard,45.0,1.0,1.0,
315,20.0,increament,0.84,140.0,oddball,47.0,1.0,0.0,
316,20.0,increament,0.6,100.0,standard,45.0,1.0,1.0,
317,20.0,increament,0.6,100.0,standard,45.0,1.0,1.0,
318,20.0,increament,0.6,100.0,standard,45.0,1.0,1.0,
319,20.0,increament,0.6,100.0,standard,45.0,1.0,1.0,
320,20.0,increament,0.6,100.0,standard,45.0,1.0,1.0,
321,20.0,increament,0.96,160.0,oddball,48.0,1.0,1.0,0.7773823000025004
322,20.0,increament,0.6,100.0,standard,45.0,1.0,1.0,
323,20.0,increament,0.6,100.0,standard,45.0,1.0,1.0,
324,20.0,increament,0.6,100.0,standard,45.0,1.0,1.0,
325,20.0,increament,0.6,100.0,standard,45.0,1.0,1.0,
326,20.0,increament,0.6,100.0,standard,45.0,1.0,1.0,
327,20.0,increament,0.6,100.0,standard,45.0,1.0,1.0,
328,20.0,increament,0.6,100.0,standard,45.0,1.0,1.0,
329,20.0,increament,0.6,100.0,standard,45.0,1.0,1.0,
330,20.0,decreament,0.6,100.0,standard,41.0,1.0,1.0,
331,20.0,decreament,0.6,100.0,standard,41.0,1.0,1.0,
332,20.0,decreament,0.6,100.0,standard,41.0,1.0,1.0,
333,20.0,decreament,0.6,100.0,standard,41.0,1.0,1.0,
334,20.0,decreament,0.6,100.0,standard,41.0,1.0,1.0,
335,20.0,decreament,0.6,100.0,standard,41.0,1.0,1.0,
336,20.0,decreament,0.6,100.0,standard,41.0,1.0,1.0,
337,20.0,decreament,0.6,100.0,standard,41.0,1.0,1.0,
338,20.0,decreament,0.6,100.0,standard,41.0,1.0,1.0,
339,20.0,decreament,0.6,100.0,standard,41.0,1.0,1.0,
340,20.0,decreament,0.6,100.0,standard,41.0,1.0,1.0,
341,20.0,decreament,0.6,100.0,standard,41.0,1.0,1.0,
342,20.0,decreament,0.24,40.0,oddball,42.0,1.0,1.0,0.8049759001005441
343,20.0,decreament,0.6,100.0,standard,41.0,1.0,1.0,
344,20.0,decreament,0.6,100.0,standard,41.0,1.0,1.0,
345,20.0,decreament,0.6,100.0,standard,41.0,1.0,1.0,
346,20.0,decreament,0.6,100.0,standard,41.0,1.0,1.0,
347,20.0,decreament,0.6,100.0,standard,41.0,1.0,1.0,
348,20.0,decreament,0.6,100.0,standard,41.0,1.0,1.0,
349,20.0,decreament,0.48,80.0,oddball,44.0,1.0,0.0,
350,20.0,decreament,0.6,100.0,standard,41.0,1.0,1.0,
351,20.0,decreament,0.6,100.0,standard,41.0,1.0,1.0,
352,20.0,decreament,0.6,100.0,standard,41.0,1.0,1.0,
353,20.0,decreament,0.6,100.0,standard,41.0,1.0,1.0,
354,20.0,decreament,0.6,100.0,standard,41.0,1.0,1.0,
355,20.0,decreament,0.6,100.0,standard,41.0,1.0,1.0,
356,20.0,decreament,0.6,100.0,standard,41.0,1.0,1.0,
357,20.0,decreament,0.36,60.0,oddball,43.0,1.0,1.0,0.6869812000077218
358,20.0,decreament,0.6,100.0,standard,41.0,1.0,1.0,
359,20.0,decreament,0.6,100.0,standard,41.0,1.0,1.0,
360,20.0,increament,0.6,100.0,standard,45.0,1.0,1.0,
361,20.0,increament,0.6,100.0,standard,45.0,1.0,1.0,
362,20.0,increament,0.6,100.0,standard,45.0,1.0,1.0,
363,20.0,increament,0.6,100.0,standard,45.0,1.0,1.0,
364,20.0,increament,0.6,100.0,standard,45.0,1.0,1.0,
365,20.0,increament,0.72,120.0,oddball,46.0,1.0,0.0,
366,20.0,increament,0.6,100.0,standard,45.0,1.0,1.0,
367,20.0,increament,0.6,100.0,standard,45.0,1.0,1.0,
368,20.0,increament,0.6,100.0,standard,45.0,1.0,1.0,
369,20.0,increament,0.6,100.0,standard,45.0,1.0,1.0,
370,20.0,increament,0.6,100.0,standard,45.0,1.0,1.0,
371,20.0,increament,0.6,100.0,standard,45.0,1.0,1.0,
372,20.0,increament,0.6,100.0,standard,45.0,1.0,1.0,
373,20.0,increament,0.6,100.0,standard,45.0,1.0,1.0,
374,20.0,increament,0.6,100.0,standard,45.0,1.0,1.0,
375,20.0,increament,0.6,100.0,standard,45.0,1.0,1.0,
376,20.0,increament,0.6,100.0,standard,45.0,1.0,1.0,
377,20.0,increament,0.6,100.0,standard,45.0,1.0,1.0,
378,20.0,increament,0.96,160.0,oddball,48.0,1.0,1.0,0.2785756001248956
379,20.0,increament,0.6,100.0,standard,45.0,1.0,1.0,
380,20.0,increament,0.6,100.0,standard,45.0,1.0,1.0,
381,20.0,increament,0.6,100.0,standard,45.0,1.0,1.0,
382,20.0,increament,0.6,100.0,standard,45.0,1.0,1.0,
383,20.0,increament,0.6,100.0,standard,45.0,1.0,1.0,
384,20.0,increament,0.6,100.0,standard,45.0,1.0,1.0,
385,20.0,increament,0.6,100.0,standard,45.0,1.0,1.0,
386,20.0,increament,0.6,100.0,standard,45.0,1.0,1.0,
387,20.0,increament,0.6,100.0,standard,45.0,1.0,1.0,
388,20.0,increament,0.6,100.0,standard,45.0,1.0,1.0,
389,20.0,increament,0.84,140.0,oddball,47.0,1.0,0.0,
390,20.0,decreament,0.6,100.0,standard,41.0,1.0,1.0,
391,20.0,decreament,0.6,100.0,standard,41.0,1.0,1.0,
392,20.0,decreament,0.6,100.0,standard,41.0,1.0,1.0,
393,20.0,decreament,0.6,100.0,standard,41.0,1.0,1.0,
394,20.0,decreament,0.6,100.0,standard,41.0,1.0,1.0,
395,20.0,decreament,0.6,100.0,standard,41.0,1.0,1.0,
396,20.0,decreament,0.6,100.0,standard,41.0,1.0,1.0,
397,20.0,decreament,0.6,100.0,standard,41.0,1.0,1.0,
398,20.0,decreament,0.6,100.0,standard,41.0,1.0,1.0,
399,20.0,decreament,0.6,100.0,standard,41.0,1.0,1.0,
400,20.0,decreament,0.6,100.0,standard,41.0,1.0,1.0,
401,20.0,decreament,0.6,100.0,standard,41.0,1.0,1.0,
402,20.0,decreament,0.6,100.0,standard,41.0,1.0,1.0,
403,20.0,decreament,0.6,100.0,standard,41.0,1.0,1.0,
404,20.0,decreament,0.6,100.0,standard,41.0,1.0,1.0,
405,20.0,decreament,0.6,100.0,standard,41.0,1.0,1.0,
406,20.0,decreament,0.48,80.0,oddball,44.0,1.0,0.0,
407,20.0,decreament,0.6,100.0,standard,41.0,1.0,0.0,0.9687119000591338
408,20.0,decreament,0.6,100.0,standard,41.0,1.0,1.0,
409,20.0,decreament,0.6,100.0,standard,41.0,1.0,1.0,
410,20.0,decreament,0.6,100.0,standard,41.0,1.0,1.0,
411,20.0,decreament,0.24,40.0,oddball,42.0,1.0,1.0,0.6486508999951184
412,20.0,decreament,0.6,100.0,standard,41.0,1.0,1.0,
413,20.0,decreament,0.6,100.0,standard,41.0,1.0,1.0,
414,20.0,decreament,0.6,100.0,standard,41.0,1.0,1.0,
415,20.0,decreament,0.36,60.0,oddball,43.0,1.0,1.0,1.002643600106239
416,20.0,decreament,0.6,100.0,standard,41.0,1.0,1.0,
417,20.0,decreament,0.6,100.0,standard,41.0,1.0,1.0,
418,20.0,decreament,0.6,100.0,standard,41.0,1.0,1.0,
419,20.0,decreament,0.6,100.0,standard,41.0,1.0,1.0,
420,20.0,increament,0.6,100.0,standard,45.0,1.0,1.0,
421,20.0,increament,0.6,100.0,standard,45.0,1.0,1.0,
422,20.0,increament,0.6,100.0,standard,45.0,1.0,1.0,
423,20.0,increament,0.6,100.0,standard,45.0,1.0,1.0,
424,20.0,increament,0.6,100.0,standard,45.0,1.0,1.0,
425,20.0,increament,0.6,100.0,standard,45.0,1.0,1.0,
426,20.0,increament,0.6,100.0,standard,45.0,1.0,1.0,
427,20.0,increament,0.6,100.0,standard,45.0,1.0,1.0,
428,20.0,increament,0.6,100.0,standard,45.0,1.0,1.0,
429,20.0,increament,0.6,100.0,standard,45.0,1.0,1.0,
430,20.0,increament,0.6,100.0,standard,45.0,1.0,1.0,
431,20.0,increament,0.6,100.0,standard,45.0,1.0,1.0,
432,20.0,increament,0.84,140.0,oddball,47.0,1.0,0.0,
433,20.0,increament,0.6,100.0,standard,45.0,1.0,1.0,
434,20.0,increament,0.6,100.0,standard,45.0,1.0,1.0,
435,20.0,increament,0.6,100.0,standard,45.0,1.0,1.0,
436,20.0,increament,0.72,120.0,oddball,46.0,1.0,0.0,
437,20.0,increament,0.6,100.0,standard,45.0,1.0,1.0,
438,20.0,increament,0.6,100.0,standard,45.0,1.0,1.0,
439,20.0,increament,0.6,100.0,standard,45.0,1.0,1.0,
440,20.0,increament,0.6,100.0,standard,45.0,1.0,1.0,
441,20.0,increament,0.6,100.0,standard,45.0,1.0,1.0,
442,20.0,increament,0.6,100.0,standard,45.0,1.0,1.0,
443,20.0,increament,0.6,100.0,standard,45.0,1.0,1.0,
444,20.0,increament,0.96,160.0,oddball,48.0,1.0,1.0,0.3723166999407112
445,20.0,increament,0.6,100.0,standard,45.0,1.0,1.0,
446,20.0,increament,0.6,100.0,standard,45.0,1.0,1.0,
447,20.0,increament,0.6,100.0,standard,45.0,1.0,1.0,
448,20.0,increament,0.6,100.0,standard,45.0,1.0,1.0,
449,20.0,increament,0.6,100.0,standard,45.0,1.0,1.0,
450,20.0,decreament,0.6,100.0,standard,41.0,1.0,1.0,
451,20.0,decreament,0.6,100.0,standard,41.0,1.0,1.0,
452,20.0,decreament,0.6,100.0,standard,41.0,1.0,1.0,
453,20.0,decreament,0.6,100.0,standard,41.0,1.0,1.0,
454,20.0,decreament,0.6,100.0,standard,41.0,1.0,1.0,
455,20.0,decreament,0.6,100.0,standard,41.0,1.0,1.0,
456,20.0,decreament,0.48,80.0,oddball,44.0,1.0,0.0,
457,20.0,decreament,0.6,100.0,standard,41.0,1.0,1.0,
458,20.0,decreament,0.6,100.0,standard,41.0,1.0,1.0,
459,20.0,decreament,0.6,100.0,standard,41.0,1.0,1.0,
460,20.0,decreament,0.6,100.0,standard,41.0,1.0,1.0,
461,20.0,decreament,0.6,100.0,standard,41.0,1.0,1.0,
462,20.0,decreament,0.24,40.0,oddball,42.0,1.0,1.0,0.6341790000442415
463,20.0,decreament,0.6,100.0,standard,41.0,1.0,1.0,
464,20.0,decreament,0.6,100.0,standard,41.0,1.0,1.0,
465,20.0,decreament,0.6,100.0,standard,41.0,1.0,1.0,
466,20.0,decreament,0.6,100.0,standard,41.0,1.0,1.0,
467,20.0,decreament,0.6,100.0,standard,41.0,1.0,1.0,
468,20.0,decreament,0.6,100.0,standard,41.0,1.0,1.0,
469,20.0,decreament,0.6,100.0,standard,41.0,1.0,1.0,
470,20.0,decreament,0.6,100.0,standard,41.0,1.0,1.0,
471,20.0,decreament,0.6,100.0,standard,41.0,1.0,1.0,
472,20.0,decreament,0.6,100.0,standard,41.0,1.0,1.0,
473,20.0,decreament,0.6,100.0,standard,41.0,1.0,0.0,0.8182617002166808
474,20.0,decreament,0.6,100.0,standard,41.0,1.0,1.0,
475,20.0,decreament,0.6,100.0,standard,41.0,1.0,1.0,
476,20.0,decreament,0.36,60.0,oddball,43.0,1.0,0.0,
477,20.0,decreament,0.6,100.0,standard,41.0,1.0,1.0,
478,20.0,decreament,0.6,100.0,standard,41.0,1.0,1.0,
479,20.0,decreament,0.6,100.0,standard,41.0,1.0,1.0,
480,20.0,increament,0.6,100.0,standard,45.0,1.0,1.0,
481,20.0,increament,0.6,100.0,standard,45.0,1.0,1.0,
482,20.0,increament,0.6,100.0,standard,45.0,1.0,1.0,
483,20.0,increament,0.6,100.0,standard,45.0,1.0,1.0,
484,20.0,increament,0.6,100.0,standard,45.0,1.0,1.0,
485,20.0,increament,0.6,100.0,standard,45.0,1.0,1.0,
486,20.0,increament,0.72,120.0,oddball,46.0,1.0,0.0,
487,20.0,increament,0.6,100.0,standard,45.0,1.0,1.0,
488,20.0,increament,0.6,100.0,standard,45.0,1.0,1.0,
489,20.0,increament,0.6,100.0,standard,45.0,1.0,1.0,
490,20.0,increament,0.6,100.0,standard,45.0,1.0,1.0,
491,20.0,increament,0.6,100.0,standard,45.0,1.0,1.0,
492,20.0,increament,0.6,100.0,standard,45.0,1.0,1.0,
493,20.0,increament,0.6,100.0,standard,45.0,1.0,1.0,
494,20.0,increament,0.6,100.0,standard,45.0,1.0,1.0,
495,20.0,increament,0.6,100.0,standard,45.0,1.0,1.0,
496,20.0,increament,0.6,100.0,standard,45.0,1.0,1.0,
497,20.0,increament,0.6,100.0,standard,45.0,1.0,1.0,
498,20.0,increament,0.84,140.0,oddball,47.0,1.0,0.0,
499,20.0,increament,0.6,100.0,standard,45.0,1.0,1.0,
500,20.0,increament,0.6,100.0,standard,45.0,1.0,1.0,
501,20.0,increament,0.6,100.0,standard,45.0,1.0,1.0,
502,20.0,increament,0.6,100.0,standard,45.0,1.0,1.0,
503,20.0,increament,0.6,100.0,standard,45.0,1.0,1.0,
504,20.0,increament,0.6,100.0,standard,45.0,1.0,1.0,
505,20.0,increament,0.96,160.0,oddball,48.0,1.0,0.0,
506,20.0,increament,0.6,100.0,standard,45.0,1.0,1.0,
507,20.0,increament,0.6,100.0,standard,45.0,1.0,1.0,
508,20.0,increament,0.6,100.0,standard,45.0,1.0,0.0,0.5192735001910478
509,20.0,increament,0.6,100.0,standard,45.0,1.0,1.0,
510,20.0,decreament,0.6,100.0,standard,41.0,1.0,1.0,
511,20.0,decreament,0.6,100.0,standard,41.0,1.0,1.0,
512,20.0,decreament,0.6,100.0,standard,41.0,1.0,1.0,
513,20.0,decreament,0.6,100.0,standard,41.0,1.0,1.0,
514,20.0,decreament,0.6,100.0,standard,41.0,1.0,1.0,
515,20.0,decreament,0.6,100.0,standard,41.0,1.0,1.0,
516,20.0,decreament,0.6,100.0,standard,41.0,1.0,1.0,
517,20.0,decreament,0.6,100.0,standard,41.0,1.0,1.0,
518,20.0,decreament,0.6,100.0,standard,41.0,1.0,1.0,
519,20.0,decreament,0.6,100.0,standard,41.0,1.0,1.0,
520,20.0,decreament,0.6,100.0,standard,41.0,1.0,1.0,
521,20.0,decreament,0.6,100.0,standard,41.0,1.0,1.0,
522,20.0,decreament,0.6,100.0,standard,41.0,1.0,1.0,
523,20.0,decreament,0.36,60.0,oddball,43.0,1.0,0.0,
524,20.0,decreament,0.6,100.0,standard,41.0,1.0,1.0,
525,20.0,decreament,0.6,100.0,standard,41.0,1.0,1.0,
526,20.0,decreament,0.6,100.0,standard,41.0,1.0,1.0,
527,20.0,decreament,0.48,80.0,oddball,44.0,1.0,1.0,0.545432300074026
528,20.0,decreament,0.6,100.0,standard,41.0,1.0,1.0,
529,20.0,decreament,0.6,100.0,standard,41.0,1.0,1.0,
530,20.0,decreament,0.6,100.0,standard,41.0,1.0,1.0,
531,20.0,decreament,0.24,40.0,oddball,42.0,1.0,1.0,1.036377500044182
532,20.0,decreament,0.6,100.0,standard,41.0,1.0,1.0,
533,20.0,decreament,0.6,100.0,standard,41.0,1.0,1.0,
534,20.0,decreament,0.6,100.0,standard,41.0,1.0,1.0,
535,20.0,decreament,0.6,100.0,standard,41.0,1.0,1.0,
536,20.0,decreament,0.6,100.0,standard,41.0,1.0,1.0,
537,20.0,decreament,0.6,100.0,standard,41.0,1.0,1.0,
538,20.0,decreament,0.6,100.0,standard,41.0,1.0,1.0,
539,20.0,decreament,0.6,100.0,standard,41.0,1.0,1.0,
540,20.0,increament,0.6,100.0,standard,45.0,1.0,1.0,
541,20.0,increament,0.6,100.0,standard,45.0,1.0,1.0,
542,20.0,increament,0.6,100.0,standard,45.0,1.0,1.0,
543,20.0,increament,0.6,100.0,standard,45.0,1.0,1.0,
544,20.0,increament,0.6,100.0,standard,45.0,1.0,1.0,
545,20.0,increament,0.6,100.0,standard,45.0,1.0,1.0,
546,20.0,increament,0.6,100.0,standard,45.0,1.0,1.0,
547,20.0,increament,0.6,100.0,standard,45.0,1.0,1.0,
548,20.0,increament,0.72,120.0,oddball,46.0,1.0,0.0,
549,20.0,increament,0.6,100.0,standard,45.0,1.0,1.0,
550,20.0,increament,0.6,100.0,standard,45.0,1.0,1.0,
551,20.0,increament,0.6,100.0,standard,45.0,1.0,1.0,
552,20.0,increament,0.6,100.0,standard,45.0,1.0,1.0,
553,20.0,increament,0.6,100.0,standard,45.0,1.0,1.0,
554,20.0,increament,0.6,100.0,standard,45.0,1.0,1.0,
555,20.0,increament,0.6,100.0,standard,45.0,1.0,1.0,
556,20.0,increament,0.6,100.0,standard,45.0,1.0,1.0,
557,20.0,increament,0.6,100.0,standard,45.0,1.0,1.0,
558,20.0,increament,0.6,100.0,standard,45.0,1.0,1.0,
559,20.0,increament,0.96,160.0,oddball,48.0,1.0,1.0,0.5101989002432674
560,20.0,increament,0.6,100.0,standard,45.0,1.0,1.0,
561,20.0,increament,0.6,100.0,standard,45.0,1.0,1.0,
562,20.0,increament,0.6,100.0,standard,45.0,1.0,1.0,
563,20.0,increament,0.6,100.0,standard,45.0,1.0,1.0,
564,20.0,increament,0.84,140.0,oddball,47.0,1.0,1.0,0.3207531999796629
565,20.0,increament,0.6,100.0,standard,45.0,1.0,1.0,
566,20.0,increament,0.6,100.0,standard,45.0,1.0,1.0,
567,20.0,increament,0.6,100.0,standard,45.0,1.0,1.0,
568,20.0,increament,0.6,100.0,standard,45.0,1.0,1.0,
569,20.0,increament,0.6,100.0,standard,45.0,1.0,1.0,
570,20.0,decreament,0.6,100.0,standard,41.0,1.0,1.0,
571,20.0,decreament,0.6,100.0,standard,41.0,1.0,1.0,
572,20.0,decreament,0.6,100.0,standard,41.0,1.0,1.0,
573,20.0,decreament,0.6,100.0,standard,41.0,1.0,1.0,
574,20.0,decreament,0.6,100.0,standard,41.0,1.0,1.0,
575,20.0,decreament,0.6,100.0,standard,41.0,1.0,1.0,
576,20.0,decreament,0.6,100.0,standard,41.0,1.0,1.0,
577,20.0,decreament,0.48,80.0,oddball,44.0,1.0,0.0,
578,20.0,decreament,0.6,100.0,standard,41.0,1.0,1.0,
579,20.0,decreament,0.6,100.0,standard,41.0,1.0,1.0,
580,20.0,decreament,0.6,100.0,standard,41.0,1.0,1.0,
581,20.0,decreament,0.36,60.0,oddball,43.0,1.0,1.0,0.6344459000974894
582,20.0,decreament,0.6,100.0,standard,41.0,1.0,1.0,
583,20.0,decreament,0.6,100.0,standard,41.0,1.0,1.0,
584,20.0,decreament,0.6,100.0,standard,41.0,1.0,1.0,
585,20.0,decreament,0.6,100.0,standard,41.0,1.0,1.0,
586,20.0,decreament,0.6,100.0,standard,41.0,1.0,1.0,
587,20.0,decreament,0.6,100.0,standard,41.0,1.0,1.0,
588,20.0,decreament,0.6,100.0,standard,41.0,1.0,1.0,
589,20.0,decreament,0.6,100.0,standard,41.0,1.0,1.0,
590,20.0,decreament,0.6,100.0,standard,41.0,1.0,1.0,
591,20.0,decreament,0.24,40.0,oddball,42.0,1.0,1.0,0.7288054001983255
592,20.0,decreament,0.6,100.0,standard,41.0,1.0,1.0,
593,20.0,decreament,0.6,100.0,standard,41.0,1.0,1.0,
594,20.0,decreament,0.6,100.0,standard,41.0,1.0,1.0,
595,20.0,decreament,0.6,100.0,standard,41.0,1.0,1.0,
596,20.0,decreament,0.6,100.0,standard,41.0,1.0,1.0,
597,20.0,decreament,0.6,100.0,standard,41.0,1.0,1.0,
598,20.0,decreament,0.6,100.0,standard,41.0,1.0,1.0,
599,20.0,decreament,0.6,100.0,standard,41.0,1.0,1.0,
600,10.0,increament,0.6,100.0,standard,25.0,2.0,1.0,
601,10.0,increament,0.6,100.0,standard,25.0,2.0,1.0,
602,10.0,increament,0.6,100.0,standard,25.0,2.0,1.0,
603,10.0,increament,0.6,100.0,standard,25.0,2.0,1.0,
604,10.0,increament,0.6,100.0,standard,25.0,2.0,1.0,
605,10.0,increament,0.6,100.0,standard,25.0,2.0,1.0,
606,10.0,increament,0.6,100.0,standard,25.0,2.0,1.0,
607,10.0,increament,0.6,100.0,standard,25.0,2.0,1.0,
608,10.0,increament,0.6,100.0,standard,25.0,2.0,1.0,
609,10.0,increament,0.6,100.0,standard,25.0,2.0,1.0,
610,10.0,increament,0.84,140.0,oddball,27.0,2.0,1.0,0.3066699001938104
611,10.0,increament,0.6,100.0,standard,25.0,2.0,1.0,
612,10.0,increament,0.6,100.0,standard,25.0,2.0,1.0,
613,10.0,increament,0.6,100.0,standard,25.0,2.0,1.0,
614,10.0,increament,0.6,100.0,standard,25.0,2.0,1.0,
615,10.0,increament,0.6,100.0,standard,25.0,2.0,1.0,
616,10.0,increament,0.6,100.0,standard,25.0,2.0,1.0,
617,10.0,increament,0.6,100.0,standard,25.0,2.0,1.0,
618,10.0,increament,0.6,100.0,standard,25.0,2.0,1.0,
619,10.0,increament,0.6,100.0,standard,25.0,2.0,1.0,
620,10.0,increament,0.6,100.0,standard,25.0,2.0,1.0,
621,10.0,increament,0.6,100.0,standard,25.0,2.0,1.0,
622,10.0,increament,0.6,100.0,standard,25.0,2.0,1.0,
623,10.0,increament,0.6,100.0,standard,25.0,2.0,1.0,
624,10.0,increament,0.6,100.0,standard,25.0,2.0,1.0,
625,10.0,increament,0.96,160.0,oddball,28.0,2.0,1.0,0.3782617000397295
626,10.0,increament,0.6,100.0,standard,25.0,2.0,1.0,
627,10.0,increament,0.6,100.0,standard,25.0,2.0,1.0,
628,10.0,increament,0.6,100.0,standard,25.0,2.0,1.0,
629,10.0,increament,0.72,120.0,oddball,26.0,2.0,0.0,
630,10.0,decreament,0.6,100.0,standard,21.0,2.0,1.0,
631,10.0,decreament,0.6,100.0,standard,21.0,2.0,1.0,
632,10.0,decreament,0.6,100.0,standard,21.0,2.0,1.0,
633,10.0,decreament,0.6,100.0,standard,21.0,2.0,1.0,
634,10.0,decreament,0.6,100.0,standard,21.0,2.0,1.0,
635,10.0,decreament,0.6,100.0,standard,21.0,2.0,1.0,
636,10.0,decreament,0.6,100.0,standard,21.0,2.0,1.0,
637,10.0,decreament,0.6,100.0,standard,21.0,2.0,1.0,
638,10.0,decreament,0.48,80.0,oddball,24.0,2.0,0.0,
639,10.0,decreament,0.6,100.0,standard,21.0,2.0,1.0,
640,10.0,decreament,0.6,100.0,standard,21.0,2.0,1.0,
641,10.0,decreament,0.6,100.0,standard,21.0,2.0,1.0,
642,10.0,decreament,0.6,100.0,standard,21.0,2.0,1.0,
643,10.0,decreament,0.6,100.0,standard,21.0,2.0,1.0,
644,10.0,decreament,0.6,100.0,standard,21.0,2.0,1.0,
645,10.0,decreament,0.36,60.0,oddball,23.0,2.0,1.0,0.4806239001918584
646,10.0,decreament,0.6,100.0,standard,21.0,2.0,1.0,
647,10.0,decreament,0.6,100.0,standard,21.0,2.0,1.0,
648,10.0,decreament,0.6,100.0,standard,21.0,2.0,1.0,
649,10.0,decreament,0.6,100.0,standard,21.0,2.0,1.0,
650,10.0,decreament,0.6,100.0,standard,21.0,2.0,1.0,
651,10.0,decreament,0.24,40.0,oddball,22.0,2.0,1.0,0.6585642001591623
652,10.0,decreament,0.6,100.0,standard,21.0,2.0,1.0,
653,10.0,decreament,0.6,100.0,standard,21.0,2.0,1.0,
654,10.0,decreament,0.6,100.0,standard,21.0,2.0,1.0,
655,10.0,decreament,0.6,100.0,standard,21.0,2.0,1.0,
656,10.0,decreament,0.6,100.0,standard,21.0,2.0,1.0,
657,10.0,decreament,0.6,100.0,standard,21.0,2.0,1.0,
658,10.0,decreament,0.6,100.0,standard,21.0,2.0,0.0,0.6763422002550215
659,10.0,decreament,0.6,100.0,standard,21.0,2.0,1.0,
660,10.0,increament,0.6,100.0,standard,25.0,2.0,1.0,
661,10.0,increament,0.6,100.0,standard,25.0,2.0,1.0,
662,10.0,increament,0.6,100.0,standard,25.0,2.0,1.0,
663,10.0,increament,0.6,100.0,standard,25.0,2.0,1.0,
664,10.0,increament,0.6,100.0,standard,25.0,2.0,1.0,
665,10.0,increament,0.84,140.0,oddball,27.0,2.0,0.0,
666,10.0,increament,0.6,100.0,standard,25.0,2.0,1.0,
667,10.0,increament,0.6,100.0,standard,25.0,2.0,1.0,
668,10.0,increament,0.6,100.0,standard,25.0,2.0,1.0,
669,10.0,increament,0.72,120.0,oddball,26.0,2.0,0.0,
670,10.0,increament,0.6,100.0,standard,25.0,2.0,1.0,
671,10.0,increament,0.6,100.0,standard,25.0,2.0,1.0,
672,10.0,increament,0.6,100.0,standard,25.0,2.0,1.0,
673,10.0,increament,0.6,100.0,standard,25.0,2.0,1.0,
674,10.0,increament,0.6,100.0,standard,25.0,2.0,1.0,
675,10.0,increament,0.6,100.0,standard,25.0,2.0,1.0,
676,10.0,increament,0.6,100.0,standard,25.0,2.0,1.0,
677,10.0,increament,0.6,100.0,standard,25.0,2.0,1.0,
678,10.0,increament,0.6,100.0,standard,25.0,2.0,1.0,
679,10.0,increament,0.6,100.0,standard,25.0,2.0,1.0,
680,10.0,increament,0.6,100.0,standard,25.0,2.0,1.0,
681,10.0,increament,0.6,100.0,standard,25.0,2.0,1.0,
682,10.0,increament,0.6,100.0,standard,25.0,2.0,1.0,
683,10.0,increament,0.6,100.0,standard,25.0,2.0,1.0,
684,10.0,increament,0.6,100.0,standard,25.0,2.0,1.0,
685,10.0,increament,0.6,100.0,standard,25.0,2.0,1.0,
686,10.0,increament,0.6,100.0,standard,25.0,2.0,1.0,
687,10.0,increament,0.6,100.0,standard,25.0,2.0,1.0,
688,10.0,increament,0.96,160.0,oddball,28.0,2.0,0.0,
689,10.0,increament,0.6,100.0,standard,25.0,2.0,1.0,
690,10.0,decreament,0.6,100.0,standard,21.0,2.0,1.0,
691,10.0,decreament,0.6,100.0,standard,21.0,2.0,1.0,
692,10.0,decreament,0.6,100.0,standard,21.0,2.0,1.0,
693,10.0,decreament,0.6,100.0,standard,21.0,2.0,1.0,
694,10.0,decreament,0.6,100.0,standard,21.0,2.0,1.0,
695,10.0,decreament,0.36,60.0,oddball,23.0,2.0,1.0,0.8615629002451897
696,10.0,decreament,0.6,100.0,standard,21.0,2.0,1.0,
697,10.0,decreament,0.6,100.0,standard,21.0,2.0,1.0,
698,10.0,decreament,0.6,100.0,standard,21.0,2.0,1.0,
699,10.0,decreament,0.6,100.0,standard,21.0,2.0,1.0,
700,10.0,decreament,0.6,100.0,standard,21.0,2.0,1.0,
701,10.0,decreament,0.6,100.0,standard,21.0,2.0,1.0,
702,10.0,decreament,0.6,100.0,standard,21.0,2.0,1.0,
703,10.0,decreament,0.6,100.0,standard,21.0,2.0,0.0,0.6416747001931071
704,10.0,decreament,0.6,100.0,standard,21.0,2.0,1.0,
705,10.0,decreament,0.6,100.0,standard,21.0,2.0,1.0,
706,10.0,decreament,0.6,100.0,standard,21.0,2.0,1.0,
707,10.0,decreament,0.48,80.0,oddball,24.0,2.0,0.0,
708,10.0,decreament,0.6,100.0,standard,21.0,2.0,1.0,
709,10.0,decreament,0.6,100.0,standard,21.0,2.0,1.0,
710,10.0,decreament,0.6,100.0,standard,21.0,2.0,1.0,
711,10.0,decreament,0.6,100.0,standard,21.0,2.0,1.0,
712,10.0,decreament,0.6,100.0,standard,21.0,2.0,1.0,
713,10.0,decreament,0.6,100.0,standard,21.0,2.0,1.0,
714,10.0,decreament,0.6,100.0,standard,21.0,2.0,1.0,
715,10.0,decreament,0.6,100.0,standard,21.0,2.0,1.0,
716,10.0,decreament,0.6,100.0,standard,21.0,2.0,1.0,
717,10.0,decreament,0.6,100.0,standard,21.0,2.0,0.0,1.137468100292608
718,10.0,decreament,0.24,40.0,oddball,22.0,2.0,1.0,0.7285768000874668
719,10.0,decreament,0.6,100.0,standard,21.0,2.0,1.0,
720,10.0,increament,0.6,100.0,standard,25.0,2.0,1.0,
721,10.0,increament,0.6,100.0,standard,25.0,2.0,1.0,
722,10.0,increament,0.6,100.0,standard,25.0,2.0,1.0,
723,10.0,increament,0.6,100.0,standard,25.0,2.0,1.0,
724,10.0,increament,0.6,100.0,standard,25.0,2.0,1.0,
725,10.0,increament,0.6,100.0,standard,25.0,2.0,1.0,
726,10.0,increament,0.6,100.0,standard,25.0,2.0,1.0,
727,10.0,increament,0.84,140.0,oddball,27.0,2.0,0.0,
728,10.0,increament,0.6,100.0,standard,25.0,2.0,1.0,
729,10.0,increament,0.6,100.0,standard,25.0,2.0,1.0,
730,10.0,increament,0.6,100.0,standard,25.0,2.0,1.0,
731,10.0,increament,0.96,160.0,oddball,28.0,2.0,0.0,
732,10.0,increament,0.6,100.0,standard,25.0,2.0,1.0,
733,10.0,increament,0.6,100.0,standard,25.0,2.0,1.0,
734,10.0,increament,0.6,100.0,standard,25.0,2.0,1.0,
735,10.0,increament,0.6,100.0,standard,25.0,2.0,1.0,
736,10.0,increament,0.6,100.0,standard,25.0,2.0,1.0,
737,10.0,increament,0.6,100.0,standard,25.0,2.0,1.0,
738,10.0,increament,0.6,100.0,standard,25.0,2.0,1.0,
739,10.0,increament,0.6,100.0,standard,25.0,2.0,1.0,
740,10.0,increament,0.6,100.0,standard,25.0,2.0,1.0,
741,10.0,increament,0.6,100.0,standard,25.0,2.0,1.0,
742,10.0,increament,0.6,100.0,standard,25.0,2.0,1.0,
743,10.0,increament,0.72,120.0,oddball,26.0,2.0,0.0,
744,10.0,increament,0.6,100.0,standard,25.0,2.0,1.0,
745,10.0,increament,0.6,100.0,standard,25.0,2.0,1.0,
746,10.0,increament,0.6,100.0,standard,25.0,2.0,1.0,
747,10.0,increament,0.6,100.0,standard,25.0,2.0,1.0,
748,10.0,increament,0.6,100.0,standard,25.0,2.0,1.0,
749,10.0,increament,0.6,100.0,standard,25.0,2.0,1.0,
750,10.0,decreament,0.6,100.0,standard,21.0,2.0,1.0,
751,10.0,decreament,0.6,100.0,standard,21.0,2.0,1.0,
752,10.0,decreament,0.6,100.0,standard,21.0,2.0,1.0,
753,10.0,decreament,0.6,100.0,standard,21.0,2.0,1.0,
754,10.0,decreament,0.6,100.0,standard,21.0,2.0,1.0,
755,10.0,decreament,0.6,100.0,standard,21.0,2.0,1.0,
756,10.0,decreament,0.6,100.0,standard,21.0,2.0,1.0,
757,10.0,decreament,0.6,100.0,standard,21.0,2.0,1.0,
758,10.0,decreament,0.6,100.0,standard,21.0,2.0,1.0,
759,10.0,decreament,0.6,100.0,standard,21.0,2.0,1.0,
760,10.0,decreament,0.6,100.0,standard,21.0,2.0,1.0,
761,10.0,decreament,0.6,100.0,standard,21.0,2.0,1.0,
762,10.0,decreament,0.6,100.0,standard,21.0,2.0,1.0,
763,10.0,decreament,0.36,60.0,oddball,23.0,2.0,1.0,0.6752577000297606
764,10.0,decreament,0.6,100.0,standard,21.0,2.0,1.0,
765,10.0,decreament,0.6,100.0,standard,21.0,2.0,1.0,
766,10.0,decreament,0.6,100.0,standard,21.0,2.0,1.0,
767,10.0,decreament,0.6,100.0,standard,21.0,2.0,1.0,
768,10.0,decreament,0.6,100.0,standard,21.0,2.0,1.0,
769,10.0,decreament,0.6,100.0,standard,21.0,2.0,1.0,
770,10.0,decreament,0.48,80.0,oddball,24.0,2.0,0.0,
771,10.0,decreament,0.6,100.0,standard,21.0,2.0,1.0,
772,10.0,decreament,0.6,100.0,standard,21.0,2.0,1.0,
773,10.0,decreament,0.6,100.0,standard,21.0,2.0,1.0,
774,10.0,decreament,0.6,100.0,standard,21.0,2.0,1.0,
775,10.0,decreament,0.6,100.0,standard,21.0,2.0,1.0,
776,10.0,decreament,0.6,100.0,standard,21.0,2.0,1.0,
777,10.0,decreament,0.6,100.0,standard,21.0,2.0,1.0,
778,10.0,decreament,0.6,100.0,standard,21.0,2.0,1.0,
779,10.0,decreament,0.24,40.0,oddball,22.0,2.0,1.0,0.7549970000982285
780,10.0,increament,0.6,100.0,standard,25.0,2.0,1.0,
781,10.0,increament,0.6,100.0,standard,25.0,2.0,1.0,
782,10.0,increament,0.6,100.0,standard,25.0,2.0,1.0,
783,10.0,increament,0.6,100.0,standard,25.0,2.0,1.0,
784,10.0,increament,0.6,100.0,standard,25.0,2.0,1.0,
785,10.0,increament,0.6,100.0,standard,25.0,2.0,1.0,
786,10.0,increament,0.6,100.0,standard,25.0,2.0,1.0,
787,10.0,increament,0.6,100.0,standard,25.0,2.0,1.0,
788,10.0,increament,0.6,100.0,standard,25.0,2.0,1.0,
789,10.0,increament,0.6,100.0,standard,25.0,2.0,1.0,
790,10.0,increament,0.6,100.0,standard,25.0,2.0,1.0,
791,10.0,increament,0.6,100.0,standard,25.0,2.0,1.0,
792,10.0,increament,0.6,100.0,standard,25.0,2.0,1.0,
793,10.0,increament,0.96,160.0,oddball,28.0,2.0,1.0,0.3152864000294357
794,10.0,increament,0.6,100.0,standard,25.0,2.0,1.0,
795,10.0,increament,0.6,100.0,standard,25.0,2.0,1.0,
796,10.0,increament,0.6,100.0,standard,25.0,2.0,1.0,
797,10.0,increament,0.6,100.0,standard,25.0,2.0,1.0,
798,10.0,increament,0.6,100.0,standard,25.0,2.0,1.0,
799,10.0,increament,0.72,120.0,oddball,26.0,2.0,0.0,
800,10.0,increament,0.6,100.0,standard,25.0,2.0,1.0,
801,10.0,increament,0.6,100.0,standard,25.0,2.0,1.0,
802,10.0,increament,0.6,100.0,standard,25.0,2.0,1.0,
803,10.0,increament,0.84,140.0,oddball,27.0,2.0,0.0,
804,10.0,increament,0.6,100.0,standard,25.0,2.0,1.0,
805,10.0,increament,0.6,100.0,standard,25.0,2.0,1.0,
806,10.0,increament,0.6,100.0,standard,25.0,2.0,1.0,
807,10.0,increament,0.6,100.0,standard,25.0,2.0,1.0,
808,10.0,increament,0.6,100.0,standard,25.0,2.0,1.0,
809,10.0,increament,0.6,100.0,standard,25.0,2.0,1.0,
810,10.0,decreament,0.6,100.0,standard,21.0,2.0,1.0,
811,10.0,decreament,0.6,100.0,standard,21.0,2.0,1.0,
812,10.0,decreament,0.6,100.0,standard,21.0,2.0,1.0,
813,10.0,decreament,0.6,100.0,standard,21.0,2.0,1.0,
814,10.0,decreament,0.6,100.0,standard,21.0,2.0,1.0,
815,10.0,decreament,0.6,100.0,standard,21.0,2.0,1.0,
816,10.0,decreament,0.6,100.0,standard,21.0,2.0,1.0,
817,10.0,decreament,0.48,80.0,oddball,24.0,2.0,0.0,
818,10.0,decreament,0.6,100.0,standard,21.0,2.0,1.0,
819,10.0,decreament,0.6,100.0,standard,21.0,2.0,1.0,
820,10.0,decreament,0.6,100.0,standard,21.0,2.0,1.0,
821,10.0,decreament,0.6,100.0,standard,21.0,2.0,0.0,1.0484718002844602
822,10.0,decreament,0.6,100.0,standard,21.0,2.0,1.0,
823,10.0,decreament,0.6,100.0,standard,21.0,2.0,1.0,
824,10.0,decreament,0.6,100.0,standard,21.0,2.0,1.0,
825,10.0,decreament,0.6,100.0,standard,21.0,2.0,1.0,
826,10.0,decreament,0.6,100.0,standard,21.0,2.0,1.0,
827,10.0,decreament,0.6,100.0,standard,21.0,2.0,1.0,
828,10.0,decreament,0.6,100.0,standard,21.0,2.0,1.0,
829,10.0,decreament,0.6,100.0,standard,21.0,2.0,1.0,
830,10.0,decreament,0.6,100.0,standard,21.0,2.0,0.0,0.7889175000600517
831,10.0,decreament,0.6,100.0,standard,21.0,2.0,1.0,
832,10.0,decreament,0.6,100.0,standard,21.0,2.0,1.0,
833,10.0,decreament,0.36,60.0,oddball,23.0,2.0,1.0,1.675278700189665
834,10.0,decreament,0.6,100.0,standard,21.0,2.0,1.0,
835,10.0,decreament,0.6,100.0,standard,21.0,2.0,1.0,
836,10.0,decreament,0.6,100.0,standard,21.0,2.0,1.0,
837,10.0,decreament,0.6,100.0,standard,21.0,2.0,1.0,
838,10.0,decreament,0.6,100.0,standard,21.0,2.0,1.0,
839,10.0,decreament,0.24,40.0,oddball,22.0,2.0,1.0,0.66097900015302
840,10.0,increament,0.6,100.0,standard,25.0,2.0,1.0,
841,10.0,increament,0.6,100.0,standard,25.0,2.0,1.0,
842,10.0,increament,0.6,100.0,standard,25.0,2.0,1.0,
843,10.0,increament,0.6,100.0,standard,25.0,2.0,1.0,
844,10.0,increament,0.6,100.0,standard,25.0,2.0,1.0,
845,10.0,increament,0.96,160.0,oddball,28.0,2.0,0.0,
846,10.0,increament,0.6,100.0,standard,25.0,2.0,1.0,
847,10.0,increament,0.6,100.0,standard,25.0,2.0,1.0,
848,10.0,increament,0.6,100.0,standard,25.0,2.0,1.0,
849,10.0,increament,0.6,100.0,standard,25.0,2.0,1.0,
850,10.0,increament,0.6,100.0,standard,25.0,2.0,1.0,
851,10.0,increament,0.6,100.0,standard,25.0,2.0,1.0,
852,10.0,increament,0.6,100.0,standard,25.0,2.0,1.0,
853,10.0,increament,0.6,100.0,standard,25.0,2.0,1.0,
854,10.0,increament,0.6,100.0,standard,25.0,2.0,1.0,
855,10.0,increament,0.6,100.0,standard,25.0,2.0,1.0,
856,10.0,increament,0.6,100.0,standard,25.0,2.0,1.0,
857,10.0,increament,0.6,100.0,standard,25.0,2.0,1.0,
858,10.0,increament,0.84,140.0,oddball,27.0,2.0,0.0,
859,10.0,increament,0.6,100.0,standard,25.0,2.0,1.0,
860,10.0,increament,0.6,100.0,standard,25.0,2.0,1.0,
861,10.0,increament,0.6,100.0,standard,25.0,2.0,1.0,
862,10.0,increament,0.6,100.0,standard,25.0,2.0,1.0,
863,10.0,increament,0.72,120.0,oddball,26.0,2.0,0.0,
864,10.0,increament,0.6,100.0,standard,25.0,2.0,1.0,
865,10.0,increament,0.6,100.0,standard,25.0,2.0,1.0,
866,10.0,increament,0.6,100.0,standard,25.0,2.0,1.0,
867,10.0,increament,0.6,100.0,standard,25.0,2.0,1.0,
868,10.0,increament,0.6,100.0,standard,25.0,2.0,1.0,
869,10.0,increament,0.6,100.0,standard,25.0,2.0,1.0,
870,10.0,decreament,0.6,100.0,standard,21.0,2.0,1.0,
871,10.0,decreament,0.6,100.0,standard,21.0,2.0,1.0,
872,10.0,decreament,0.6,100.0,standard,21.0,2.0,1.0,
873,10.0,decreament,0.6,100.0,standard,21.0,2.0,1.0,
874,10.0,decreament,0.6,100.0,standard,21.0,2.0,1.0,
875,10.0,decreament,0.6,100.0,standard,21.0,2.0,1.0,
876,10.0,decreament,0.6,100.0,standard,21.0,2.0,1.0,
877,10.0,decreament,0.6,100.0,standard,21.0,2.0,1.0,
878,10.0,decreament,0.36,60.0,oddball,23.0,2.0,0.0,
879,10.0,decreament,0.6,100.0,standard,21.0,2.0,1.0,
880,10.0,decreament,0.6,100.0,standard,21.0,2.0,1.0,
881,10.0,decreament,0.6,100.0,standard,21.0,2.0,1.0,
882,10.0,decreament,0.6,100.0,standard,21.0,2.0,1.0,
883,10.0,decreament,0.6,100.0,standard,21.0,2.0,1.0,
884,10.0,decreament,0.6,100.0,standard,21.0,2.0,1.0,
885,10.0,decreament,0.6,100.0,standard,21.0,2.0,1.0,
886,10.0,decreament,0.6,100.0,standard,21.0,2.0,1.0,
887,10.0,decreament,0.6,100.0,standard,21.0,2.0,1.0,
888,10.0,decreament,0.24,40.0,oddball,22.0,2.0,1.0,0.689364300109446
889,10.0,decreament,0.6,100.0,standard,21.0,2.0,1.0,
890,10.0,decreament,0.6,100.0,standard,21.0,2.0,1.0,
891,10.0,decreament,0.6,100.0,standard,21.0,2.0,1.0,
892,10.0,decreament,0.6,100.0,standard,21.0,2.0,0.0,1.0738280999939889
893,10.0,decreament,0.6,100.0,standard,21.0,2.0,1.0,
894,10.0,decreament,0.6,100.0,standard,21.0,2.0,1.0,
895,10.0,decreament,0.6,100.0,standard,21.0,2.0,1.0,
896,10.0,decreament,0.6,100.0,standard,21.0,2.0,1.0,
897,10.0,decreament,0.48,80.0,oddball,24.0,2.0,1.0,0.7153531999792904
898,10.0,decreament,0.6,100.0,standard,21.0,2.0,1.0,
899,10.0,decreament,0.6,100.0,standard,21.0,2.0,1.0,
900,0.0,increament,0.6,100.0,standard,5.0,3.0,1.0,
901,0.0,increament,0.6,100.0,standard,5.0,3.0,1.0,
902,0.0,increament,0.6,100.0,standard,5.0,3.0,1.0,
903,0.0,increament,0.6,100.0,standard,5.0,3.0,1.0,
904,0.0,increament,0.6,100.0,standard,5.0,3.0,1.0,
905,0.0,increament,0.6,100.0,standard,5.0,3.0,1.0,
906,0.0,increament,0.6,100.0,standard,5.0,3.0,1.0,
907,0.0,increament,0.6,100.0,standard,5.0,3.0,1.0,
908,0.0,increament,0.6,100.0,standard,5.0,3.0,1.0,
909,0.0,increament,0.6,100.0,standard,5.0,3.0,1.0,
910,0.0,increament,0.72,120.0,oddball,6.0,3.0,0.0,
911,0.0,increament,0.6,100.0,standard,5.0,3.0,1.0,
912,0.0,increament,0.6,100.0,standard,5.0,3.0,1.0,
913,0.0,increament,0.6,100.0,standard,5.0,3.0,1.0,
914,0.0,increament,0.6,100.0,standard,5.0,3.0,1.0,
915,0.0,increament,0.84,140.0,oddball,7.0,3.0,0.0,
916,0.0,increament,0.6,100.0,standard,5.0,3.0,1.0,
917,0.0,increament,0.6,100.0,standard,5.0,3.0,1.0,
918,0.0,increament,0.6,100.0,standard,5.0,3.0,1.0,
919,0.0,increament,0.6,100.0,standard,5.0,3.0,1.0,
920,0.0,increament,0.96,160.0,oddball,8.0,3.0,1.0,0.4465433002915233
921,0.0,increament,0.6,100.0,standard,5.0,3.0,1.0,
922,0.0,increament,0.6,100.0,standard,5.0,3.0,1.0,
923,0.0,increament,0.6,100.0,standard,5.0,3.0,1.0,
924,0.0,increament,0.6,100.0,standard,5.0,3.0,1.0,
925,0.0,increament,0.6,100.0,standard,5.0,3.0,1.0,
926,0.0,increament,0.6,100.0,standard,5.0,3.0,1.0,
927,0.0,increament,0.6,100.0,standard,5.0,3.0,1.0,
928,0.0,increament,0.6,100.0,standard,5.0,3.0,1.0,
929,0.0,increament,0.6,100.0,standard,5.0,3.0,1.0,
930,0.0,decreament,0.6,100.0,standard,1.0,3.0,1.0,
931,0.0,decreament,0.6,100.0,standard,1.0,3.0,1.0,
932,0.0,decreament,0.6,100.0,standard,1.0,3.0,1.0,
933,0.0,decreament,0.6,100.0,standard,1.0,3.0,1.0,
934,0.0,decreament,0.6,100.0,standard,1.0,3.0,1.0,
935,0.0,decreament,0.6,100.0,standard,1.0,3.0,1.0,
936,0.0,decreament,0.6,100.0,standard,1.0,3.0,1.0,
937,0.0,decreament,0.6,100.0,standard,1.0,3.0,1.0,
938,0.0,decreament,0.6,100.0,standard,1.0,3.0,1.0,
939,0.0,decreament,0.6,100.0,standard,1.0,3.0,0.0,0.5776328002102673
940,0.0,decreament,0.6,100.0,standard,1.0,3.0,1.0,
941,0.0,decreament,0.6,100.0,standard,1.0,3.0,1.0,
942,0.0,decreament,0.48,80.0,oddball,4.0,3.0,0.0,
943,0.0,decreament,0.6,100.0,standard,1.0,3.0,1.0,
944,0.0,decreament,0.6,100.0,standard,1.0,3.0,0.0,0.6519633000716567
945,0.0,decreament,0.6,100.0,standard,1.0,3.0,1.0,
946,0.0,decreament,0.6,100.0,standard,1.0,3.0,1.0,
947,0.0,decreament,0.6,100.0,standard,1.0,3.0,1.0,
948,0.0,decreament,0.6,100.0,standard,1.0,3.0,1.0,
949,0.0,decreament,0.6,100.0,standard,1.0,3.0,1.0,
950,0.0,decreament,0.24,40.0,oddball,2.0,3.0,1.0,0.5204738001339138
951,0.0,decreament,0.6,100.0,standard,1.0,3.0,1.0,
952,0.0,decreament,0.6,100.0,standard,1.0,3.0,1.0,
953,0.0,decreament,0.6,100.0,standard,1.0,3.0,1.0,
954,0.0,decreament,0.36,60.0,oddball,3.0,3.0,1.0,0.7190214002039284
955,0.0,decreament,0.6,100.0,standard,1.0,3.0,1.0,
956,0.0,decreament,0.6,100.0,standard,1.0,3.0,1.0,
957,0.0,decreament,0.6,100.0,standard,1.0,3.0,1.0,
958,0.0,decreament,0.6,100.0,standard,1.0,3.0,1.0,
959,0.0,decreament,0.6,100.0,standard,1.0,3.0,1.0,
960,0.0,increament,0.6,100.0,standard,5.0,3.0,1.0,
961,0.0,increament,0.6,100.0,standard,5.0,3.0,1.0,
962,0.0,increament,0.6,100.0,standard,5.0,3.0,1.0,
963,0.0,increament,0.6,100.0,standard,5.0,3.0,1.0,
964,0.0,increament,0.6,100.0,standard,5.0,3.0,1.0,
965,0.0,increament,0.6,100.0,standard,5.0,3.0,1.0,
966,0.0,increament,0.6,100.0,standard,5.0,3.0,1.0,
967,0.0,increament,0.96,160.0,oddball,8.0,3.0,1.0,0.5255515000317246
968,0.0,increament,0.6,100.0,standard,5.0,3.0,1.0,
969,0.0,increament,0.6,100.0,standard,5.0,3.0,1.0,
970,0.0,increament,0.6,100.0,standard,5.0,3.0,1.0,
971,0.0,increament,0.6,100.0,standard,5.0,3.0,1.0,
972,0.0,increament,0.6,100.0,standard,5.0,3.0,1.0,
973,0.0,increament,0.6,100.0,standard,5.0,3.0,1.0,
974,0.0,increament,0.6,100.0,standard,5.0,3.0,1.0,
975,0.0,increament,0.72,120.0,oddball,6.0,3.0,0.0,
976,0.0,increament,0.6,100.0,standard,5.0,3.0,1.0,
977,0.0,increament,0.6,100.0,standard,5.0,3.0,1.0,
978,0.0,increament,0.6,100.0,standard,5.0,3.0,1.0,
979,0.0,increament,0.6,100.0,standard,5.0,3.0,1.0,
980,0.0,increament,0.6,100.0,standard,5.0,3.0,1.0,
981,0.0,increament,0.6,100.0,standard,5.0,3.0,1.0,
982,0.0,increament,0.6,100.0,standard,5.0,3.0,1.0,
983,0.0,increament,0.84,140.0,oddball,7.0,3.0,1.0,0.734455700032413
984,0.0,increament,0.6,100.0,standard,5.0,3.0,1.0,
985,0.0,increament,0.6,100.0,standard,5.0,3.0,1.0,
986,0.0,increament,0.6,100.0,standard,5.0,3.0,1.0,
987,0.0,increament,0.6,100.0,standard,5.0,3.0,1.0,
988,0.0,increament,0.6,100.0,standard,5.0,3.0,1.0,
989,0.0,increament,0.6,100.0,standard,5.0,3.0,1.0,
990,0.0,decreament,0.6,100.0,standard,1.0,3.0,1.0,
991,0.0,decreament,0.6,100.0,standard,1.0,3.0,1.0,
992,0.0,decreament,0.6,100.0,standard,1.0,3.0,1.0,
993,0.0,decreament,0.6,100.0,standard,1.0,3.0,1.0,
994,0.0,decreament,0.6,100.0,standard,1.0,3.0,1.0,
995,0.0,decreament,0.6,100.0,standard,1.0,3.0,0.0,0.8869123000185937
996,0.0,decreament,0.6,100.0,standard,1.0,3.0,1.0,
997,0.0,decreament,0.6,100.0,standard,1.0,3.0,1.0,
998,0.0,decreament,0.48,80.0,oddball,4.0,3.0,0.0,
999,0.0,decreament,0.6,100.0,standard,1.0,3.0,1.0,
1000,0.0,decreament,0.6,100.0,standard,1.0,3.0,1.0,
1001,0.0,decreament,0.6,100.0,standard,1.0,3.0,1.0,
1002,0.0,decreament,0.6,100.0,standard,1.0,3.0,1.0,
1003,0.0,decreament,0.6,100.0,standard,1.0,3.0,0.0,0.5884801000356674
1004,0.0,decreament,0.6,100.0,standard,1.0,3.0,0.0,1.7555613999720665
1005,0.0,decreament,0.6,100.0,standard,1.0,3.0,1.0,
1006,0.0,decreament,0.6,100.0,standard,1.0,3.0,1.0,
1007,0.0,decreament,0.6,100.0,standard,1.0,3.0,1.0,
1008,0.0,decreament,0.6,100.0,standard,1.0,3.0,1.0,
1009,0.0,decreament,0.6,100.0,standard,1.0,3.0,0.0,1.509244100190699
1010,0.0,decreament,0.36,60.0,oddball,3.0,3.0,0.0,
1011,0.0,decreament,0.6,100.0,standard,1.0,3.0,1.0,
1012,0.0,decreament,0.6,100.0,standard,1.0,3.0,1.0,
1013,0.0,decreament,0.6,100.0,standard,1.0,3.0,1.0,
1014,0.0,decreament,0.6,100.0,standard,1.0,3.0,0.0,0.8825051002204418
1015,0.0,decreament,0.24,40.0,oddball,2.0,3.0,0.0,
1016,0.0,decreament,0.6,100.0,standard,1.0,3.0,1.0,
1017,0.0,decreament,0.6,100.0,standard,1.0,3.0,1.0,
1018,0.0,decreament,0.6,100.0,standard,1.0,3.0,1.0,
1019,0.0,decreament,0.6,100.0,standard,1.0,3.0,1.0,
1020,0.0,increament,0.6,100.0,standard,5.0,3.0,1.0,
1021,0.0,increament,0.6,100.0,standard,5.0,3.0,1.0,
1022,0.0,increament,0.6,100.0,standard,5.0,3.0,1.0,
1023,0.0,increament,0.6,100.0,standard,5.0,3.0,1.0,
1024,0.0,increament,0.6,100.0,standard,5.0,3.0,1.0,
1025,0.0,increament,0.6,100.0,standard,5.0,3.0,1.0,
1026,0.0,increament,0.6,100.0,standard,5.0,3.0,1.0,
1027,0.0,increament,0.6,100.0,standard,5.0,3.0,1.0,
1028,0.0,increament,0.6,100.0,standard,5.0,3.0,1.0,
1029,0.0,increament,0.6,100.0,standard,5.0,3.0,1.0,
1030,0.0,increament,0.6,100.0,standard,5.0,3.0,1.0,
1031,0.0,increament,0.6,100.0,standard,5.0,3.0,1.0,
1032,0.0,increament,0.6,100.0,standard,5.0,3.0,1.0,
1033,0.0,increament,0.96,160.0,oddball,8.0,3.0,0.0,
1034,0.0,increament,0.6,100.0,standard,5.0,3.0,1.0,
1035,0.0,increament,0.6,100.0,standard,5.0,3.0,1.0,
1036,0.0,increament,0.6,100.0,standard,5.0,3.0,1.0,
1037,0.0,increament,0.6,100.0,standard,5.0,3.0,0.0,1.1246264001820236
1038,0.0,increament,0.6,100.0,standard,5.0,3.0,1.0,
1039,0.0,increament,0.72,120.0,oddball,6.0,3.0,0.0,
1040,0.0,increament,0.6,100.0,standard,5.0,3.0,1.0,
1041,0.0,increament,0.6,100.0,standard,5.0,3.0,1.0,
1042,0.0,increament,0.6,100.0,standard,5.0,3.0,1.0,
1043,0.0,increament,0.6,100.0,standard,5.0,3.0,1.0,
1044,0.0,increament,0.6,100.0,standard,5.0,3.0,1.0,
1045,0.0,increament,0.6,100.0,standard,5.0,3.0,1.0,
1046,0.0,increament,0.84,140.0,oddball,7.0,3.0,0.0,
1047,0.0,increament,0.6,100.0,standard,5.0,3.0,1.0,
1048,0.0,increament,0.6,100.0,standard,5.0,3.0,1.0,
1049,0.0,increament,0.6,100.0,standard,5.0,3.0,1.0,
1050,0.0,decreament,0.6,100.0,standard,1.0,3.0,1.0,
1051,0.0,decreament,0.6,100.0,standard,1.0,3.0,1.0,
1052,0.0,decreament,0.6,100.0,standard,1.0,3.0,1.0,
1053,0.0,decreament,0.6,100.0,standard,1.0,3.0,1.0,
1054,0.0,decreament,0.6,100.0,standard,1.0,3.0,1.0,
1055,0.0,decreament,0.6,100.0,standard,1.0,3.0,1.0,
1056,0.0,decreament,0.6,100.0,standard,1.0,3.0,1.0,
1057,0.0,decreament,0.36,60.0,oddball,3.0,3.0,1.0,0.5287685000803322
1058,0.0,decreament,0.6,100.0,standard,1.0,3.0,1.0,
1059,0.0,decreament,0.6,100.0,standard,1.0,3.0,1.0,
1060,0.0,decreament,0.6,100.0,standard,1.0,3.0,1.0,
1061,0.0,decreament,0.6,100.0,standard,1.0,3.0,1.0,
1062,0.0,decreament,0.48,80.0,oddball,4.0,3.0,0.0,
1063,0.0,decreament,0.6,100.0,standard,1.0,3.0,1.0,
1064,0.0,decreament,0.6,100.0,standard,1.0,3.0,1.0,
1065,0.0,decreament,0.6,100.0,standard,1.0,3.0,1.0,
1066,0.0,decreament,0.6,100.0,standard,1.0,3.0,1.0,
1067,0.0,decreament,0.6,100.0,standard,1.0,3.0,1.0,
1068,0.0,decreament,0.6,100.0,standard,1.0,3.0,1.0,
1069,0.0,decreament,0.6,100.0,standard,1.0,3.0,1.0,
1070,0.0,decreament,0.6,100.0,standard,1.0,3.0,1.0,
1071,0.0,decreament,0.6,100.0,standard,1.0,3.0,1.0,
1072,0.0,decreament,0.6,100.0,standard,1.0,3.0,1.0,
1073,0.0,decreament,0.6,100.0,standard,1.0,3.0,1.0,
1074,0.0,decreament,0.6,100.0,standard,1.0,3.0,1.0,
1075,0.0,decreament,0.6,100.0,standard,1.0,3.0,1.0,
1076,0.0,decreament,0.6,100.0,standard,1.0,3.0,1.0,
1077,0.0,decreament,0.24,40.0,oddball,2.0,3.0,1.0,0.4374823002144694
1078,0.0,decreament,0.6,100.0,standard,1.0,3.0,1.0,
1079,0.0,decreament,0.6,100.0,standard,1.0,3.0,1.0,
1080,0.0,increament,0.6,100.0,standard,5.0,3.0,1.0,
1081,0.0,increament,0.6,100.0,standard,5.0,3.0,1.0,
1082,0.0,increament,0.6,100.0,standard,5.0,3.0,1.0,
1083,0.0,increament,0.6,100.0,standard,5.0,3.0,1.0,
1084,0.0,increament,0.6,100.0,standard,5.0,3.0,1.0,
1085,0.0,increament,0.6,100.0,standard,5.0,3.0,1.0,
1086,0.0,increament,0.6,100.0,standard,5.0,3.0,1.0,
1087,0.0,increament,0.6,100.0,standard,5.0,3.0,1.0,
1088,0.0,increament,0.6,100.0,standard,5.0,3.0,1.0,
1089,0.0,increament,0.96,160.0,oddball,8.0,3.0,0.0,
1090,0.0,increament,0.6,100.0,standard,5.0,3.0,1.0,
1091,0.0,increament,0.6,100.0,standard,5.0,3.0,1.0,
1092,0.0,increament,0.6,100.0,standard,5.0,3.0,1.0,
1093,0.0,increament,0.6,100.0,standard,5.0,3.0,1.0,
1094,0.0,increament,0.6,100.0,standard,5.0,3.0,1.0,
1095,0.0,increament,0.6,100.0,standard,5.0,3.0,1.0,
1096,0.0,increament,0.72,120.0,oddball,6.0,3.0,0.0,
1097,0.0,increament,0.6,100.0,standard,5.0,3.0,1.0,
1098,0.0,increament,0.6,100.0,standard,5.0,3.0,1.0,
1099,0.0,increament,0.6,100.0,standard,5.0,3.0,1.0,
1100,0.0,increament,0.6,100.0,standard,5.0,3.0,1.0,
1101,0.0,increament,0.6,100.0,standard,5.0,3.0,1.0,
1102,0.0,increament,0.6,100.0,standard,5.0,3.0,1.0,
1103,0.0,increament,0.6,100.0,standard,5.0,3.0,1.0,
1104,0.0,increament,0.84,140.0,oddball,7.0,3.0,0.0,
1105,0.0,increament,0.6,100.0,standard,5.0,3.0,1.0,
1106,0.0,increament,0.6,100.0,standard,5.0,3.0,1.0,
1107,0.0,increament,0.6,100.0,standard,5.0,3.0,1.0,
1108,0.0,increament,0.6,100.0,standard,5.0,3.0,1.0,
1109,0.0,increament,0.6,100.0,standard,5.0,3.0,1.0,
1110,0.0,decreament,0.6,100.0,standard,1.0,3.0,1.0,
1111,0.0,decreament,0.6,100.0,standard,1.0,3.0,1.0,
1112,0.0,decreament,0.6,100.0,standard,1.0,3.0,1.0,
1113,0.0,decreament,0.6,100.0,standard,1.0,3.0,1.0,
1114,0.0,decreament,0.6,100.0,standard,1.0,3.0,1.0,
1115,0.0,decreament,0.48,80.0,oddball,4.0,3.0,0.0,
1116,0.0,decreament,0.6,100.0,standard,1.0,3.0,1.0,
1117,0.0,decreament,0.6,100.0,standard,1.0,3.0,1.0,
1118,0.0,decreament,0.6,100.0,standard,1.0,3.0,1.0,
1119,0.0,decreament,0.6,100.0,standard,1.0,3.0,0.0,0.5513474000617862
1120,0.0,decreament,0.6,100.0,standard,1.0,3.0,1.0,
1121,0.0,decreament,0.6,100.0,standard,1.0,3.0,1.0,
1122,0.0,decreament,0.24,40.0,oddball,2.0,3.0,1.0,0.7688745001796633
1123,0.0,decreament,0.6,100.0,standard,1.0,3.0,1.0,
1124,0.0,decreament,0.6,100.0,standard,1.0,3.0,1.0,
1125,0.0,decreament,0.6,100.0,standard,1.0,3.0,1.0,
1126,0.0,decreament,0.6,100.0,standard,1.0,3.0,1.0,
1127,0.0,decreament,0.6,100.0,standard,1.0,3.0,1.0,
1128,0.0,decreament,0.6,100.0,standard,1.0,3.0,1.0,
1129,0.0,decreament,0.6,100.0,standard,1.0,3.0,1.0,
1130,0.0,decreament,0.6,100.0,standard,1.0,3.0,1.0,
1131,0.0,decreament,0.6,100.0,standard,1.0,3.0,1.0,
1132,0.0,decreament,0.36,60.0,oddball,3.0,3.0,0.0,
1133,0.0,decreament,0.6,100.0,standard,1.0,3.0,1.0,
1134,0.0,decreament,0.6,100.0,standard,1.0,3.0,1.0,
1135,0.0,decreament,0.6,100.0,standard,1.0,3.0,1.0,
1136,0.0,decreament,0.6,100.0,standard,1.0,3.0,1.0,
1137,0.0,decreament,0.6,100.0,standard,1.0,3.0,1.0,
1138,0.0,decreament,0.6,100.0,standard,1.0,3.0,1.0,
1139,0.0,decreament,0.6,100.0,standard,1.0,3.0,1.0,
1140,0.0,increament,0.6,100.0,standard,5.0,3.0,1.0,
1141,0.0,increament,0.6,100.0,standard,5.0,3.0,1.0,
1142,0.0,increament,0.6,100.0,standard,5.0,3.0,1.0,
1143,0.0,increament,0.6,100.0,standard,5.0,3.0,1.0,
1144,0.0,increament,0.6,100.0,standard,5.0,3.0,1.0,
1145,0.0,increament,0.6,100.0,standard,5.0,3.0,1.0,
1146,0.0,increament,0.6,100.0,standard,5.0,3.0,1.0,
1147,0.0,increament,0.6,100.0,standard,5.0,3.0,1.0,
1148,0.0,increament,0.6,100.0,standard,5.0,3.0,1.0,
1149,0.0,increament,0.6,100.0,standard,5.0,3.0,1.0,
1150,0.0,increament,0.6,100.0,standard,5.0,3.0,1.0,
1151,0.0,increament,0.6,100.0,standard,5.0,3.0,1.0,
1152,0.0,increament,0.6,100.0,standard,5.0,3.0,1.0,
1153,0.0,increament,0.6,100.0,standard,5.0,3.0,1.0,
1154,0.0,increament,0.6,100.0,standard,5.0,3.0,1.0,
1155,0.0,increament,0.6,100.0,standard,5.0,3.0,1.0,
1156,0.0,increament,0.6,100.0,standard,5.0,3.0,1.0,
1157,0.0,increament,0.84,140.0,oddball,7.0,3.0,0.0,
1158,0.0,increament,0.6,100.0,standard,5.0,3.0,1.0,
1159,0.0,increament,0.6,100.0,standard,5.0,3.0,1.0,
1160,0.0,increament,0.6,100.0,standard,5.0,3.0,1.0,
1161,0.0,increament,0.96,160.0,oddball,8.0,3.0,1.0,0.2472356001380831
1162,0.0,increament,0.6,100.0,standard,5.0,3.0,1.0,
1163,0.0,increament,0.6,100.0,standard,5.0,3.0,1.0,
1164,0.0,increament,0.6,100.0,standard,5.0,3.0,1.0,
1165,0.0,increament,0.6,100.0,standard,5.0,3.0,1.0,
1166,0.0,increament,0.6,100.0,standard,5.0,3.0,1.0,
1167,0.0,increament,0.72,120.0,oddball,6.0,3.0,0.0,
1168,0.0,increament,0.6,100.0,standard,5.0,3.0,1.0,
1169,0.0,increament,0.6,100.0,standard,5.0,3.0,1.0,
1170,0.0,decreament,0.6,100.0,standard,1.0,3.0,1.0,
1171,0.0,decreament,0.6,100.0,standard,1.0,3.0,1.0,
1172,0.0,decreament,0.6,100.0,standard,1.0,3.0,1.0,
1173,0.0,decreament,0.6,100.0,standard,1.0,3.0,1.0,
1174,0.0,decreament,0.6,100.0,standard,1.0,3.0,1.0,
1175,0.0,decreament,0.6,100.0,standard,1.0,3.0,1.0,
1176,0.0,decreament,0.6,100.0,standard,1.0,3.0,1.0,
1177,0.0,decreament,0.6,100.0,standard,1.0,3.0,1.0,
1178,0.0,decreament,0.6,100.0,standard,1.0,3.0,1.0,
1179,0.0,decreament,0.6,100.0,standard,1.0,3.0,1.0,
1180,0.0,decreament,0.6,100.0,standard,1.0,3.0,1.0,
1181,0.0,decreament,0.36,60.0,oddball,3.0,3.0,0.0,
1182,0.0,decreament,0.6,100.0,standard,1.0,3.0,1.0,
1183,0.0,decreament,0.6,100.0,standard,1.0,3.0,1.0,
1184,0.0,decreament,0.6,100.0,standard,1.0,3.0,1.0,
1185,0.0,decreament,0.6,100.0,standard,1.0,3.0,1.0,
1186,0.0,decreament,0.6,100.0,standard,1.0,3.0,1.0,
1187,0.0,decreament,0.24,40.0,oddball,2.0,3.0,1.0,0.8992585001979023
1188,0.0,decreament,0.6,100.0,standard,1.0,3.0,1.0,
1189,0.0,decreament,0.6,100.0,standard,1.0,3.0,1.0,
1190,0.0,decreament,0.6,100.0,standard,1.0,3.0,1.0,
1191,0.0,decreament,0.48,80.0,oddball,4.0,3.0,0.0,
1192,0.0,decreament,0.6,100.0,standard,1.0,3.0,1.0,
1193,0.0,decreament,0.6,100.0,standard,1.0,3.0,1.0,
1194,0.0,decreament,0.6,100.0,standard,1.0,3.0,1.0,
1195,0.0,decreament,0.6,100.0,standard,1.0,3.0,1.0,
1196,0.0,decreament,0.6,100.0,standard,1.0,3.0,1.0,
1197,0.0,decreament,0.6,100.0,standard,1.0,3.0,1.0,
1198,0.0,decreament,0.6,100.0,standard,1.0,3.0,1.0,
1199,0.0,decreament,0.6,100.0,standard,1.0,3.0,1.0,
