,grating_freq,direction,duration,scaling,stim_type,trigger,blocks.thisN,resp.corr,resp.rt
0,10.0,decreament,0.6,100.0,standard,21.0,0.0,1.0,
1,10.0,decreament,0.6,100.0,standard,21.0,0.0,1.0,
2,10.0,decreament,0.6,100.0,standard,21.0,0.0,1.0,
3,10.0,decreament,0.6,100.0,standard,21.0,0.0,1.0,
4,10.0,decreament,0.6,100.0,standard,21.0,0.0,1.0,
5,10.0,decreament,0.6,100.0,standard,21.0,0.0,1.0,
6,10.0,decreament,0.24,40.0,oddball,22.0,0.0,1.0,0.6071254005655646
7,10.0,decreament,0.6,100.0,standard,21.0,0.0,1.0,
8,10.0,decreament,0.6,100.0,standard,21.0,0.0,1.0,
9,10.0,decreament,0.6,100.0,standard,21.0,0.0,1.0,
10,10.0,decreament,0.48,80.0,oddball,24.0,0.0,0.0,
11,10.0,decreament,0.6,100.0,standard,21.0,0.0,1.0,
12,10.0,decreament,0.6,100.0,standard,21.0,0.0,1.0,
13,10.0,decreament,0.6,100.0,standard,21.0,0.0,1.0,
14,10.0,decreament,0.6,100.0,standard,21.0,0.0,1.0,
15,10.0,decreament,0.6,100.0,standard,21.0,0.0,1.0,
16,10.0,decreament,0.6,100.0,standard,21.0,0.0,1.0,
17,10.0,decreament,0.6,100.0,standard,21.0,0.0,1.0,
18,10.0,decreament,0.6,100.0,standard,21.0,0.0,1.0,
19,10.0,decreament,0.6,100.0,standard,21.0,0.0,1.0,
20,10.0,decreament,0.6,100.0,standard,21.0,0.0,1.0,
21,10.0,decreament,0.6,100.0,standard,21.0,0.0,1.0,
22,10.0,decreament,0.6,100.0,standard,21.0,0.0,1.0,
23,10.0,decreament,0.6,100.0,standard,21.0,0.0,1.0,
24,10.0,decreament,0.6,100.0,standard,21.0,0.0,1.0,
25,10.0,decreament,0.6,100.0,standard,21.0,0.0,1.0,
26,10.0,decreament,0.6,100.0,standard,21.0,0.0,1.0,
27,10.0,decreament,0.6,100.0,standard,21.0,0.0,1.0,
28,10.0,decreament,0.6,100.0,standard,21.0,0.0,0.0,0.796810400672257
29,10.0,decreament,0.36,60.0,oddball,23.0,0.0,1.0,0.7074621003121138
30,10.0,increament,0.6,100.0,standard,25.0,0.0,1.0,
31,10.0,increament,0.6,100.0,standard,25.0,0.0,1.0,
32,10.0,increament,0.6,100.0,standard,25.0,0.0,1.0,
33,10.0,increament,0.6,100.0,standard,25.0,0.0,1.0,
34,10.0,increament,0.6,100.0,standard,25.0,0.0,1.0,
35,10.0,increament,0.6,100.0,standard,25.0,0.0,1.0,
36,10.0,increament,0.6,100.0,standard,25.0,0.0,1.0,
37,10.0,increament,0.6,100.0,standard,25.0,0.0,1.0,
38,10.0,increament,0.6,100.0,standard,25.0,0.0,1.0,
39,10.0,increament,0.6,100.0,standard,25.0,0.0,1.0,
40,10.0,increament,0.6,100.0,standard,25.0,0.0,1.0,
41,10.0,increament,0.6,100.0,standard,25.0,0.0,1.0,
42,10.0,increament,0.6,100.0,standard,25.0,0.0,1.0,
43,10.0,increament,0.6,100.0,standard,25.0,0.0,1.0,
44,10.0,increament,0.96,160.0,oddball,28.0,0.0,1.0,0.3049739999696612
45,10.0,increament,0.6,100.0,standard,25.0,0.0,1.0,
46,10.0,increament,0.6,100.0,standard,25.0,0.0,1.0,
47,10.0,increament,0.6,100.0,standard,25.0,0.0,1.0,
48,10.0,increament,0.72,120.0,oddball,26.0,0.0,0.0,
49,10.0,increament,0.6,100.0,standard,25.0,0.0,1.0,
50,10.0,increament,0.6,100.0,standard,25.0,0.0,1.0,
51,10.0,increament,0.6,100.0,standard,25.0,0.0,1.0,
52,10.0,increament,0.6,100.0,standard,25.0,0.0,1.0,
53,10.0,increament,0.6,100.0,standard,25.0,0.0,1.0,
54,10.0,increament,0.6,100.0,standard,25.0,0.0,1.0,
55,10.0,increament,0.6,100.0,standard,25.0,0.0,1.0,
56,10.0,increament,0.6,100.0,standard,25.0,0.0,1.0,
57,10.0,increament,0.84,140.0,oddball,27.0,0.0,1.0,0.954947399906814
58,10.0,increament,0.6,100.0,standard,25.0,0.0,1.0,
59,10.0,increament,0.6,100.0,standard,25.0,0.0,1.0,
60,10.0,decreament,0.6,100.0,standard,21.0,0.0,1.0,
61,10.0,decreament,0.6,100.0,standard,21.0,0.0,1.0,
62,10.0,decreament,0.6,100.0,standard,21.0,0.0,1.0,
63,10.0,decreament,0.6,100.0,standard,21.0,0.0,1.0,
64,10.0,decreament,0.6,100.0,standard,21.0,0.0,1.0,
65,10.0,decreament,0.6,100.0,standard,21.0,0.0,1.0,
66,10.0,decreament,0.6,100.0,standard,21.0,0.0,1.0,
67,10.0,decreament,0.6,100.0,standard,21.0,0.0,1.0,
68,10.0,decreament,0.48,80.0,oddball,24.0,0.0,0.0,
69,10.0,decreament,0.6,100.0,standard,21.0,0.0,1.0,
70,10.0,decreament,0.6,100.0,standard,21.0,0.0,1.0,
71,10.0,decreament,0.6,100.0,standard,21.0,0.0,1.0,
72,10.0,decreament,0.6,100.0,standard,21.0,0.0,1.0,
73,10.0,decreament,0.36,60.0,oddball,23.0,0.0,1.0,0.5870010005310178
74,10.0,decreament,0.6,100.0,standard,21.0,0.0,1.0,
75,10.0,decreament,0.6,100.0,standard,21.0,0.0,1.0,
76,10.0,decreament,0.6,100.0,standard,21.0,0.0,1.0,
77,10.0,decreament,0.6,100.0,standard,21.0,0.0,1.0,
78,10.0,decreament,0.6,100.0,standard,21.0,0.0,1.0,
79,10.0,decreament,0.6,100.0,standard,21.0,0.0,1.0,
80,10.0,decreament,0.6,100.0,standard,21.0,0.0,1.0,
81,10.0,decreament,0.6,100.0,standard,21.0,0.0,1.0,
82,10.0,decreament,0.6,100.0,standard,21.0,0.0,1.0,
83,10.0,decreament,0.6,100.0,standard,21.0,0.0,1.0,
84,10.0,decreament,0.24,40.0,oddball,22.0,0.0,1.0,0.5849139001220465
85,10.0,decreament,0.6,100.0,standard,21.0,0.0,1.0,
86,10.0,decreament,0.6,100.0,standard,21.0,0.0,1.0,
87,10.0,decreament,0.6,100.0,standard,21.0,0.0,1.0,
88,10.0,decreament,0.6,100.0,standard,21.0,0.0,1.0,
89,10.0,decreament,0.6,100.0,standard,21.0,0.0,1.0,
90,10.0,increament,0.6,100.0,standard,25.0,0.0,1.0,
91,10.0,increament,0.6,100.0,standard,25.0,0.0,1.0,
92,10.0,increament,0.6,100.0,standard,25.0,0.0,1.0,
93,10.0,increament,0.6,100.0,standard,25.0,0.0,1.0,
94,10.0,increament,0.6,100.0,standard,25.0,0.0,1.0,
95,10.0,increament,0.6,100.0,standard,25.0,0.0,1.0,
96,10.0,increament,0.6,100.0,standard,25.0,0.0,1.0,
97,10.0,increament,0.6,100.0,standard,25.0,0.0,1.0,
98,10.0,increament,0.6,100.0,standard,25.0,0.0,1.0,
99,10.0,increament,0.96,160.0,oddball,28.0,0.0,1.0,0.3998210001736879
100,10.0,increament,0.6,100.0,standard,25.0,0.0,1.0,
101,10.0,increament,0.6,100.0,standard,25.0,0.0,1.0,
102,10.0,increament,0.6,100.0,standard,25.0,0.0,1.0,
103,10.0,increament,0.6,100.0,standard,25.0,0.0,1.0,
104,10.0,increament,0.6,100.0,standard,25.0,0.0,1.0,
105,10.0,increament,0.6,100.0,standard,25.0,0.0,1.0,
106,10.0,increament,0.6,100.0,standard,25.0,0.0,1.0,
107,10.0,increament,0.6,100.0,standard,25.0,0.0,1.0,
108,10.0,increament,0.84,140.0,oddball,27.0,0.0,0.0,
109,10.0,increament,0.6,100.0,standard,25.0,0.0,1.0,
110,10.0,increament,0.6,100.0,standard,25.0,0.0,1.0,
111,10.0,increament,0.6,100.0,standard,25.0,0.0,1.0,
112,10.0,increament,0.6,100.0,standard,25.0,0.0,1.0,
113,10.0,increament,0.6,100.0,standard,25.0,0.0,1.0,
114,10.0,increament,0.6,100.0,standard,25.0,0.0,1.0,
115,10.0,increament,0.6,100.0,standard,25.0,0.0,1.0,
116,10.0,increament,0.6,100.0,standard,25.0,0.0,1.0,
117,10.0,increament,0.72,120.0,oddball,26.0,0.0,0.0,
118,10.0,increament,0.6,100.0,standard,25.0,0.0,1.0,
119,10.0,increament,0.6,100.0,standard,25.0,0.0,1.0,
120,10.0,decreament,0.6,100.0,standard,21.0,0.0,1.0,
121,10.0,decreament,0.6,100.0,standard,21.0,0.0,1.0,
122,10.0,decreament,0.6,100.0,standard,21.0,0.0,1.0,
123,10.0,decreament,0.6,100.0,standard,21.0,0.0,1.0,
124,10.0,decreament,0.6,100.0,standard,21.0,0.0,1.0,
125,10.0,decreament,0.48,80.0,oddball,24.0,0.0,0.0,
126,10.0,decreament,0.6,100.0,standard,21.0,0.0,1.0,
127,10.0,decreament,0.6,100.0,standard,21.0,0.0,1.0,
128,10.0,decreament,0.6,100.0,standard,21.0,0.0,1.0,
129,10.0,decreament,0.6,100.0,standard,21.0,0.0,1.0,
130,10.0,decreament,0.6,100.0,standard,21.0,0.0,1.0,
131,10.0,decreament,0.6,100.0,standard,21.0,0.0,1.0,
132,10.0,decreament,0.36,60.0,oddball,23.0,0.0,1.0,0.540077599696815
133,10.0,decreament,0.6,100.0,standard,21.0,0.0,1.0,
134,10.0,decreament,0.6,100.0,standard,21.0,0.0,1.0,
135,10.0,decreament,0.6,100.0,standard,21.0,0.0,1.0,
136,10.0,decreament,0.6,100.0,standard,21.0,0.0,1.0,
137,10.0,decreament,0.6,100.0,standard,21.0,0.0,1.0,
138,10.0,decreament,0.6,100.0,standard,21.0,0.0,1.0,
139,10.0,decreament,0.6,100.0,standard,21.0,0.0,1.0,
140,10.0,decreament,0.6,100.0,standard,21.0,0.0,1.0,
141,10.0,decreament,0.6,100.0,standard,21.0,0.0,1.0,
142,10.0,decreament,0.24,40.0,oddball,22.0,0.0,1.0,0.484239200130105
143,10.0,decreament,0.6,100.0,standard,21.0,0.0,1.0,
144,10.0,decreament,0.6,100.0,standard,21.0,0.0,1.0,
145,10.0,decreament,0.6,100.0,standard,21.0,0.0,1.0,
146,10.0,decreament,0.6,100.0,standard,21.0,0.0,1.0,
147,10.0,decreament,0.6,100.0,standard,21.0,0.0,1.0,
148,10.0,decreament,0.6,100.0,standard,21.0,0.0,1.0,
149,10.0,decreament,0.6,100.0,standard,21.0,0.0,1.0,
150,10.0,increament,0.6,100.0,standard,25.0,0.0,1.0,
151,10.0,increament,0.6,100.0,standard,25.0,0.0,1.0,
152,10.0,increament,0.6,100.0,standard,25.0,0.0,1.0,
153,10.0,increament,0.6,100.0,standard,25.0,0.0,1.0,
154,10.0,increament,0.6,100.0,standard,25.0,0.0,1.0,
155,10.0,increament,0.6,100.0,standard,25.0,0.0,1.0,
156,10.0,increament,0.6,100.0,standard,25.0,0.0,1.0,
157,10.0,increament,0.6,100.0,standard,25.0,0.0,1.0,
158,10.0,increament,0.72,120.0,oddball,26.0,0.0,0.0,
159,10.0,increament,0.6,100.0,standard,25.0,0.0,1.0,
160,10.0,increament,0.6,100.0,standard,25.0,0.0,1.0,
161,10.0,increament,0.6,100.0,standard,25.0,0.0,1.0,
162,10.0,increament,0.6,100.0,standard,25.0,0.0,1.0,
163,10.0,increament,0.6,100.0,standard,25.0,0.0,1.0,
164,10.0,increament,0.84,140.0,oddball,27.0,0.0,1.0,0.7481220997869968
165,10.0,increament,0.6,100.0,standard,25.0,0.0,1.0,
166,10.0,increament,0.6,100.0,standard,25.0,0.0,1.0,
167,10.0,increament,0.6,100.0,standard,25.0,0.0,1.0,
168,10.0,increament,0.96,160.0,oddball,28.0,0.0,0.0,
169,10.0,increament,0.6,100.0,standard,25.0,0.0,0.0,0.5910459002479911
170,10.0,increament,0.6,100.0,standard,25.0,0.0,1.0,
171,10.0,increament,0.6,100.0,standard,25.0,0.0,1.0,
172,10.0,increament,0.6,100.0,standard,25.0,0.0,1.0,
173,10.0,increament,0.6,100.0,standard,25.0,0.0,1.0,
174,10.0,increament,0.6,100.0,standard,25.0,0.0,1.0,
175,10.0,increament,0.6,100.0,standard,25.0,0.0,1.0,
176,10.0,increament,0.6,100.0,standard,25.0,0.0,1.0,
177,10.0,increament,0.6,100.0,standard,25.0,0.0,1.0,
178,10.0,increament,0.6,100.0,standard,25.0,0.0,1.0,
179,10.0,increament,0.6,100.0,standard,25.0,0.0,1.0,
180,10.0,decreament,0.6,100.0,standard,21.0,0.0,1.0,
181,10.0,decreament,0.6,100.0,standard,21.0,0.0,1.0,
182,10.0,decreament,0.6,100.0,standard,21.0,0.0,1.0,
183,10.0,decreament,0.6,100.0,standard,21.0,0.0,1.0,
184,10.0,decreament,0.6,100.0,standard,21.0,0.0,1.0,
185,10.0,decreament,0.6,100.0,standard,21.0,0.0,1.0,
186,10.0,decreament,0.6,100.0,standard,21.0,0.0,1.0,
187,10.0,decreament,0.6,100.0,standard,21.0,0.0,1.0,
188,10.0,decreament,0.6,100.0,standard,21.0,0.0,1.0,
189,10.0,decreament,0.6,100.0,standard,21.0,0.0,1.0,
190,10.0,decreament,0.6,100.0,standard,21.0,0.0,1.0,
191,10.0,decreament,0.6,100.0,standard,21.0,0.0,1.0,
192,10.0,decreament,0.6,100.0,standard,21.0,0.0,1.0,
193,10.0,decreament,0.6,100.0,standard,21.0,0.0,1.0,
194,10.0,decreament,0.6,100.0,standard,21.0,0.0,1.0,
195,10.0,decreament,0.6,100.0,standard,21.0,0.0,1.0,
196,10.0,decreament,0.6,100.0,standard,21.0,0.0,1.0,
197,10.0,decreament,0.6,100.0,standard,21.0,0.0,1.0,
198,10.0,decreament,0.24,40.0,oddball,22.0,0.0,1.0,0.6489901002496481
199,10.0,decreament,0.6,100.0,standard,21.0,0.0,1.0,
200,10.0,decreament,0.6,100.0,standard,21.0,0.0,1.0,
201,10.0,decreament,0.6,100.0,standard,21.0,0.0,1.0,
202,10.0,decreament,0.6,100.0,standard,21.0,0.0,1.0,
203,10.0,decreament,0.6,100.0,standard,21.0,0.0,1.0,
204,10.0,decreament,0.48,80.0,oddball,24.0,0.0,0.0,
205,10.0,decreament,0.6,100.0,standard,21.0,0.0,1.0,
206,10.0,decreament,0.6,100.0,standard,21.0,0.0,1.0,
207,10.0,decreament,0.6,100.0,standard,21.0,0.0,1.0,
208,10.0,decreament,0.6,100.0,standard,21.0,0.0,1.0,
209,10.0,decreament,0.36,60.0,oddball,23.0,0.0,0.0,
210,10.0,increament,0.6,100.0,standard,25.0,0.0,1.0,
211,10.0,increament,0.6,100.0,standard,25.0,0.0,1.0,
212,10.0,increament,0.6,100.0,standard,25.0,0.0,1.0,
213,10.0,increament,0.6,100.0,standard,25.0,0.0,1.0,
214,10.0,increament,0.6,100.0,standard,25.0,0.0,1.0,
215,10.0,increament,0.84,140.0,oddball,27.0,0.0,0.0,
216,10.0,increament,0.6,100.0,standard,25.0,0.0,1.0,
217,10.0,increament,0.6,100.0,standard,25.0,0.0,1.0,
218,10.0,increament,0.6,100.0,standard,25.0,0.0,1.0,
219,10.0,increament,0.6,100.0,standard,25.0,0.0,1.0,
220,10.0,increament,0.96,160.0,oddball,28.0,0.0,1.0,0.5413645002990961
221,10.0,increament,0.6,100.0,standard,25.0,0.0,1.0,
222,10.0,increament,0.6,100.0,standard,25.0,0.0,1.0,
223,10.0,increament,0.6,100.0,standard,25.0,0.0,1.0,
224,10.0,increament,0.6,100.0,standard,25.0,0.0,1.0,
225,10.0,increament,0.6,100.0,standard,25.0,0.0,1.0,
226,10.0,increament,0.6,100.0,standard,25.0,0.0,1.0,
227,10.0,increament,0.6,100.0,standard,25.0,0.0,1.0,
228,10.0,increament,0.6,100.0,standard,25.0,0.0,1.0,
229,10.0,increament,0.6,100.0,standard,25.0,0.0,1.0,
230,10.0,increament,0.6,100.0,standard,25.0,0.0,1.0,
231,10.0,increament,0.72,120.0,oddball,26.0,0.0,0.0,
232,10.0,increament,0.6,100.0,standard,25.0,0.0,1.0,
233,10.0,increament,0.6,100.0,standard,25.0,0.0,1.0,
234,10.0,increament,0.6,100.0,standard,25.0,0.0,1.0,
235,10.0,increament,0.6,100.0,standard,25.0,0.0,1.0,
236,10.0,increament,0.6,100.0,standard,25.0,0.0,1.0,
237,10.0,increament,0.6,100.0,standard,25.0,0.0,1.0,
238,10.0,increament,0.6,100.0,standard,25.0,0.0,1.0,
239,10.0,increament,0.6,100.0,standard,25.0,0.0,1.0,
240,10.0,decreament,0.6,100.0,standard,21.0,0.0,1.0,
241,10.0,decreament,0.6,100.0,standard,21.0,0.0,1.0,
242,10.0,decreament,0.6,100.0,standard,21.0,0.0,1.0,
243,10.0,decreament,0.6,100.0,standard,21.0,0.0,1.0,
244,10.0,decreament,0.6,100.0,standard,21.0,0.0,1.0,
245,10.0,decreament,0.6,100.0,standard,21.0,0.0,1.0,
246,10.0,decreament,0.6,100.0,standard,21.0,0.0,1.0,
247,10.0,decreament,0.6,100.0,standard,21.0,0.0,1.0,
248,10.0,decreament,0.48,80.0,oddball,24.0,0.0,1.0,0.7110888995230198
249,10.0,decreament,0.6,100.0,standard,21.0,0.0,1.0,
250,10.0,decreament,0.6,100.0,standard,21.0,0.0,1.0,
251,10.0,decreament,0.6,100.0,standard,21.0,0.0,1.0,
252,10.0,decreament,0.6,100.0,standard,21.0,0.0,1.0,
253,10.0,decreament,0.6,100.0,standard,21.0,0.0,1.0,
254,10.0,decreament,0.6,100.0,standard,21.0,0.0,1.0,
255,10.0,decreament,0.6,100.0,standard,21.0,0.0,1.0,
256,10.0,decreament,0.6,100.0,standard,21.0,0.0,1.0,
257,10.0,decreament,0.24,40.0,oddball,22.0,0.0,1.0,0.6833589002490044
258,10.0,decreament,0.6,100.0,standard,21.0,0.0,1.0,
259,10.0,decreament,0.6,100.0,standard,21.0,0.0,1.0,
260,10.0,decreament,0.6,100.0,standard,21.0,0.0,1.0,
261,10.0,decreament,0.6,100.0,standard,21.0,0.0,1.0,
262,10.0,decreament,0.6,100.0,standard,21.0,0.0,1.0,
263,10.0,decreament,0.6,100.0,standard,21.0,0.0,1.0,
264,10.0,decreament,0.6,100.0,standard,21.0,0.0,1.0,
265,10.0,decreament,0.6,100.0,standard,21.0,0.0,1.0,
266,10.0,decreament,0.36,60.0,oddball,23.0,0.0,1.0,0.7446042001247406
267,10.0,decreament,0.6,100.0,standard,21.0,0.0,1.0,
268,10.0,decreament,0.6,100.0,standard,21.0,0.0,1.0,
269,10.0,decreament,0.6,100.0,standard,21.0,0.0,1.0,
270,10.0,increament,0.6,100.0,standard,25.0,0.0,1.0,
271,10.0,increament,0.6,100.0,standard,25.0,0.0,1.0,
272,10.0,increament,0.6,100.0,standard,25.0,0.0,1.0,
273,10.0,increament,0.6,100.0,standard,25.0,0.0,1.0,
274,10.0,increament,0.6,100.0,standard,25.0,0.0,1.0,
275,10.0,increament,0.6,100.0,standard,25.0,0.0,1.0,
276,10.0,increament,0.6,100.0,standard,25.0,0.0,1.0,
277,10.0,increament,0.6,100.0,standard,25.0,0.0,1.0,
278,10.0,increament,0.6,100.0,standard,25.0,0.0,1.0,
279,10.0,increament,0.96,160.0,oddball,28.0,0.0,1.0,0.3710612999275327
280,10.0,increament,0.6,100.0,standard,25.0,0.0,1.0,
281,10.0,increament,0.6,100.0,standard,25.0,0.0,1.0,
282,10.0,increament,0.6,100.0,standard,25.0,0.0,1.0,
283,10.0,increament,0.6,100.0,standard,25.0,0.0,1.0,
284,10.0,increament,0.6,100.0,standard,25.0,0.0,1.0,
285,10.0,increament,0.6,100.0,standard,25.0,0.0,1.0,
286,10.0,increament,0.6,100.0,standard,25.0,0.0,1.0,
287,10.0,increament,0.6,100.0,standard,25.0,0.0,1.0,
288,10.0,increament,0.6,100.0,standard,25.0,0.0,1.0,
289,10.0,increament,0.6,100.0,standard,25.0,0.0,1.0,
290,10.0,increament,0.84,140.0,oddball,27.0,0.0,1.0,0.7847798001021147
291,10.0,increament,0.6,100.0,standard,25.0,0.0,1.0,
292,10.0,increament,0.6,100.0,standard,25.0,0.0,1.0,
293,10.0,increament,0.6,100.0,standard,25.0,0.0,1.0,
294,10.0,increament,0.72,120.0,oddball,26.0,0.0,0.0,
295,10.0,increament,0.6,100.0,standard,25.0,0.0,1.0,
296,10.0,increament,0.6,100.0,standard,25.0,0.0,1.0,
297,10.0,increament,0.6,100.0,standard,25.0,0.0,1.0,
298,10.0,increament,0.6,100.0,standard,25.0,0.0,1.0,
299,10.0,increament,0.6,100.0,standard,25.0,0.0,1.0,
300,20.0,decreament,0.6,100.0,standard,41.0,1.0,1.0,
301,20.0,decreament,0.6,100.0,standard,41.0,1.0,1.0,
302,20.0,decreament,0.6,100.0,standard,41.0,1.0,1.0,
303,20.0,decreament,0.6,100.0,standard,41.0,1.0,1.0,
304,20.0,decreament,0.6,100.0,standard,41.0,1.0,1.0,
305,20.0,decreament,0.6,100.0,standard,41.0,1.0,1.0,
306,20.0,decreament,0.6,100.0,standard,41.0,1.0,1.0,
307,20.0,decreament,0.6,100.0,standard,41.0,1.0,1.0,
308,20.0,decreament,0.6,100.0,standard,41.0,1.0,1.0,
309,20.0,decreament,0.48,80.0,oddball,44.0,1.0,0.0,
310,20.0,decreament,0.6,100.0,standard,41.0,1.0,1.0,
311,20.0,decreament,0.6,100.0,standard,41.0,1.0,1.0,
312,20.0,decreament,0.6,100.0,standard,41.0,1.0,1.0,
313,20.0,decreament,0.6,100.0,standard,41.0,1.0,1.0,
314,20.0,decreament,0.36,60.0,oddball,43.0,1.0,1.0,0.660741500556469
315,20.0,decreament,0.6,100.0,standard,41.0,1.0,1.0,
316,20.0,decreament,0.6,100.0,standard,41.0,1.0,1.0,
317,20.0,decreament,0.6,100.0,standard,41.0,1.0,1.0,
318,20.0,decreament,0.6,100.0,standard,41.0,1.0,1.0,
319,20.0,decreament,0.24,40.0,oddball,42.0,1.0,1.0,0.5851710001006722
320,20.0,decreament,0.6,100.0,standard,41.0,1.0,1.0,
321,20.0,decreament,0.6,100.0,standard,41.0,1.0,1.0,
322,20.0,decreament,0.6,100.0,standard,41.0,1.0,1.0,
323,20.0,decreament,0.6,100.0,standard,41.0,1.0,1.0,
324,20.0,decreament,0.6,100.0,standard,41.0,1.0,1.0,
325,20.0,decreament,0.6,100.0,standard,41.0,1.0,1.0,
326,20.0,decreament,0.6,100.0,standard,41.0,1.0,1.0,
327,20.0,decreament,0.6,100.0,standard,41.0,1.0,1.0,
328,20.0,decreament,0.6,100.0,standard,41.0,1.0,1.0,
329,20.0,decreament,0.6,100.0,standard,41.0,1.0,1.0,
330,20.0,increament,0.6,100.0,standard,45.0,1.0,1.0,
331,20.0,increament,0.6,100.0,standard,45.0,1.0,1.0,
332,20.0,increament,0.6,100.0,standard,45.0,1.0,1.0,
333,20.0,increament,0.6,100.0,standard,45.0,1.0,1.0,
334,20.0,increament,0.6,100.0,standard,45.0,1.0,1.0,
335,20.0,increament,0.6,100.0,standard,45.0,1.0,1.0,
336,20.0,increament,0.6,100.0,standard,45.0,1.0,1.0,
337,20.0,increament,0.6,100.0,standard,45.0,1.0,1.0,
338,20.0,increament,0.6,100.0,standard,45.0,1.0,1.0,
339,20.0,increament,0.6,100.0,standard,45.0,1.0,1.0,
340,20.0,increament,0.6,100.0,standard,45.0,1.0,1.0,
341,20.0,increament,0.6,100.0,standard,45.0,1.0,1.0,
342,20.0,increament,0.6,100.0,standard,45.0,1.0,1.0,
343,20.0,increament,0.6,100.0,standard,45.0,1.0,1.0,
344,20.0,increament,0.6,100.0,standard,45.0,1.0,1.0,
345,20.0,increament,0.6,100.0,standard,45.0,1.0,1.0,
346,20.0,increament,0.6,100.0,standard,45.0,1.0,1.0,
347,20.0,increament,0.6,100.0,standard,45.0,1.0,1.0,
348,20.0,increament,0.72,120.0,oddball,46.0,1.0,1.0,0.5941564003005624
349,20.0,increament,0.6,100.0,standard,45.0,1.0,1.0,
350,20.0,increament,0.6,100.0,standard,45.0,1.0,1.0,
351,20.0,increament,0.6,100.0,standard,45.0,1.0,1.0,
352,20.0,increament,0.84,140.0,oddball,47.0,1.0,1.0,0.4093070002272725
353,20.0,increament,0.6,100.0,standard,45.0,1.0,1.0,
354,20.0,increament,0.6,100.0,standard,45.0,1.0,1.0,
355,20.0,increament,0.6,100.0,standard,45.0,1.0,1.0,
356,20.0,increament,0.6,100.0,standard,45.0,1.0,1.0,
357,20.0,increament,0.6,100.0,standard,45.0,1.0,1.0,
358,20.0,increament,0.96,160.0,oddball,48.0,1.0,1.0,0.4640810005366802
359,20.0,increament,0.6,100.0,standard,45.0,1.0,1.0,
360,20.0,decreament,0.6,100.0,standard,41.0,1.0,1.0,
361,20.0,decreament,0.6,100.0,standard,41.0,1.0,1.0,
362,20.0,decreament,0.6,100.0,standard,41.0,1.0,1.0,
363,20.0,decreament,0.6,100.0,standard,41.0,1.0,1.0,
364,20.0,decreament,0.6,100.0,standard,41.0,1.0,1.0,
365,20.0,decreament,0.6,100.0,standard,41.0,1.0,1.0,
366,20.0,decreament,0.6,100.0,standard,41.0,1.0,1.0,
367,20.0,decreament,0.6,100.0,standard,41.0,1.0,1.0,
368,20.0,decreament,0.24,40.0,oddball,42.0,1.0,1.0,0.6818899000063539
369,20.0,decreament,0.6,100.0,standard,41.0,1.0,1.0,
370,20.0,decreament,0.6,100.0,standard,41.0,1.0,1.0,
371,20.0,decreament,0.6,100.0,standard,41.0,1.0,1.0,
372,20.0,decreament,0.6,100.0,standard,41.0,1.0,1.0,
373,20.0,decreament,0.6,100.0,standard,41.0,1.0,1.0,
374,20.0,decreament,0.48,80.0,oddball,44.0,1.0,0.0,
375,20.0,decreament,0.6,100.0,standard,41.0,1.0,1.0,
376,20.0,decreament,0.6,100.0,standard,41.0,1.0,1.0,
377,20.0,decreament,0.6,100.0,standard,41.0,1.0,1.0,
378,20.0,decreament,0.6,100.0,standard,41.0,1.0,1.0,
379,20.0,decreament,0.6,100.0,standard,41.0,1.0,1.0,
380,20.0,decreament,0.6,100.0,standard,41.0,1.0,1.0,
381,20.0,decreament,0.6,100.0,standard,41.0,1.0,1.0,
382,20.0,decreament,0.6,100.0,standard,41.0,1.0,1.0,
383,20.0,decreament,0.6,100.0,standard,41.0,1.0,1.0,
384,20.0,decreament,0.6,100.0,standard,41.0,1.0,1.0,
385,20.0,decreament,0.6,100.0,standard,41.0,1.0,1.0,
386,20.0,decreament,0.6,100.0,standard,41.0,1.0,1.0,
387,20.0,decreament,0.6,100.0,standard,41.0,1.0,1.0,
388,20.0,decreament,0.36,60.0,oddball,43.0,1.0,1.0,0.6246851002797484
389,20.0,decreament,0.6,100.0,standard,41.0,1.0,1.0,
390,20.0,increament,0.6,100.0,standard,45.0,1.0,1.0,
391,20.0,increament,0.6,100.0,standard,45.0,1.0,1.0,
392,20.0,increament,0.6,100.0,standard,45.0,1.0,1.0,
393,20.0,increament,0.6,100.0,standard,45.0,1.0,1.0,
394,20.0,increament,0.6,100.0,standard,45.0,1.0,1.0,
395,20.0,increament,0.6,100.0,standard,45.0,1.0,1.0,
396,20.0,increament,0.6,100.0,standard,45.0,1.0,1.0,
397,20.0,increament,0.6,100.0,standard,45.0,1.0,1.0,
398,20.0,increament,0.72,120.0,oddball,46.0,1.0,0.0,
399,20.0,increament,0.6,100.0,standard,45.0,1.0,1.0,
400,20.0,increament,0.6,100.0,standard,45.0,1.0,1.0,
401,20.0,increament,0.6,100.0,standard,45.0,1.0,1.0,
402,20.0,increament,0.6,100.0,standard,45.0,1.0,1.0,
403,20.0,increament,0.6,100.0,standard,45.0,1.0,1.0,
404,20.0,increament,0.6,100.0,standard,45.0,1.0,1.0,
405,20.0,increament,0.96,160.0,oddball,48.0,1.0,1.0,0.5428039003163576
406,20.0,increament,0.6,100.0,standard,45.0,1.0,1.0,
407,20.0,increament,0.6,100.0,standard,45.0,1.0,1.0,
408,20.0,increament,0.6,100.0,standard,45.0,1.0,1.0,
409,20.0,increament,0.6,100.0,standard,45.0,1.0,1.0,
410,20.0,increament,0.6,100.0,standard,45.0,1.0,1.0,
411,20.0,increament,0.6,100.0,standard,45.0,1.0,1.0,
412,20.0,increament,0.6,100.0,standard,45.0,1.0,1.0,
413,20.0,increament,0.6,100.0,standard,45.0,1.0,1.0,
414,20.0,increament,0.6,100.0,standard,45.0,1.0,1.0,
415,20.0,increament,0.6,100.0,standard,45.0,1.0,1.0,
416,20.0,increament,0.6,100.0,standard,45.0,1.0,1.0,
417,20.0,increament,0.6,100.0,standard,45.0,1.0,1.0,
418,20.0,increament,0.6,100.0,standard,45.0,1.0,1.0,
419,20.0,increament,0.84,140.0,oddball,47.0,1.0,1.0,0.5502980006858706
420,20.0,decreament,0.6,100.0,standard,41.0,1.0,1.0,
421,20.0,decreament,0.6,100.0,standard,41.0,1.0,1.0,
422,20.0,decreament,0.6,100.0,standard,41.0,1.0,1.0,
423,20.0,decreament,0.6,100.0,standard,41.0,1.0,1.0,
424,20.0,decreament,0.6,100.0,standard,41.0,1.0,1.0,
425,20.0,decreament,0.6,100.0,standard,41.0,1.0,1.0,
426,20.0,decreament,0.6,100.0,standard,41.0,1.0,1.0,
427,20.0,decreament,0.6,100.0,standard,41.0,1.0,1.0,
428,20.0,decreament,0.6,100.0,standard,41.0,1.0,1.0,
429,20.0,decreament,0.6,100.0,standard,41.0,1.0,1.0,
430,20.0,decreament,0.6,100.0,standard,41.0,1.0,1.0,
431,20.0,decreament,0.6,100.0,standard,41.0,1.0,1.0,
432,20.0,decreament,0.24,40.0,oddball,42.0,1.0,1.0,0.6293458007276058
433,20.0,decreament,0.6,100.0,standard,41.0,1.0,1.0,
434,20.0,decreament,0.6,100.0,standard,41.0,1.0,1.0,
435,20.0,decreament,0.6,100.0,standard,41.0,1.0,1.0,
436,20.0,decreament,0.6,100.0,standard,41.0,1.0,1.0,
437,20.0,decreament,0.6,100.0,standard,41.0,1.0,1.0,
438,20.0,decreament,0.6,100.0,standard,41.0,1.0,1.0,
439,20.0,decreament,0.48,80.0,oddball,44.0,1.0,0.0,
440,20.0,decreament,0.6,100.0,standard,41.0,1.0,1.0,
441,20.0,decreament,0.6,100.0,standard,41.0,1.0,1.0,
442,20.0,decreament,0.6,100.0,standard,41.0,1.0,1.0,
443,20.0,decreament,0.6,100.0,standard,41.0,1.0,1.0,
444,20.0,decreament,0.6,100.0,standard,41.0,1.0,1.0,
445,20.0,decreament,0.6,100.0,standard,41.0,1.0,1.0,
446,20.0,decreament,0.6,100.0,standard,41.0,1.0,1.0,
447,20.0,decreament,0.6,100.0,standard,41.0,1.0,1.0,
448,20.0,decreament,0.6,100.0,standard,41.0,1.0,1.0,
449,20.0,decreament,0.36,60.0,oddball,43.0,1.0,1.0,0.6912312004715204
450,20.0,increament,0.6,100.0,standard,45.0,1.0,1.0,
451,20.0,increament,0.6,100.0,standard,45.0,1.0,1.0,
452,20.0,increament,0.6,100.0,standard,45.0,1.0,1.0,
453,20.0,increament,0.6,100.0,standard,45.0,1.0,1.0,
454,20.0,increament,0.6,100.0,standard,45.0,1.0,1.0,
455,20.0,increament,0.6,100.0,standard,45.0,1.0,1.0,
456,20.0,increament,0.6,100.0,standard,45.0,1.0,1.0,
457,20.0,increament,0.84,140.0,oddball,47.0,1.0,1.0,0.3058143993839621
458,20.0,increament,0.6,100.0,standard,45.0,1.0,1.0,
459,20.0,increament,0.6,100.0,standard,45.0,1.0,1.0,
460,20.0,increament,0.6,100.0,standard,45.0,1.0,1.0,
461,20.0,increament,0.72,120.0,oddball,46.0,1.0,0.0,
462,20.0,increament,0.6,100.0,standard,45.0,1.0,1.0,
463,20.0,increament,0.6,100.0,standard,45.0,1.0,1.0,
464,20.0,increament,0.6,100.0,standard,45.0,1.0,1.0,
465,20.0,increament,0.6,100.0,standard,45.0,1.0,1.0,
466,20.0,increament,0.6,100.0,standard,45.0,1.0,1.0,
467,20.0,increament,0.6,100.0,standard,45.0,1.0,1.0,
468,20.0,increament,0.6,100.0,standard,45.0,1.0,1.0,
469,20.0,increament,0.6,100.0,standard,45.0,1.0,1.0,
470,20.0,increament,0.6,100.0,standard,45.0,1.0,1.0,
471,20.0,increament,0.6,100.0,standard,45.0,1.0,1.0,
472,20.0,increament,0.6,100.0,standard,45.0,1.0,1.0,
473,20.0,increament,0.6,100.0,standard,45.0,1.0,1.0,
474,20.0,increament,0.6,100.0,standard,45.0,1.0,1.0,
475,20.0,increament,0.6,100.0,standard,45.0,1.0,1.0,
476,20.0,increament,0.6,100.0,standard,45.0,1.0,1.0,
477,20.0,increament,0.96,160.0,oddball,48.0,1.0,1.0,0.3608632003888488
478,20.0,increament,0.6,100.0,standard,45.0,1.0,1.0,
479,20.0,increament,0.6,100.0,standard,45.0,1.0,1.0,
480,20.0,decreament,0.6,100.0,standard,41.0,1.0,1.0,
481,20.0,decreament,0.6,100.0,standard,41.0,1.0,1.0,
482,20.0,decreament,0.6,100.0,standard,41.0,1.0,1.0,
483,20.0,decreament,0.6,100.0,standard,41.0,1.0,1.0,
484,20.0,decreament,0.6,100.0,standard,41.0,1.0,1.0,
485,20.0,decreament,0.6,100.0,standard,41.0,1.0,1.0,
486,20.0,decreament,0.6,100.0,standard,41.0,1.0,1.0,
487,20.0,decreament,0.6,100.0,standard,41.0,1.0,1.0,
488,20.0,decreament,0.6,100.0,standard,41.0,1.0,1.0,
489,20.0,decreament,0.24,40.0,oddball,42.0,1.0,1.0,0.5662219002842903
490,20.0,decreament,0.6,100.0,standard,41.0,1.0,1.0,
491,20.0,decreament,0.6,100.0,standard,41.0,1.0,1.0,
492,20.0,decreament,0.6,100.0,standard,41.0,1.0,1.0,
493,20.0,decreament,0.36,60.0,oddball,43.0,1.0,1.0,0.5352488998323679
494,20.0,decreament,0.6,100.0,standard,41.0,1.0,1.0,
495,20.0,decreament,0.6,100.0,standard,41.0,1.0,1.0,
496,20.0,decreament,0.6,100.0,standard,41.0,1.0,1.0,
497,20.0,decreament,0.6,100.0,standard,41.0,1.0,1.0,
498,20.0,decreament,0.6,100.0,standard,41.0,1.0,1.0,
499,20.0,decreament,0.6,100.0,standard,41.0,1.0,1.0,
500,20.0,decreament,0.48,80.0,oddball,44.0,1.0,0.0,
501,20.0,decreament,0.6,100.0,standard,41.0,1.0,1.0,
502,20.0,decreament,0.6,100.0,standard,41.0,1.0,1.0,
503,20.0,decreament,0.6,100.0,standard,41.0,1.0,1.0,
504,20.0,decreament,0.6,100.0,standard,41.0,1.0,1.0,
505,20.0,decreament,0.6,100.0,standard,41.0,1.0,1.0,
506,20.0,decreament,0.6,100.0,standard,41.0,1.0,1.0,
507,20.0,decreament,0.6,100.0,standard,41.0,1.0,1.0,
508,20.0,decreament,0.6,100.0,standard,41.0,1.0,1.0,
509,20.0,decreament,0.6,100.0,standard,41.0,1.0,1.0,
510,20.0,increament,0.6,100.0,standard,45.0,1.0,1.0,
511,20.0,increament,0.6,100.0,standard,45.0,1.0,1.0,
512,20.0,increament,0.6,100.0,standard,45.0,1.0,1.0,
513,20.0,increament,0.6,100.0,standard,45.0,1.0,1.0,
514,20.0,increament,0.6,100.0,standard,45.0,1.0,1.0,
515,20.0,increament,0.6,100.0,standard,45.0,1.0,1.0,
516,20.0,increament,0.72,120.0,oddball,46.0,1.0,1.0,0.7296970998868346
517,20.0,increament,0.6,100.0,standard,45.0,1.0,1.0,
518,20.0,increament,0.6,100.0,standard,45.0,1.0,1.0,
519,20.0,increament,0.6,100.0,standard,45.0,1.0,1.0,
520,20.0,increament,0.6,100.0,standard,45.0,1.0,1.0,
521,20.0,increament,0.84,140.0,oddball,47.0,1.0,0.0,
522,20.0,increament,0.6,100.0,standard,45.0,1.0,1.0,
523,20.0,increament,0.6,100.0,standard,45.0,1.0,1.0,
524,20.0,increament,0.6,100.0,standard,45.0,1.0,1.0,
525,20.0,increament,0.6,100.0,standard,45.0,1.0,1.0,
526,20.0,increament,0.6,100.0,standard,45.0,1.0,1.0,
527,20.0,increament,0.6,100.0,standard,45.0,1.0,1.0,
528,20.0,increament,0.6,100.0,standard,45.0,1.0,1.0,
529,20.0,increament,0.6,100.0,standard,45.0,1.0,1.0,
530,20.0,increament,0.6,100.0,standard,45.0,1.0,1.0,
531,20.0,increament,0.6,100.0,standard,45.0,1.0,1.0,
532,20.0,increament,0.6,100.0,standard,45.0,1.0,1.0,
533,20.0,increament,0.6,100.0,standard,45.0,1.0,1.0,
534,20.0,increament,0.6,100.0,standard,45.0,1.0,1.0,
535,20.0,increament,0.6,100.0,standard,45.0,1.0,1.0,
536,20.0,increament,0.6,100.0,standard,45.0,1.0,1.0,
537,20.0,increament,0.96,160.0,oddball,48.0,1.0,1.0,0.217446300201118
538,20.0,increament,0.6,100.0,standard,45.0,1.0,1.0,
539,20.0,increament,0.6,100.0,standard,45.0,1.0,1.0,
540,20.0,decreament,0.6,100.0,standard,41.0,1.0,1.0,
541,20.0,decreament,0.6,100.0,standard,41.0,1.0,1.0,
542,20.0,decreament,0.6,100.0,standard,41.0,1.0,1.0,
543,20.0,decreament,0.6,100.0,standard,41.0,1.0,1.0,
544,20.0,decreament,0.6,100.0,standard,41.0,1.0,1.0,
545,20.0,decreament,0.6,100.0,standard,41.0,1.0,1.0,
546,20.0,decreament,0.6,100.0,standard,41.0,1.0,1.0,
547,20.0,decreament,0.6,100.0,standard,41.0,1.0,1.0,
548,20.0,decreament,0.6,100.0,standard,41.0,1.0,1.0,
549,20.0,decreament,0.6,100.0,standard,41.0,1.0,1.0,
550,20.0,decreament,0.6,100.0,standard,41.0,1.0,1.0,
551,20.0,decreament,0.6,100.0,standard,41.0,1.0,1.0,
552,20.0,decreament,0.6,100.0,standard,41.0,1.0,1.0,
553,20.0,decreament,0.6,100.0,standard,41.0,1.0,1.0,
554,20.0,decreament,0.48,80.0,oddball,44.0,1.0,0.0,
555,20.0,decreament,0.6,100.0,standard,41.0,1.0,1.0,
556,20.0,decreament,0.6,100.0,standard,41.0,1.0,0.0,0.7916206000372767
557,20.0,decreament,0.6,100.0,standard,41.0,1.0,1.0,
558,20.0,decreament,0.6,100.0,standard,41.0,1.0,1.0,
559,20.0,decreament,0.6,100.0,standard,41.0,1.0,1.0,
560,20.0,decreament,0.24,40.0,oddball,42.0,1.0,1.0,0.5231523001566529
561,20.0,decreament,0.6,100.0,standard,41.0,1.0,1.0,
562,20.0,decreament,0.6,100.0,standard,41.0,1.0,1.0,
563,20.0,decreament,0.6,100.0,standard,41.0,1.0,1.0,
564,20.0,decreament,0.6,100.0,standard,41.0,1.0,1.0,
565,20.0,decreament,0.6,100.0,standard,41.0,1.0,1.0,
566,20.0,decreament,0.36,60.0,oddball,43.0,1.0,0.0,
567,20.0,decreament,0.6,100.0,standard,41.0,1.0,1.0,
568,20.0,decreament,0.6,100.0,standard,41.0,1.0,1.0,
569,20.0,decreament,0.6,100.0,standard,41.0,1.0,1.0,
570,20.0,increament,0.6,100.0,standard,45.0,1.0,1.0,
571,20.0,increament,0.6,100.0,standard,45.0,1.0,1.0,
572,20.0,increament,0.6,100.0,standard,45.0,1.0,1.0,
573,20.0,increament,0.6,100.0,standard,45.0,1.0,1.0,
574,20.0,increament,0.6,100.0,standard,45.0,1.0,1.0,
575,20.0,increament,0.72,120.0,oddball,46.0,1.0,0.0,
576,20.0,increament,0.6,100.0,standard,45.0,1.0,1.0,
577,20.0,increament,0.6,100.0,standard,45.0,1.0,1.0,
578,20.0,increament,0.6,100.0,standard,45.0,1.0,1.0,
579,20.0,increament,0.6,100.0,standard,45.0,1.0,1.0,
580,20.0,increament,0.6,100.0,standard,45.0,1.0,1.0,
581,20.0,increament,0.84,140.0,oddball,47.0,1.0,1.0,0.8803857006132603
582,20.0,increament,0.6,100.0,standard,45.0,1.0,1.0,
583,20.0,increament,0.6,100.0,standard,45.0,1.0,1.0,
584,20.0,increament,0.6,100.0,standard,45.0,1.0,1.0,
585,20.0,increament,0.6,100.0,standard,45.0,1.0,1.0,
586,20.0,increament,0.6,100.0,standard,45.0,1.0,1.0,
587,20.0,increament,0.6,100.0,standard,45.0,1.0,1.0,
588,20.0,increament,0.6,100.0,standard,45.0,1.0,1.0,
589,20.0,increament,0.6,100.0,standard,45.0,1.0,1.0,
590,20.0,increament,0.96,160.0,oddball,48.0,1.0,1.0,0.878927499987185
591,20.0,increament,0.6,100.0,standard,45.0,1.0,1.0,
592,20.0,increament,0.6,100.0,standard,45.0,1.0,1.0,
593,20.0,increament,0.6,100.0,standard,45.0,1.0,1.0,
594,20.0,increament,0.6,100.0,standard,45.0,1.0,1.0,
595,20.0,increament,0.6,100.0,standard,45.0,1.0,1.0,
596,20.0,increament,0.6,100.0,standard,45.0,1.0,1.0,
597,20.0,increament,0.6,100.0,standard,45.0,1.0,1.0,
598,20.0,increament,0.6,100.0,standard,45.0,1.0,1.0,
599,20.0,increament,0.6,100.0,standard,45.0,1.0,1.0,
600,5.0,decreament,0.6,100.0,standard,11.0,2.0,1.0,
601,5.0,decreament,0.6,100.0,standard,11.0,2.0,1.0,
602,5.0,decreament,0.6,100.0,standard,11.0,2.0,1.0,
603,5.0,decreament,0.6,100.0,standard,11.0,2.0,1.0,
604,5.0,decreament,0.6,100.0,standard,11.0,2.0,1.0,
605,5.0,decreament,0.6,100.0,standard,11.0,2.0,1.0,
606,5.0,decreament,0.6,100.0,standard,11.0,2.0,1.0,
607,5.0,decreament,0.6,100.0,standard,11.0,2.0,1.0,
608,5.0,decreament,0.6,100.0,standard,11.0,2.0,1.0,
609,5.0,decreament,0.6,100.0,standard,11.0,2.0,1.0,
610,5.0,decreament,0.36,60.0,oddball,13.0,2.0,1.0,0.6129714008420706
611,5.0,decreament,0.6,100.0,standard,11.0,2.0,1.0,
612,5.0,decreament,0.6,100.0,standard,11.0,2.0,1.0,
613,5.0,decreament,0.6,100.0,standard,11.0,2.0,1.0,
614,5.0,decreament,0.6,100.0,standard,11.0,2.0,1.0,
615,5.0,decreament,0.6,100.0,standard,11.0,2.0,1.0,
616,5.0,decreament,0.24,40.0,oddball,12.0,2.0,1.0,0.5939870001748204
617,5.0,decreament,0.6,100.0,standard,11.0,2.0,1.0,
618,5.0,decreament,0.6,100.0,standard,11.0,2.0,1.0,
619,5.0,decreament,0.6,100.0,standard,11.0,2.0,1.0,
620,5.0,decreament,0.6,100.0,standard,11.0,2.0,1.0,
621,5.0,decreament,0.48,80.0,oddball,14.0,2.0,1.0,1.8323001004755497
622,5.0,decreament,0.6,100.0,standard,11.0,2.0,1.0,
623,5.0,decreament,0.6,100.0,standard,11.0,2.0,1.0,
624,5.0,decreament,0.6,100.0,standard,11.0,2.0,1.0,
625,5.0,decreament,0.6,100.0,standard,11.0,2.0,1.0,
626,5.0,decreament,0.6,100.0,standard,11.0,2.0,1.0,
627,5.0,decreament,0.6,100.0,standard,11.0,2.0,1.0,
628,5.0,decreament,0.6,100.0,standard,11.0,2.0,1.0,
629,5.0,decreament,0.6,100.0,standard,11.0,2.0,1.0,
630,5.0,increament,0.6,100.0,standard,15.0,2.0,1.0,
631,5.0,increament,0.6,100.0,standard,15.0,2.0,1.0,
632,5.0,increament,0.6,100.0,standard,15.0,2.0,1.0,
633,5.0,increament,0.6,100.0,standard,15.0,2.0,1.0,
634,5.0,increament,0.6,100.0,standard,15.0,2.0,1.0,
635,5.0,increament,0.6,100.0,standard,15.0,2.0,1.0,
636,5.0,increament,0.6,100.0,standard,15.0,2.0,1.0,
637,5.0,increament,0.6,100.0,standard,15.0,2.0,1.0,
638,5.0,increament,0.6,100.0,standard,15.0,2.0,1.0,
639,5.0,increament,0.6,100.0,standard,15.0,2.0,1.0,
640,5.0,increament,0.6,100.0,standard,15.0,2.0,1.0,
641,5.0,increament,0.6,100.0,standard,15.0,2.0,1.0,
642,5.0,increament,0.6,100.0,standard,15.0,2.0,1.0,
643,5.0,increament,0.96,160.0,oddball,18.0,2.0,1.0,0.1570619000121951
644,5.0,increament,0.6,100.0,standard,15.0,2.0,1.0,
645,5.0,increament,0.6,100.0,standard,15.0,2.0,1.0,
646,5.0,increament,0.6,100.0,standard,15.0,2.0,1.0,
647,5.0,increament,0.72,120.0,oddball,16.0,2.0,0.0,
648,5.0,increament,0.6,100.0,standard,15.0,2.0,1.0,
649,5.0,increament,0.6,100.0,standard,15.0,2.0,1.0,
650,5.0,increament,0.6,100.0,standard,15.0,2.0,1.0,
651,5.0,increament,0.6,100.0,standard,15.0,2.0,1.0,
652,5.0,increament,0.6,100.0,standard,15.0,2.0,1.0,
653,5.0,increament,0.6,100.0,standard,15.0,2.0,1.0,
654,5.0,increament,0.6,100.0,standard,15.0,2.0,1.0,
655,5.0,increament,0.84,140.0,oddball,17.0,2.0,1.0,0.6207418004050851
656,5.0,increament,0.6,100.0,standard,15.0,2.0,1.0,
657,5.0,increament,0.6,100.0,standard,15.0,2.0,1.0,
658,5.0,increament,0.6,100.0,standard,15.0,2.0,1.0,
659,5.0,increament,0.6,100.0,standard,15.0,2.0,1.0,
660,5.0,decreament,0.6,100.0,standard,11.0,2.0,1.0,
661,5.0,decreament,0.6,100.0,standard,11.0,2.0,1.0,
662,5.0,decreament,0.6,100.0,standard,11.0,2.0,1.0,
663,5.0,decreament,0.6,100.0,standard,11.0,2.0,1.0,
664,5.0,decreament,0.6,100.0,standard,11.0,2.0,1.0,
665,5.0,decreament,0.36,60.0,oddball,13.0,2.0,1.0,0.8008966008201241
666,5.0,decreament,0.6,100.0,standard,11.0,2.0,1.0,
667,5.0,decreament,0.6,100.0,standard,11.0,2.0,1.0,
668,5.0,decreament,0.6,100.0,standard,11.0,2.0,1.0,
669,5.0,decreament,0.6,100.0,standard,11.0,2.0,1.0,
670,5.0,decreament,0.6,100.0,standard,11.0,2.0,1.0,
671,5.0,decreament,0.6,100.0,standard,11.0,2.0,1.0,
672,5.0,decreament,0.6,100.0,standard,11.0,2.0,1.0,
673,5.0,decreament,0.6,100.0,standard,11.0,2.0,1.0,
674,5.0,decreament,0.24,40.0,oddball,12.0,2.0,1.0,0.5958413006737828
675,5.0,decreament,0.6,100.0,standard,11.0,2.0,1.0,
676,5.0,decreament,0.6,100.0,standard,11.0,2.0,1.0,
677,5.0,decreament,0.6,100.0,standard,11.0,2.0,1.0,
678,5.0,decreament,0.6,100.0,standard,11.0,2.0,1.0,
679,5.0,decreament,0.6,100.0,standard,11.0,2.0,1.0,
680,5.0,decreament,0.48,80.0,oddball,14.0,2.0,0.0,
681,5.0,decreament,0.6,100.0,standard,11.0,2.0,1.0,
682,5.0,decreament,0.6,100.0,standard,11.0,2.0,1.0,
683,5.0,decreament,0.6,100.0,standard,11.0,2.0,1.0,
684,5.0,decreament,0.6,100.0,standard,11.0,2.0,1.0,
685,5.0,decreament,0.6,100.0,standard,11.0,2.0,1.0,
686,5.0,decreament,0.6,100.0,standard,11.0,2.0,1.0,
687,5.0,decreament,0.6,100.0,standard,11.0,2.0,1.0,
688,5.0,decreament,0.6,100.0,standard,11.0,2.0,1.0,
689,5.0,decreament,0.6,100.0,standard,11.0,2.0,1.0,
690,5.0,increament,0.6,100.0,standard,15.0,2.0,1.0,
691,5.0,increament,0.6,100.0,standard,15.0,2.0,1.0,
692,5.0,increament,0.6,100.0,standard,15.0,2.0,1.0,
693,5.0,increament,0.6,100.0,standard,15.0,2.0,1.0,
694,5.0,increament,0.6,100.0,standard,15.0,2.0,1.0,
695,5.0,increament,0.6,100.0,standard,15.0,2.0,1.0,
696,5.0,increament,0.6,100.0,standard,15.0,2.0,1.0,
697,5.0,increament,0.6,100.0,standard,15.0,2.0,1.0,
698,5.0,increament,0.6,100.0,standard,15.0,2.0,1.0,
699,5.0,increament,0.6,100.0,standard,15.0,2.0,1.0,
700,5.0,increament,0.6,100.0,standard,15.0,2.0,1.0,
701,5.0,increament,0.6,100.0,standard,15.0,2.0,1.0,
702,5.0,increament,0.6,100.0,standard,15.0,2.0,1.0,
703,5.0,increament,0.96,160.0,oddball,18.0,2.0,1.0,0.217009300366044
704,5.0,increament,0.6,100.0,standard,15.0,2.0,1.0,
705,5.0,increament,0.6,100.0,standard,15.0,2.0,1.0,
706,5.0,increament,0.6,100.0,standard,15.0,2.0,1.0,
707,5.0,increament,0.6,100.0,standard,15.0,2.0,1.0,
708,5.0,increament,0.6,100.0,standard,15.0,2.0,1.0,
709,5.0,increament,0.6,100.0,standard,15.0,2.0,1.0,
710,5.0,increament,0.6,100.0,standard,15.0,2.0,1.0,
711,5.0,increament,0.84,140.0,oddball,17.0,2.0,0.0,
712,5.0,increament,0.6,100.0,standard,15.0,2.0,1.0,
713,5.0,increament,0.6,100.0,standard,15.0,2.0,1.0,
714,5.0,increament,0.6,100.0,standard,15.0,2.0,1.0,
715,5.0,increament,0.6,100.0,standard,15.0,2.0,1.0,
716,5.0,increament,0.6,100.0,standard,15.0,2.0,1.0,
717,5.0,increament,0.6,100.0,standard,15.0,2.0,1.0,
718,5.0,increament,0.72,120.0,oddball,16.0,2.0,0.0,
719,5.0,increament,0.6,100.0,standard,15.0,2.0,1.0,
720,5.0,decreament,0.6,100.0,standard,11.0,2.0,1.0,
721,5.0,decreament,0.6,100.0,standard,11.0,2.0,1.0,
722,5.0,decreament,0.6,100.0,standard,11.0,2.0,1.0,
723,5.0,decreament,0.6,100.0,standard,11.0,2.0,1.0,
724,5.0,decreament,0.6,100.0,standard,11.0,2.0,1.0,
725,5.0,decreament,0.6,100.0,standard,11.0,2.0,1.0,
726,5.0,decreament,0.6,100.0,standard,11.0,2.0,1.0,
727,5.0,decreament,0.6,100.0,standard,11.0,2.0,1.0,
728,5.0,decreament,0.48,80.0,oddball,14.0,2.0,0.0,
729,5.0,decreament,0.6,100.0,standard,11.0,2.0,1.0,
730,5.0,decreament,0.6,100.0,standard,11.0,2.0,1.0,
731,5.0,decreament,0.6,100.0,standard,11.0,2.0,1.0,
732,5.0,decreament,0.6,100.0,standard,11.0,2.0,1.0,
733,5.0,decreament,0.6,100.0,standard,11.0,2.0,1.0,
734,5.0,decreament,0.6,100.0,standard,11.0,2.0,1.0,
735,5.0,decreament,0.6,100.0,standard,11.0,2.0,1.0,
736,5.0,decreament,0.6,100.0,standard,11.0,2.0,1.0,
737,5.0,decreament,0.6,100.0,standard,11.0,2.0,1.0,
738,5.0,decreament,0.6,100.0,standard,11.0,2.0,1.0,
739,5.0,decreament,0.6,100.0,standard,11.0,2.0,1.0,
740,5.0,decreament,0.6,100.0,standard,11.0,2.0,1.0,
741,5.0,decreament,0.24,40.0,oddball,12.0,2.0,1.0,0.540675500407815
742,5.0,decreament,0.6,100.0,standard,11.0,2.0,1.0,
743,5.0,decreament,0.6,100.0,standard,11.0,2.0,1.0,
744,5.0,decreament,0.6,100.0,standard,11.0,2.0,1.0,
745,5.0,decreament,0.6,100.0,standard,11.0,2.0,1.0,
746,5.0,decreament,0.6,100.0,standard,11.0,2.0,1.0,
747,5.0,decreament,0.6,100.0,standard,11.0,2.0,1.0,
748,5.0,decreament,0.36,60.0,oddball,13.0,2.0,0.0,
749,5.0,decreament,0.6,100.0,standard,11.0,2.0,1.0,
750,5.0,increament,0.6,100.0,standard,15.0,2.0,1.0,
751,5.0,increament,0.6,100.0,standard,15.0,2.0,1.0,
752,5.0,increament,0.6,100.0,standard,15.0,2.0,1.0,
753,5.0,increament,0.6,100.0,standard,15.0,2.0,1.0,
754,5.0,increament,0.6,100.0,standard,15.0,2.0,1.0,
755,5.0,increament,0.6,100.0,standard,15.0,2.0,1.0,
756,5.0,increament,0.6,100.0,standard,15.0,2.0,1.0,
757,5.0,increament,0.6,100.0,standard,15.0,2.0,1.0,
758,5.0,increament,0.6,100.0,standard,15.0,2.0,1.0,
759,5.0,increament,0.6,100.0,standard,15.0,2.0,1.0,
760,5.0,increament,0.6,100.0,standard,15.0,2.0,1.0,
761,5.0,increament,0.6,100.0,standard,15.0,2.0,1.0,
762,5.0,increament,0.6,100.0,standard,15.0,2.0,1.0,
763,5.0,increament,0.6,100.0,standard,15.0,2.0,0.0,0.3354367008432746
764,5.0,increament,0.6,100.0,standard,15.0,2.0,1.0,
765,5.0,increament,0.84,140.0,oddball,17.0,2.0,1.0,0.4229906005784869
766,5.0,increament,0.6,100.0,standard,15.0,2.0,1.0,
767,5.0,increament,0.6,100.0,standard,15.0,2.0,1.0,
768,5.0,increament,0.6,100.0,standard,15.0,2.0,1.0,
769,5.0,increament,0.6,100.0,standard,15.0,2.0,1.0,
770,5.0,increament,0.6,100.0,standard,15.0,2.0,1.0,
771,5.0,increament,0.6,100.0,standard,15.0,2.0,1.0,
772,5.0,increament,0.6,100.0,standard,15.0,2.0,1.0,
773,5.0,increament,0.72,120.0,oddball,16.0,2.0,1.0,0.5367363998666406
774,5.0,increament,0.6,100.0,standard,15.0,2.0,1.0,
775,5.0,increament,0.6,100.0,standard,15.0,2.0,1.0,
776,5.0,increament,0.6,100.0,standard,15.0,2.0,1.0,
777,5.0,increament,0.6,100.0,standard,15.0,2.0,1.0,
778,5.0,increament,0.6,100.0,standard,15.0,2.0,1.0,
779,5.0,increament,0.96,160.0,oddball,18.0,2.0,1.0,0.3858007006347179
780,5.0,decreament,0.6,100.0,standard,11.0,2.0,1.0,
781,5.0,decreament,0.6,100.0,standard,11.0,2.0,1.0,
782,5.0,decreament,0.6,100.0,standard,11.0,2.0,1.0,
783,5.0,decreament,0.6,100.0,standard,11.0,2.0,1.0,
784,5.0,decreament,0.6,100.0,standard,11.0,2.0,1.0,
785,5.0,decreament,0.6,100.0,standard,11.0,2.0,1.0,
786,5.0,decreament,0.6,100.0,standard,11.0,2.0,1.0,
787,5.0,decreament,0.6,100.0,standard,11.0,2.0,1.0,
788,5.0,decreament,0.6,100.0,standard,11.0,2.0,1.0,
789,5.0,decreament,0.6,100.0,standard,11.0,2.0,1.0,
790,5.0,decreament,0.6,100.0,standard,11.0,2.0,1.0,
791,5.0,decreament,0.6,100.0,standard,11.0,2.0,1.0,
792,5.0,decreament,0.6,100.0,standard,11.0,2.0,1.0,
793,5.0,decreament,0.6,100.0,standard,11.0,2.0,1.0,
794,5.0,decreament,0.6,100.0,standard,11.0,2.0,1.0,
795,5.0,decreament,0.24,40.0,oddball,12.0,2.0,1.0,0.5443585999310017
796,5.0,decreament,0.6,100.0,standard,11.0,2.0,1.0,
797,5.0,decreament,0.6,100.0,standard,11.0,2.0,1.0,
798,5.0,decreament,0.6,100.0,standard,11.0,2.0,1.0,
799,5.0,decreament,0.48,80.0,oddball,14.0,2.0,0.0,
800,5.0,decreament,0.6,100.0,standard,11.0,2.0,1.0,
801,5.0,decreament,0.6,100.0,standard,11.0,2.0,1.0,
802,5.0,decreament,0.6,100.0,standard,11.0,2.0,1.0,
803,5.0,decreament,0.6,100.0,standard,11.0,2.0,1.0,
804,5.0,decreament,0.6,100.0,standard,11.0,2.0,1.0,
805,5.0,decreament,0.6,100.0,standard,11.0,2.0,1.0,
806,5.0,decreament,0.6,100.0,standard,11.0,2.0,1.0,
807,5.0,decreament,0.6,100.0,standard,11.0,2.0,1.0,
808,5.0,decreament,0.6,100.0,standard,11.0,2.0,1.0,
809,5.0,decreament,0.36,60.0,oddball,13.0,2.0,1.0,0.614771599881351
810,5.0,increament,0.6,100.0,standard,15.0,2.0,1.0,
811,5.0,increament,0.6,100.0,standard,15.0,2.0,1.0,
812,5.0,increament,0.6,100.0,standard,15.0,2.0,1.0,
813,5.0,increament,0.6,100.0,standard,15.0,2.0,1.0,
814,5.0,increament,0.6,100.0,standard,15.0,2.0,1.0,
815,5.0,increament,0.6,100.0,standard,15.0,2.0,1.0,
816,5.0,increament,0.6,100.0,standard,15.0,2.0,1.0,
817,5.0,increament,0.96,160.0,oddball,18.0,2.0,1.0,0.3606646005064249
818,5.0,increament,0.6,100.0,standard,15.0,2.0,1.0,
819,5.0,increament,0.6,100.0,standard,15.0,2.0,1.0,
820,5.0,increament,0.6,100.0,standard,15.0,2.0,1.0,
821,5.0,increament,0.6,100.0,standard,15.0,2.0,1.0,
822,5.0,increament,0.6,100.0,standard,15.0,2.0,1.0,
823,5.0,increament,0.6,100.0,standard,15.0,2.0,1.0,
824,5.0,increament,0.6,100.0,standard,15.0,2.0,1.0,
825,5.0,increament,0.84,140.0,oddball,17.0,2.0,0.0,
826,5.0,increament,0.6,100.0,standard,15.0,2.0,1.0,
827,5.0,increament,0.6,100.0,standard,15.0,2.0,1.0,
828,5.0,increament,0.6,100.0,standard,15.0,2.0,1.0,
829,5.0,increament,0.6,100.0,standard,15.0,2.0,1.0,
830,5.0,increament,0.6,100.0,standard,15.0,2.0,1.0,
831,5.0,increament,0.6,100.0,standard,15.0,2.0,1.0,
832,5.0,increament,0.6,100.0,standard,15.0,2.0,1.0,
833,5.0,increament,0.6,100.0,standard,15.0,2.0,1.0,
834,5.0,increament,0.6,100.0,standard,15.0,2.0,1.0,
835,5.0,increament,0.6,100.0,standard,15.0,2.0,1.0,
836,5.0,increament,0.6,100.0,standard,15.0,2.0,1.0,
837,5.0,increament,0.72,120.0,oddball,16.0,2.0,0.0,
838,5.0,increament,0.6,100.0,standard,15.0,2.0,1.0,
839,5.0,increament,0.6,100.0,standard,15.0,2.0,1.0,
840,5.0,decreament,0.6,100.0,standard,11.0,2.0,1.0,
841,5.0,decreament,0.6,100.0,standard,11.0,2.0,1.0,
842,5.0,decreament,0.6,100.0,standard,11.0,2.0,1.0,
843,5.0,decreament,0.6,100.0,standard,11.0,2.0,0.0,0.6718167001381516
844,5.0,decreament,0.6,100.0,standard,11.0,2.0,1.0,
845,5.0,decreament,0.6,100.0,standard,11.0,2.0,1.0,
846,5.0,decreament,0.6,100.0,standard,11.0,2.0,1.0,
847,5.0,decreament,0.36,60.0,oddball,13.0,2.0,0.0,
848,5.0,decreament,0.6,100.0,standard,11.0,2.0,1.0,
849,5.0,decreament,0.6,100.0,standard,11.0,2.0,1.0,
850,5.0,decreament,0.6,100.0,standard,11.0,2.0,1.0,
851,5.0,decreament,0.6,100.0,standard,11.0,2.0,1.0,
852,5.0,decreament,0.6,100.0,standard,11.0,2.0,1.0,
853,5.0,decreament,0.6,100.0,standard,11.0,2.0,1.0,
854,5.0,decreament,0.6,100.0,standard,11.0,2.0,1.0,
855,5.0,decreament,0.24,40.0,oddball,12.0,2.0,1.0,0.5096847992390394
856,5.0,decreament,0.6,100.0,standard,11.0,2.0,1.0,
857,5.0,decreament,0.6,100.0,standard,11.0,2.0,1.0,
858,5.0,decreament,0.6,100.0,standard,11.0,2.0,1.0,
859,5.0,decreament,0.6,100.0,standard,11.0,2.0,1.0,
860,5.0,decreament,0.48,80.0,oddball,14.0,2.0,0.0,
861,5.0,decreament,0.6,100.0,standard,11.0,2.0,1.0,
862,5.0,decreament,0.6,100.0,standard,11.0,2.0,1.0,
863,5.0,decreament,0.6,100.0,standard,11.0,2.0,1.0,
864,5.0,decreament,0.6,100.0,standard,11.0,2.0,1.0,
865,5.0,decreament,0.6,100.0,standard,11.0,2.0,1.0,
866,5.0,decreament,0.6,100.0,standard,11.0,2.0,1.0,
867,5.0,decreament,0.6,100.0,standard,11.0,2.0,1.0,
868,5.0,decreament,0.6,100.0,standard,11.0,2.0,1.0,
869,5.0,decreament,0.6,100.0,standard,11.0,2.0,1.0,
870,5.0,increament,0.6,100.0,standard,15.0,2.0,1.0,
871,5.0,increament,0.6,100.0,standard,15.0,2.0,1.0,
872,5.0,increament,0.6,100.0,standard,15.0,2.0,1.0,
873,5.0,increament,0.6,100.0,standard,15.0,2.0,1.0,
874,5.0,increament,0.6,100.0,standard,15.0,2.0,1.0,
875,5.0,increament,0.72,120.0,oddball,16.0,2.0,0.0,
876,5.0,increament,0.6,100.0,standard,15.0,2.0,1.0,
877,5.0,increament,0.6,100.0,standard,15.0,2.0,1.0,
878,5.0,increament,0.6,100.0,standard,15.0,2.0,1.0,
879,5.0,increament,0.6,100.0,standard,15.0,2.0,1.0,
880,5.0,increament,0.6,100.0,standard,15.0,2.0,1.0,
881,5.0,increament,0.96,160.0,oddball,18.0,2.0,1.0,0.2600554004311561
882,5.0,increament,0.6,100.0,standard,15.0,2.0,1.0,
883,5.0,increament,0.6,100.0,standard,15.0,2.0,1.0,
884,5.0,increament,0.6,100.0,standard,15.0,2.0,1.0,
885,5.0,increament,0.6,100.0,standard,15.0,2.0,1.0,
886,5.0,increament,0.6,100.0,standard,15.0,2.0,1.0,
887,5.0,increament,0.6,100.0,standard,15.0,2.0,1.0,
888,5.0,increament,0.6,100.0,standard,15.0,2.0,1.0,
889,5.0,increament,0.6,100.0,standard,15.0,2.0,1.0,
890,5.0,increament,0.6,100.0,standard,15.0,2.0,1.0,
891,5.0,increament,0.6,100.0,standard,15.0,2.0,1.0,
892,5.0,increament,0.6,100.0,standard,15.0,2.0,1.0,
893,5.0,increament,0.6,100.0,standard,15.0,2.0,1.0,
894,5.0,increament,0.6,100.0,standard,15.0,2.0,1.0,
895,5.0,increament,0.6,100.0,standard,15.0,2.0,1.0,
896,5.0,increament,0.6,100.0,standard,15.0,2.0,1.0,
897,5.0,increament,0.6,100.0,standard,15.0,2.0,1.0,
898,5.0,increament,0.6,100.0,standard,15.0,2.0,1.0,
899,5.0,increament,0.84,140.0,oddball,17.0,2.0,1.0,0.3619365002959966
900,0.0,decreament,0.6,100.0,standard,1.0,3.0,1.0,
901,0.0,decreament,0.6,100.0,standard,1.0,3.0,1.0,
902,0.0,decreament,0.6,100.0,standard,1.0,3.0,1.0,
903,0.0,decreament,0.6,100.0,standard,1.0,3.0,1.0,
904,0.0,decreament,0.6,100.0,standard,1.0,3.0,1.0,
905,0.0,decreament,0.6,100.0,standard,1.0,3.0,1.0,
906,0.0,decreament,0.6,100.0,standard,1.0,3.0,1.0,
907,0.0,decreament,0.6,100.0,standard,1.0,3.0,1.0,
908,0.0,decreament,0.6,100.0,standard,1.0,3.0,1.0,
909,0.0,decreament,0.6,100.0,standard,1.0,3.0,1.0,
910,0.0,decreament,0.6,100.0,standard,1.0,3.0,1.0,
911,0.0,decreament,0.36,60.0,oddball,3.0,3.0,1.0,0.552025300450623
912,0.0,decreament,0.6,100.0,standard,1.0,3.0,1.0,
913,0.0,decreament,0.6,100.0,standard,1.0,3.0,1.0,
914,0.0,decreament,0.6,100.0,standard,1.0,3.0,1.0,
915,0.0,decreament,0.6,100.0,standard,1.0,3.0,1.0,
916,0.0,decreament,0.6,100.0,standard,1.0,3.0,1.0,
917,0.0,decreament,0.6,100.0,standard,1.0,3.0,1.0,
918,0.0,decreament,0.6,100.0,standard,1.0,3.0,1.0,
919,0.0,decreament,0.24,40.0,oddball,2.0,3.0,1.0,0.5300855999812484
920,0.0,decreament,0.6,100.0,standard,1.0,3.0,1.0,
921,0.0,decreament,0.6,100.0,standard,1.0,3.0,1.0,
922,0.0,decreament,0.6,100.0,standard,1.0,3.0,1.0,
923,0.0,decreament,0.6,100.0,standard,1.0,3.0,1.0,
924,0.0,decreament,0.48,80.0,oddball,4.0,3.0,0.0,
925,0.0,decreament,0.6,100.0,standard,1.0,3.0,1.0,
926,0.0,decreament,0.6,100.0,standard,1.0,3.0,1.0,
927,0.0,decreament,0.6,100.0,standard,1.0,3.0,1.0,
928,0.0,decreament,0.6,100.0,standard,1.0,3.0,1.0,
929,0.0,decreament,0.6,100.0,standard,1.0,3.0,1.0,
930,0.0,increament,0.6,100.0,standard,5.0,3.0,1.0,
931,0.0,increament,0.6,100.0,standard,5.0,3.0,1.0,
932,0.0,increament,0.6,100.0,standard,5.0,3.0,1.0,
933,0.0,increament,0.6,100.0,standard,5.0,3.0,1.0,
934,0.0,increament,0.6,100.0,standard,5.0,3.0,1.0,
935,0.0,increament,0.6,100.0,standard,5.0,3.0,1.0,
936,0.0,increament,0.84,140.0,oddball,7.0,3.0,1.0,0.6175544001162052
937,0.0,increament,0.6,100.0,standard,5.0,3.0,1.0,
938,0.0,increament,0.6,100.0,standard,5.0,3.0,1.0,
939,0.0,increament,0.6,100.0,standard,5.0,3.0,1.0,
940,0.0,increament,0.6,100.0,standard,5.0,3.0,1.0,
941,0.0,increament,0.6,100.0,standard,5.0,3.0,1.0,
942,0.0,increament,0.6,100.0,standard,5.0,3.0,1.0,
943,0.0,increament,0.6,100.0,standard,5.0,3.0,1.0,
944,0.0,increament,0.6,100.0,standard,5.0,3.0,1.0,
945,0.0,increament,0.72,120.0,oddball,6.0,3.0,0.0,
946,0.0,increament,0.6,100.0,standard,5.0,3.0,1.0,
947,0.0,increament,0.6,100.0,standard,5.0,3.0,1.0,
948,0.0,increament,0.6,100.0,standard,5.0,3.0,1.0,
949,0.0,increament,0.6,100.0,standard,5.0,3.0,1.0,
950,0.0,increament,0.6,100.0,standard,5.0,3.0,1.0,
951,0.0,increament,0.6,100.0,standard,5.0,3.0,1.0,
952,0.0,increament,0.6,100.0,standard,5.0,3.0,1.0,
953,0.0,increament,0.6,100.0,standard,5.0,3.0,1.0,
954,0.0,increament,0.6,100.0,standard,5.0,3.0,1.0,
955,0.0,increament,0.6,100.0,standard,5.0,3.0,1.0,
956,0.0,increament,0.6,100.0,standard,5.0,3.0,1.0,
957,0.0,increament,0.6,100.0,standard,5.0,3.0,1.0,
958,0.0,increament,0.6,100.0,standard,5.0,3.0,1.0,
959,0.0,increament,0.96,160.0,oddball,8.0,3.0,1.0,0.3224593009799719
960,0.0,decreament,0.6,100.0,standard,1.0,3.0,1.0,
961,0.0,decreament,0.6,100.0,standard,1.0,3.0,1.0,
962,0.0,decreament,0.6,100.0,standard,1.0,3.0,1.0,
963,0.0,decreament,0.6,100.0,standard,1.0,3.0,1.0,
964,0.0,decreament,0.6,100.0,standard,1.0,3.0,1.0,
965,0.0,decreament,0.6,100.0,standard,1.0,3.0,1.0,
966,0.0,decreament,0.24,40.0,oddball,2.0,3.0,1.0,0.6429090006276965
967,0.0,decreament,0.6,100.0,standard,1.0,3.0,1.0,
968,0.0,decreament,0.6,100.0,standard,1.0,3.0,1.0,
969,0.0,decreament,0.6,100.0,standard,1.0,3.0,1.0,
970,0.0,decreament,0.6,100.0,standard,1.0,3.0,1.0,
971,0.0,decreament,0.6,100.0,standard,1.0,3.0,1.0,
972,0.0,decreament,0.6,100.0,standard,1.0,3.0,1.0,
973,0.0,decreament,0.6,100.0,standard,1.0,3.0,1.0,
974,0.0,decreament,0.6,100.0,standard,1.0,3.0,1.0,
975,0.0,decreament,0.6,100.0,standard,1.0,3.0,1.0,
976,0.0,decreament,0.6,100.0,standard,1.0,3.0,1.0,
977,0.0,decreament,0.6,100.0,standard,1.0,3.0,1.0,
978,0.0,decreament,0.48,80.0,oddball,4.0,3.0,0.0,
979,0.0,decreament,0.6,100.0,standard,1.0,3.0,1.0,
980,0.0,decreament,0.6,100.0,standard,1.0,3.0,1.0,
981,0.0,decreament,0.6,100.0,standard,1.0,3.0,1.0,
982,0.0,decreament,0.36,60.0,oddball,3.0,3.0,1.0,0.5789753999561071
983,0.0,decreament,0.6,100.0,standard,1.0,3.0,1.0,
984,0.0,decreament,0.6,100.0,standard,1.0,3.0,1.0,
985,0.0,decreament,0.6,100.0,standard,1.0,3.0,1.0,
986,0.0,decreament,0.6,100.0,standard,1.0,3.0,1.0,
987,0.0,decreament,0.6,100.0,standard,1.0,3.0,1.0,
988,0.0,decreament,0.6,100.0,standard,1.0,3.0,1.0,
989,0.0,decreament,0.6,100.0,standard,1.0,3.0,1.0,
990,0.0,increament,0.6,100.0,standard,5.0,3.0,1.0,
991,0.0,increament,0.6,100.0,standard,5.0,3.0,1.0,
992,0.0,increament,0.6,100.0,standard,5.0,3.0,1.0,
993,0.0,increament,0.6,100.0,standard,5.0,3.0,1.0,
994,0.0,increament,0.6,100.0,standard,5.0,3.0,1.0,
995,0.0,increament,0.6,100.0,standard,5.0,3.0,1.0,
996,0.0,increament,0.6,100.0,standard,5.0,3.0,1.0,
997,0.0,increament,0.6,100.0,standard,5.0,3.0,1.0,
998,0.0,increament,0.96,160.0,oddball,8.0,3.0,1.0,0.3561490997672081
999,0.0,increament,0.6,100.0,standard,5.0,3.0,1.0,
1000,0.0,increament,0.6,100.0,standard,5.0,3.0,1.0,
1001,0.0,increament,0.6,100.0,standard,5.0,3.0,1.0,
1002,0.0,increament,0.6,100.0,standard,5.0,3.0,1.0,
1003,0.0,increament,0.6,100.0,standard,5.0,3.0,1.0,
1004,0.0,increament,0.6,100.0,standard,5.0,3.0,1.0,
1005,0.0,increament,0.6,100.0,standard,5.0,3.0,1.0,
1006,0.0,increament,0.72,120.0,oddball,6.0,3.0,0.0,
1007,0.0,increament,0.6,100.0,standard,5.0,3.0,1.0,
1008,0.0,increament,0.6,100.0,standard,5.0,3.0,1.0,
1009,0.0,increament,0.6,100.0,standard,5.0,3.0,1.0,
1010,0.0,increament,0.6,100.0,standard,5.0,3.0,1.0,
1011,0.0,increament,0.6,100.0,standard,5.0,3.0,1.0,
1012,0.0,increament,0.6,100.0,standard,5.0,3.0,1.0,
1013,0.0,increament,0.6,100.0,standard,5.0,3.0,1.0,
1014,0.0,increament,0.6,100.0,standard,5.0,3.0,1.0,
1015,0.0,increament,0.6,100.0,standard,5.0,3.0,1.0,
1016,0.0,increament,0.6,100.0,standard,5.0,3.0,1.0,
1017,0.0,increament,0.6,100.0,standard,5.0,3.0,1.0,
1018,0.0,increament,0.6,100.0,standard,5.0,3.0,1.0,
1019,0.0,increament,0.84,140.0,oddball,7.0,3.0,1.0,0.4360130000859499
1020,0.0,decreament,0.6,100.0,standard,1.0,3.0,1.0,
1021,0.0,decreament,0.6,100.0,standard,1.0,3.0,1.0,
1022,0.0,decreament,0.6,100.0,standard,1.0,3.0,1.0,
1023,0.0,decreament,0.6,100.0,standard,1.0,3.0,1.0,
1024,0.0,decreament,0.6,100.0,standard,1.0,3.0,1.0,
1025,0.0,decreament,0.6,100.0,standard,1.0,3.0,1.0,
1026,0.0,decreament,0.6,100.0,standard,1.0,3.0,1.0,
1027,0.0,decreament,0.6,100.0,standard,1.0,3.0,1.0,
1028,0.0,decreament,0.6,100.0,standard,1.0,3.0,1.0,
1029,0.0,decreament,0.6,100.0,standard,1.0,3.0,1.0,
1030,0.0,decreament,0.6,100.0,standard,1.0,3.0,1.0,
1031,0.0,decreament,0.6,100.0,standard,1.0,3.0,1.0,
1032,0.0,decreament,0.6,100.0,standard,1.0,3.0,1.0,
1033,0.0,decreament,0.6,100.0,standard,1.0,3.0,1.0,
1034,0.0,decreament,0.24,40.0,oddball,2.0,3.0,1.0,0.6198093006387353
1035,0.0,decreament,0.6,100.0,standard,1.0,3.0,1.0,
1036,0.0,decreament,0.6,100.0,standard,1.0,3.0,1.0,
1037,0.0,decreament,0.6,100.0,standard,1.0,3.0,1.0,
1038,0.0,decreament,0.6,100.0,standard,1.0,3.0,1.0,
1039,0.0,decreament,0.6,100.0,standard,1.0,3.0,1.0,
1040,0.0,decreament,0.6,100.0,standard,1.0,3.0,1.0,
1041,0.0,decreament,0.6,100.0,standard,1.0,3.0,1.0,
1042,0.0,decreament,0.6,100.0,standard,1.0,3.0,1.0,
1043,0.0,decreament,0.48,80.0,oddball,4.0,3.0,0.0,
1044,0.0,decreament,0.6,100.0,standard,1.0,3.0,1.0,
1045,0.0,decreament,0.6,100.0,standard,1.0,3.0,1.0,
1046,0.0,decreament,0.6,100.0,standard,1.0,3.0,1.0,
1047,0.0,decreament,0.36,60.0,oddball,3.0,3.0,1.0,0.6772410003468394
1048,0.0,decreament,0.6,100.0,standard,1.0,3.0,1.0,
1049,0.0,decreament,0.6,100.0,standard,1.0,3.0,1.0,
1050,0.0,increament,0.6,100.0,standard,5.0,3.0,1.0,
1051,0.0,increament,0.6,100.0,standard,5.0,3.0,1.0,
1052,0.0,increament,0.6,100.0,standard,5.0,3.0,1.0,
1053,0.0,increament,0.6,100.0,standard,5.0,3.0,1.0,
1054,0.0,increament,0.6,100.0,standard,5.0,3.0,1.0,
1055,0.0,increament,0.6,100.0,standard,5.0,3.0,1.0,
1056,0.0,increament,0.84,140.0,oddball,7.0,3.0,1.0,0.778205200098455
1057,0.0,increament,0.6,100.0,standard,5.0,3.0,1.0,
1058,0.0,increament,0.6,100.0,standard,5.0,3.0,1.0,
1059,0.0,increament,0.6,100.0,standard,5.0,3.0,1.0,
1060,0.0,increament,0.6,100.0,standard,5.0,3.0,1.0,
1061,0.0,increament,0.6,100.0,standard,5.0,3.0,1.0,
1062,0.0,increament,0.6,100.0,standard,5.0,3.0,1.0,
1063,0.0,increament,0.72,120.0,oddball,6.0,3.0,0.0,
1064,0.0,increament,0.6,100.0,standard,5.0,3.0,1.0,
1065,0.0,increament,0.6,100.0,standard,5.0,3.0,1.0,
1066,0.0,increament,0.6,100.0,standard,5.0,3.0,1.0,
1067,0.0,increament,0.6,100.0,standard,5.0,3.0,1.0,
1068,0.0,increament,0.6,100.0,standard,5.0,3.0,1.0,
1069,0.0,increament,0.6,100.0,standard,5.0,3.0,1.0,
1070,0.0,increament,0.6,100.0,standard,5.0,3.0,1.0,
1071,0.0,increament,0.6,100.0,standard,5.0,3.0,1.0,
1072,0.0,increament,0.96,160.0,oddball,8.0,3.0,1.0,0.3667346993461251
1073,0.0,increament,0.6,100.0,standard,5.0,3.0,1.0,
1074,0.0,increament,0.6,100.0,standard,5.0,3.0,1.0,
1075,0.0,increament,0.6,100.0,standard,5.0,3.0,1.0,
1076,0.0,increament,0.6,100.0,standard,5.0,3.0,1.0,
1077,0.0,increament,0.6,100.0,standard,5.0,3.0,1.0,
1078,0.0,increament,0.6,100.0,standard,5.0,3.0,1.0,
1079,0.0,increament,0.6,100.0,standard,5.0,3.0,1.0,
1080,0.0,decreament,0.6,100.0,standard,1.0,3.0,1.0,
1081,0.0,decreament,0.6,100.0,standard,1.0,3.0,1.0,
1082,0.0,decreament,0.6,100.0,standard,1.0,3.0,1.0,
1083,0.0,decreament,0.6,100.0,standard,1.0,3.0,1.0,
1084,0.0,decreament,0.6,100.0,standard,1.0,3.0,1.0,
1085,0.0,decreament,0.6,100.0,standard,1.0,3.0,1.0,
1086,0.0,decreament,0.6,100.0,standard,1.0,3.0,1.0,
1087,0.0,decreament,0.6,100.0,standard,1.0,3.0,1.0,
1088,0.0,decreament,0.6,100.0,standard,1.0,3.0,1.0,
1089,0.0,decreament,0.24,40.0,oddball,2.0,3.0,1.0,0.9159768000245094
1090,0.0,decreament,0.6,100.0,standard,1.0,3.0,1.0,
1091,0.0,decreament,0.6,100.0,standard,1.0,3.0,1.0,
1092,0.0,decreament,0.6,100.0,standard,1.0,3.0,1.0,
1093,0.0,decreament,0.6,100.0,standard,1.0,3.0,1.0,
1094,0.0,decreament,0.6,100.0,standard,1.0,3.0,1.0,
1095,0.0,decreament,0.6,100.0,standard,1.0,3.0,1.0,
1096,0.0,decreament,0.48,80.0,oddball,4.0,3.0,0.0,
1097,0.0,decreament,0.6,100.0,standard,1.0,3.0,1.0,
1098,0.0,decreament,0.6,100.0,standard,1.0,3.0,1.0,
1099,0.0,decreament,0.6,100.0,standard,1.0,3.0,1.0,
1100,0.0,decreament,0.6,100.0,standard,1.0,3.0,1.0,
1101,0.0,decreament,0.6,100.0,standard,1.0,3.0,1.0,
1102,0.0,decreament,0.6,100.0,standard,1.0,3.0,1.0,
1103,0.0,decreament,0.36,60.0,oddball,3.0,3.0,1.0,0.8198306998237967
1104,0.0,decreament,0.6,100.0,standard,1.0,3.0,1.0,
1105,0.0,decreament,0.6,100.0,standard,1.0,3.0,1.0,
1106,0.0,decreament,0.6,100.0,standard,1.0,3.0,1.0,
1107,0.0,decreament,0.6,100.0,standard,1.0,3.0,1.0,
1108,0.0,decreament,0.6,100.0,standard,1.0,3.0,1.0,
1109,0.0,decreament,0.6,100.0,standard,1.0,3.0,1.0,
1110,0.0,increament,0.6,100.0,standard,5.0,3.0,1.0,
1111,0.0,increament,0.6,100.0,standard,5.0,3.0,1.0,
1112,0.0,increament,0.6,100.0,standard,5.0,3.0,1.0,
1113,0.0,increament,0.6,100.0,standard,5.0,3.0,1.0,
1114,0.0,increament,0.6,100.0,standard,5.0,3.0,1.0,
1115,0.0,increament,0.6,100.0,standard,5.0,3.0,0.0,0.5860967002809048
1116,0.0,increament,0.6,100.0,standard,5.0,3.0,1.0,
1117,0.0,increament,0.6,100.0,standard,5.0,3.0,1.0,
1118,0.0,increament,0.6,100.0,standard,5.0,3.0,1.0,
1119,0.0,increament,0.6,100.0,standard,5.0,3.0,1.0,
1120,0.0,increament,0.6,100.0,standard,5.0,3.0,1.0,
1121,0.0,increament,0.6,100.0,standard,5.0,3.0,1.0,
1122,0.0,increament,0.6,100.0,standard,5.0,3.0,1.0,
1123,0.0,increament,0.96,160.0,oddball,8.0,3.0,1.0,0.3809666000306606
1124,0.0,increament,0.6,100.0,standard,5.0,3.0,1.0,
1125,0.0,increament,0.6,100.0,standard,5.0,3.0,1.0,
1126,0.0,increament,0.6,100.0,standard,5.0,3.0,1.0,
1127,0.0,increament,0.6,100.0,standard,5.0,3.0,1.0,
1128,0.0,increament,0.6,100.0,standard,5.0,3.0,1.0,
1129,0.0,increament,0.6,100.0,standard,5.0,3.0,1.0,
1130,0.0,increament,0.6,100.0,standard,5.0,3.0,1.0,
1131,0.0,increament,0.6,100.0,standard,5.0,3.0,1.0,
1132,0.0,increament,0.84,140.0,oddball,7.0,3.0,1.0,0.3698252001777291
1133,0.0,increament,0.6,100.0,standard,5.0,3.0,1.0,
1134,0.0,increament,0.6,100.0,standard,5.0,3.0,1.0,
1135,0.0,increament,0.6,100.0,standard,5.0,3.0,1.0,
1136,0.0,increament,0.72,120.0,oddball,6.0,3.0,0.0,
1137,0.0,increament,0.6,100.0,standard,5.0,3.0,1.0,
1138,0.0,increament,0.6,100.0,standard,5.0,3.0,1.0,
1139,0.0,increament,0.6,100.0,standard,5.0,3.0,1.0,
1140,0.0,decreament,0.6,100.0,standard,1.0,3.0,1.0,
1141,0.0,decreament,0.6,100.0,standard,1.0,3.0,1.0,
1142,0.0,decreament,0.6,100.0,standard,1.0,3.0,1.0,
1143,0.0,decreament,0.6,100.0,standard,1.0,3.0,1.0,
1144,0.0,decreament,0.6,100.0,standard,1.0,3.0,1.0,
1145,0.0,decreament,0.6,100.0,standard,1.0,3.0,1.0,
1146,0.0,decreament,0.6,100.0,standard,1.0,3.0,1.0,
1147,0.0,decreament,0.6,100.0,standard,1.0,3.0,1.0,
1148,0.0,decreament,0.36,60.0,oddball,3.0,3.0,0.0,
1149,0.0,decreament,0.6,100.0,standard,1.0,3.0,1.0,
1150,0.0,decreament,0.6,100.0,standard,1.0,3.0,1.0,
1151,0.0,decreament,0.6,100.0,standard,1.0,3.0,1.0,
1152,0.0,decreament,0.6,100.0,standard,1.0,3.0,1.0,
1153,0.0,decreament,0.24,40.0,oddball,2.0,3.0,1.0,0.5072020003572106
1154,0.0,decreament,0.6,100.0,standard,1.0,3.0,1.0,
1155,0.0,decreament,0.6,100.0,standard,1.0,3.0,1.0,
1156,0.0,decreament,0.6,100.0,standard,1.0,3.0,1.0,
1157,0.0,decreament,0.48,80.0,oddball,4.0,3.0,0.0,
1158,0.0,decreament,0.6,100.0,standard,1.0,3.0,1.0,
1159,0.0,decreament,0.6,100.0,standard,1.0,3.0,1.0,
1160,0.0,decreament,0.6,100.0,standard,1.0,3.0,1.0,
1161,0.0,decreament,0.6,100.0,standard,1.0,3.0,1.0,
1162,0.0,decreament,0.6,100.0,standard,1.0,3.0,1.0,
1163,0.0,decreament,0.6,100.0,standard,1.0,3.0,1.0,
1164,0.0,decreament,0.6,100.0,standard,1.0,3.0,1.0,
1165,0.0,decreament,0.6,100.0,standard,1.0,3.0,1.0,
1166,0.0,decreament,0.6,100.0,standard,1.0,3.0,1.0,
1167,0.0,decreament,0.6,100.0,standard,1.0,3.0,1.0,
1168,0.0,decreament,0.6,100.0,standard,1.0,3.0,1.0,
1169,0.0,decreament,0.6,100.0,standard,1.0,3.0,1.0,
1170,0.0,increament,0.6,100.0,standard,5.0,3.0,1.0,
1171,0.0,increament,0.6,100.0,standard,5.0,3.0,1.0,
1172,0.0,increament,0.6,100.0,standard,5.0,3.0,1.0,
1173,0.0,increament,0.6,100.0,standard,5.0,3.0,1.0,
1174,0.0,increament,0.6,100.0,standard,5.0,3.0,1.0,
1175,0.0,increament,0.6,100.0,standard,5.0,3.0,1.0,
1176,0.0,increament,0.6,100.0,standard,5.0,3.0,1.0,
1177,0.0,increament,0.6,100.0,standard,5.0,3.0,1.0,
1178,0.0,increament,0.6,100.0,standard,5.0,3.0,1.0,
1179,0.0,increament,0.6,100.0,standard,5.0,3.0,1.0,
1180,0.0,increament,0.6,100.0,standard,5.0,3.0,1.0,
1181,0.0,increament,0.6,100.0,standard,5.0,3.0,1.0,
1182,0.0,increament,0.6,100.0,standard,5.0,3.0,1.0,
1183,0.0,increament,0.6,100.0,standard,5.0,3.0,1.0,
1184,0.0,increament,0.96,160.0,oddball,8.0,3.0,1.0,0.20859370008111
1185,0.0,increament,0.6,100.0,standard,5.0,3.0,1.0,
1186,0.0,increament,0.6,100.0,standard,5.0,3.0,1.0,
1187,0.0,increament,0.6,100.0,standard,5.0,3.0,1.0,
1188,0.0,increament,0.72,120.0,oddball,6.0,3.0,0.0,
1189,0.0,increament,0.6,100.0,standard,5.0,3.0,1.0,
1190,0.0,increament,0.6,100.0,standard,5.0,3.0,1.0,
1191,0.0,increament,0.6,100.0,standard,5.0,3.0,1.0,
1192,0.0,increament,0.84,140.0,oddball,7.0,3.0,1.0,1.3676744000986218
1193,0.0,increament,0.6,100.0,standard,5.0,3.0,1.0,
1194,0.0,increament,0.6,100.0,standard,5.0,3.0,1.0,
1195,0.0,increament,0.6,100.0,standard,5.0,3.0,1.0,
1196,0.0,increament,0.6,100.0,standard,5.0,3.0,1.0,
1197,0.0,increament,0.6,100.0,standard,5.0,3.0,1.0,
1198,0.0,increament,0.6,100.0,standard,5.0,3.0,1.0,
1199,0.0,increament,0.6,100.0,standard,5.0,3.0,1.0,
