,grating_freq,direction,duration,scaling,stim_type,trigger,blocks.thisN,resp.corr,resp.rt
0,0.0,increament,0.6,100.0,standard,5.0,0.0,1.0,
1,0.0,increament,0.6,100.0,standard,5.0,0.0,1.0,
2,0.0,increament,0.6,100.0,standard,5.0,0.0,1.0,
3,0.0,increament,0.6,100.0,standard,5.0,0.0,1.0,
4,0.0,increament,0.6,100.0,standard,5.0,0.0,1.0,
5,0.0,increament,0.6,100.0,standard,5.0,0.0,1.0,
6,0.0,increament,0.6,100.0,standard,5.0,0.0,1.0,
7,0.0,increament,0.96,160.0,oddball,8.0,0.0,1.0,1.2116319998167455
8,0.0,increament,0.6,100.0,standard,5.0,0.0,1.0,
9,0.0,increament,0.6,100.0,standard,5.0,0.0,0.0,0.941575099946931
10,0.0,increament,0.6,100.0,standard,5.0,0.0,1.0,
11,0.0,increament,0.6,100.0,standard,5.0,0.0,1.0,
12,0.0,increament,0.6,100.0,standard,5.0,0.0,1.0,
13,0.0,increament,0.6,100.0,standard,5.0,0.0,1.0,
14,0.0,increament,0.6,100.0,standard,5.0,0.0,0.0,0.9955666000023484
15,0.0,increament,0.6,100.0,standard,5.0,0.0,1.0,
16,0.0,increament,0.6,100.0,standard,5.0,0.0,1.0,
17,0.0,increament,0.72,120.0,oddball,6.0,0.0,1.0,0.4726034000050276
18,0.0,increament,0.6,100.0,standard,5.0,0.0,1.0,
19,0.0,increament,0.6,100.0,standard,5.0,0.0,1.0,
20,0.0,increament,0.6,100.0,standard,5.0,0.0,1.0,
21,0.0,increament,0.6,100.0,standard,5.0,0.0,1.0,
22,0.0,increament,0.6,100.0,standard,5.0,0.0,1.0,
23,0.0,increament,0.6,100.0,standard,5.0,0.0,1.0,
24,0.0,increament,0.6,100.0,standard,5.0,0.0,1.0,
25,0.0,increament,0.6,100.0,standard,5.0,0.0,1.0,
26,0.0,increament,0.6,100.0,standard,5.0,0.0,1.0,
27,0.0,increament,0.6,100.0,standard,5.0,0.0,1.0,
28,0.0,increament,0.6,100.0,standard,5.0,0.0,1.0,
29,0.0,increament,0.84,140.0,oddball,7.0,0.0,1.0,0.496631900081411
30,0.0,decreament,0.6,100.0,standard,1.0,0.0,1.0,
31,0.0,decreament,0.6,100.0,standard,1.0,0.0,1.0,
32,0.0,decreament,0.6,100.0,standard,1.0,0.0,1.0,
33,0.0,decreament,0.6,100.0,standard,1.0,0.0,1.0,
34,0.0,decreament,0.6,100.0,standard,1.0,0.0,1.0,
35,0.0,decreament,0.36,60.0,oddball,3.0,0.0,1.0,0.7817695999983698
36,0.0,decreament,0.6,100.0,standard,1.0,0.0,1.0,
37,0.0,decreament,0.6,100.0,standard,1.0,0.0,1.0,
38,0.0,decreament,0.6,100.0,standard,1.0,0.0,1.0,
39,0.0,decreament,0.6,100.0,standard,1.0,0.0,1.0,
40,0.0,decreament,0.6,100.0,standard,1.0,0.0,1.0,
41,0.0,decreament,0.6,100.0,standard,1.0,0.0,1.0,
42,0.0,decreament,0.6,100.0,standard,1.0,0.0,1.0,
43,0.0,decreament,0.6,100.0,standard,1.0,0.0,0.0,1.457484200131148
44,0.0,decreament,0.6,100.0,standard,1.0,0.0,1.0,
45,0.0,decreament,0.6,100.0,standard,1.0,0.0,1.0,
46,0.0,decreament,0.6,100.0,standard,1.0,0.0,0.0,0.8940808000043035
47,0.0,decreament,0.6,100.0,standard,1.0,0.0,1.0,
48,0.0,decreament,0.6,100.0,standard,1.0,0.0,1.0,
49,0.0,decreament,0.6,100.0,standard,1.0,0.0,1.0,
50,0.0,decreament,0.6,100.0,standard,1.0,0.0,1.0,
51,0.0,decreament,0.24,40.0,oddball,2.0,0.0,0.0,
52,0.0,decreament,0.6,100.0,standard,1.0,0.0,1.0,
53,0.0,decreament,0.6,100.0,standard,1.0,0.0,0.0,0.9716922999359668
54,0.0,decreament,0.6,100.0,standard,1.0,0.0,1.0,
55,0.0,decreament,0.6,100.0,standard,1.0,0.0,1.0,
56,0.0,decreament,0.48,80.0,oddball,4.0,0.0,0.0,
57,0.0,decreament,0.6,100.0,standard,1.0,0.0,1.0,
58,0.0,decreament,0.6,100.0,standard,1.0,0.0,1.0,
59,0.0,decreament,0.6,100.0,standard,1.0,0.0,1.0,
60,0.0,increament,0.6,100.0,standard,5.0,0.0,1.0,
61,0.0,increament,0.6,100.0,standard,5.0,0.0,1.0,
62,0.0,increament,0.6,100.0,standard,5.0,0.0,1.0,
63,0.0,increament,0.6,100.0,standard,5.0,0.0,1.0,
64,0.0,increament,0.6,100.0,standard,5.0,0.0,1.0,
65,0.0,increament,0.6,100.0,standard,5.0,0.0,1.0,
66,0.0,increament,0.6,100.0,standard,5.0,0.0,1.0,
67,0.0,increament,0.84,140.0,oddball,7.0,0.0,0.0,
68,0.0,increament,0.6,100.0,standard,5.0,0.0,1.0,
69,0.0,increament,0.6,100.0,standard,5.0,0.0,0.0,1.3543200001586229
70,0.0,increament,0.6,100.0,standard,5.0,0.0,1.0,
71,0.0,increament,0.6,100.0,standard,5.0,0.0,1.0,
72,0.0,increament,0.72,120.0,oddball,6.0,0.0,0.0,
73,0.0,increament,0.6,100.0,standard,5.0,0.0,1.0,
74,0.0,increament,0.6,100.0,standard,5.0,0.0,1.0,
75,0.0,increament,0.6,100.0,standard,5.0,0.0,1.0,
76,0.0,increament,0.6,100.0,standard,5.0,0.0,1.0,
77,0.0,increament,0.6,100.0,standard,5.0,0.0,1.0,
78,0.0,increament,0.6,100.0,standard,5.0,0.0,1.0,
79,0.0,increament,0.6,100.0,standard,5.0,0.0,1.0,
80,0.0,increament,0.6,100.0,standard,5.0,0.0,1.0,
81,0.0,increament,0.6,100.0,standard,5.0,0.0,1.0,
82,0.0,increament,0.6,100.0,standard,5.0,0.0,1.0,
83,0.0,increament,0.6,100.0,standard,5.0,0.0,0.0,0.5620500000659376
84,0.0,increament,0.96,160.0,oddball,8.0,0.0,1.0,0.6647427999414504
85,0.0,increament,0.6,100.0,standard,5.0,0.0,1.0,
86,0.0,increament,0.6,100.0,standard,5.0,0.0,1.0,
87,0.0,increament,0.6,100.0,standard,5.0,0.0,1.0,
88,0.0,increament,0.6,100.0,standard,5.0,0.0,1.0,
89,0.0,increament,0.6,100.0,standard,5.0,0.0,1.0,
90,0.0,decreament,0.6,100.0,standard,1.0,0.0,1.0,
91,0.0,decreament,0.6,100.0,standard,1.0,0.0,1.0,
92,0.0,decreament,0.6,100.0,standard,1.0,0.0,1.0,
93,0.0,decreament,0.6,100.0,standard,1.0,0.0,1.0,
94,0.0,decreament,0.6,100.0,standard,1.0,0.0,1.0,
95,0.0,decreament,0.6,100.0,standard,1.0,0.0,1.0,
96,0.0,decreament,0.6,100.0,standard,1.0,0.0,1.0,
97,0.0,decreament,0.36,60.0,oddball,3.0,0.0,1.0,0.8790879000443965
98,0.0,decreament,0.6,100.0,standard,1.0,0.0,1.0,
99,0.0,decreament,0.6,100.0,standard,1.0,0.0,1.0,
100,0.0,decreament,0.6,100.0,standard,1.0,0.0,1.0,
101,0.0,decreament,0.6,100.0,standard,1.0,0.0,1.0,
102,0.0,decreament,0.6,100.0,standard,1.0,0.0,1.0,
103,0.0,decreament,0.6,100.0,standard,1.0,0.0,1.0,
104,0.0,decreament,0.6,100.0,standard,1.0,0.0,1.0,
105,0.0,decreament,0.6,100.0,standard,1.0,0.0,1.0,
106,0.0,decreament,0.6,100.0,standard,1.0,0.0,1.0,
107,0.0,decreament,0.6,100.0,standard,1.0,0.0,1.0,
108,0.0,decreament,0.6,100.0,standard,1.0,0.0,0.0,0.5879141998011619
109,0.0,decreament,0.6,100.0,standard,1.0,0.0,1.0,
110,0.0,decreament,0.6,100.0,standard,1.0,0.0,1.0,
111,0.0,decreament,0.6,100.0,standard,1.0,0.0,1.0,
112,0.0,decreament,0.6,100.0,standard,1.0,0.0,1.0,
113,0.0,decreament,0.48,80.0,oddball,4.0,0.0,0.0,
114,0.0,decreament,0.6,100.0,standard,1.0,0.0,1.0,
115,0.0,decreament,0.6,100.0,standard,1.0,0.0,1.0,
116,0.0,decreament,0.6,100.0,standard,1.0,0.0,1.0,
117,0.0,decreament,0.24,40.0,oddball,2.0,0.0,1.0,0.8528412999585271
118,0.0,decreament,0.6,100.0,standard,1.0,0.0,0.0,0.6698593001347035
119,0.0,decreament,0.6,100.0,standard,1.0,0.0,1.0,
120,0.0,increament,0.6,100.0,standard,5.0,0.0,1.0,
121,0.0,increament,0.6,100.0,standard,5.0,0.0,1.0,
122,0.0,increament,0.6,100.0,standard,5.0,0.0,1.0,
123,0.0,increament,0.6,100.0,standard,5.0,0.0,1.0,
124,0.0,increament,0.6,100.0,standard,5.0,0.0,1.0,
125,0.0,increament,0.6,100.0,standard,5.0,0.0,1.0,
126,0.0,increament,0.6,100.0,standard,5.0,0.0,1.0,
127,0.0,increament,0.6,100.0,standard,5.0,0.0,1.0,
128,0.0,increament,0.6,100.0,standard,5.0,0.0,0.0,0.3631615999620408
129,0.0,increament,0.96,160.0,oddball,8.0,0.0,0.0,
130,0.0,increament,0.6,100.0,standard,5.0,0.0,1.0,
131,0.0,increament,0.6,100.0,standard,5.0,0.0,1.0,
132,0.0,increament,0.6,100.0,standard,5.0,0.0,1.0,
133,0.0,increament,0.6,100.0,standard,5.0,0.0,1.0,
134,0.0,increament,0.72,120.0,oddball,6.0,0.0,1.0,0.4302844000048935
135,0.0,increament,0.6,100.0,standard,5.0,0.0,0.0,0.4854876000899821
136,0.0,increament,0.6,100.0,standard,5.0,0.0,1.0,
137,0.0,increament,0.6,100.0,standard,5.0,0.0,1.0,
138,0.0,increament,0.6,100.0,standard,5.0,0.0,0.0,0.7720246999524534
139,0.0,increament,0.84,140.0,oddball,7.0,0.0,1.0,0.4888230001088232
140,0.0,increament,0.6,100.0,standard,5.0,0.0,1.0,
141,0.0,increament,0.6,100.0,standard,5.0,0.0,1.0,
142,0.0,increament,0.6,100.0,standard,5.0,0.0,1.0,
143,0.0,increament,0.6,100.0,standard,5.0,0.0,1.0,
144,0.0,increament,0.6,100.0,standard,5.0,0.0,1.0,
145,0.0,increament,0.6,100.0,standard,5.0,0.0,1.0,
146,0.0,increament,0.6,100.0,standard,5.0,0.0,1.0,
147,0.0,increament,0.6,100.0,standard,5.0,0.0,1.0,
148,0.0,increament,0.6,100.0,standard,5.0,0.0,1.0,
149,0.0,increament,0.6,100.0,standard,5.0,0.0,1.0,
150,0.0,decreament,0.6,100.0,standard,1.0,0.0,1.0,
151,0.0,decreament,0.6,100.0,standard,1.0,0.0,1.0,
152,0.0,decreament,0.6,100.0,standard,1.0,0.0,1.0,
153,0.0,decreament,0.6,100.0,standard,1.0,0.0,1.0,
154,0.0,decreament,0.6,100.0,standard,1.0,0.0,1.0,
155,0.0,decreament,0.6,100.0,standard,1.0,0.0,1.0,
156,0.0,decreament,0.6,100.0,standard,1.0,0.0,1.0,
157,0.0,decreament,0.48,80.0,oddball,4.0,0.0,0.0,
158,0.0,decreament,0.6,100.0,standard,1.0,0.0,1.0,
159,0.0,decreament,0.6,100.0,standard,1.0,0.0,1.0,
160,0.0,decreament,0.6,100.0,standard,1.0,0.0,1.0,
161,0.0,decreament,0.6,100.0,standard,1.0,0.0,1.0,
162,0.0,decreament,0.6,100.0,standard,1.0,0.0,1.0,
163,0.0,decreament,0.6,100.0,standard,1.0,0.0,0.0,0.5454235998913646
164,0.0,decreament,0.36,60.0,oddball,3.0,0.0,1.0,0.8518691000062972
165,0.0,decreament,0.6,100.0,standard,1.0,0.0,1.0,
166,0.0,decreament,0.6,100.0,standard,1.0,0.0,1.0,
167,0.0,decreament,0.6,100.0,standard,1.0,0.0,1.0,
168,0.0,decreament,0.6,100.0,standard,1.0,0.0,1.0,
169,0.0,decreament,0.6,100.0,standard,1.0,0.0,1.0,
170,0.0,decreament,0.6,100.0,standard,1.0,0.0,1.0,
171,0.0,decreament,0.6,100.0,standard,1.0,0.0,1.0,
172,0.0,decreament,0.6,100.0,standard,1.0,0.0,1.0,
173,0.0,decreament,0.6,100.0,standard,1.0,0.0,1.0,
174,0.0,decreament,0.24,40.0,oddball,2.0,0.0,1.0,0.5103069001343101
175,0.0,decreament,0.6,100.0,standard,1.0,0.0,1.0,
176,0.0,decreament,0.6,100.0,standard,1.0,0.0,1.0,
177,0.0,decreament,0.6,100.0,standard,1.0,0.0,1.0,
178,0.0,decreament,0.6,100.0,standard,1.0,0.0,1.0,
179,0.0,decreament,0.6,100.0,standard,1.0,0.0,1.0,
180,0.0,increament,0.6,100.0,standard,5.0,0.0,1.0,
181,0.0,increament,0.6,100.0,standard,5.0,0.0,1.0,
182,0.0,increament,0.6,100.0,standard,5.0,0.0,1.0,
183,0.0,increament,0.6,100.0,standard,5.0,0.0,1.0,
184,0.0,increament,0.6,100.0,standard,5.0,0.0,1.0,
185,0.0,increament,0.6,100.0,standard,5.0,0.0,1.0,
186,0.0,increament,0.6,100.0,standard,5.0,0.0,1.0,
187,0.0,increament,0.6,100.0,standard,5.0,0.0,1.0,
188,0.0,increament,0.6,100.0,standard,5.0,0.0,0.0,1.0790635999292135
189,0.0,increament,0.6,100.0,standard,5.0,0.0,1.0,
190,0.0,increament,0.6,100.0,standard,5.0,0.0,1.0,
191,0.0,increament,0.6,100.0,standard,5.0,0.0,1.0,
192,0.0,increament,0.72,120.0,oddball,6.0,0.0,1.0,0.4517645998857915
193,0.0,increament,0.6,100.0,standard,5.0,0.0,1.0,
194,0.0,increament,0.6,100.0,standard,5.0,0.0,1.0,
195,0.0,increament,0.6,100.0,standard,5.0,0.0,1.0,
196,0.0,increament,0.6,100.0,standard,5.0,0.0,1.0,
197,0.0,increament,0.6,100.0,standard,5.0,0.0,1.0,
198,0.0,increament,0.6,100.0,standard,5.0,0.0,1.0,
199,0.0,increament,0.6,100.0,standard,5.0,0.0,0.0,1.4364163000136614
200,0.0,increament,0.6,100.0,standard,5.0,0.0,1.0,
201,0.0,increament,0.6,100.0,standard,5.0,0.0,1.0,
202,0.0,increament,0.6,100.0,standard,5.0,0.0,1.0,
203,0.0,increament,0.96,160.0,oddball,8.0,0.0,1.0,0.8627122000325471
204,0.0,increament,0.6,100.0,standard,5.0,0.0,1.0,
205,0.0,increament,0.6,100.0,standard,5.0,0.0,1.0,
206,0.0,increament,0.6,100.0,standard,5.0,0.0,1.0,
207,0.0,increament,0.6,100.0,standard,5.0,0.0,1.0,
208,0.0,increament,0.84,140.0,oddball,7.0,0.0,1.0,0.5990422000177205
209,0.0,increament,0.6,100.0,standard,5.0,0.0,1.0,
210,0.0,decreament,0.6,100.0,standard,1.0,0.0,1.0,
211,0.0,decreament,0.6,100.0,standard,1.0,0.0,1.0,
212,0.0,decreament,0.6,100.0,standard,1.0,0.0,1.0,
213,0.0,decreament,0.6,100.0,standard,1.0,0.0,1.0,
214,0.0,decreament,0.6,100.0,standard,1.0,0.0,1.0,
215,0.0,decreament,0.6,100.0,standard,1.0,0.0,1.0,
216,0.0,decreament,0.6,100.0,standard,1.0,0.0,1.0,
217,0.0,decreament,0.6,100.0,standard,1.0,0.0,1.0,
218,0.0,decreament,0.6,100.0,standard,1.0,0.0,1.0,
219,0.0,decreament,0.6,100.0,standard,1.0,0.0,1.0,
220,0.0,decreament,0.6,100.0,standard,1.0,0.0,1.0,
221,0.0,decreament,0.48,80.0,oddball,4.0,0.0,0.0,
222,0.0,decreament,0.6,100.0,standard,1.0,0.0,1.0,
223,0.0,decreament,0.6,100.0,standard,1.0,0.0,1.0,
224,0.0,decreament,0.6,100.0,standard,1.0,0.0,1.0,
225,0.0,decreament,0.6,100.0,standard,1.0,0.0,1.0,
226,0.0,decreament,0.6,100.0,standard,1.0,0.0,1.0,
227,0.0,decreament,0.6,100.0,standard,1.0,0.0,1.0,
228,0.0,decreament,0.24,40.0,oddball,2.0,0.0,1.0,1.0528567000292242
229,0.0,decreament,0.6,100.0,standard,1.0,0.0,1.0,
230,0.0,decreament,0.6,100.0,standard,1.0,0.0,1.0,
231,0.0,decreament,0.6,100.0,standard,1.0,0.0,1.0,
232,0.0,decreament,0.6,100.0,standard,1.0,0.0,1.0,
233,0.0,decreament,0.6,100.0,standard,1.0,0.0,1.0,
234,0.0,decreament,0.6,100.0,standard,1.0,0.0,0.0,0.5648006000556052
235,0.0,decreament,0.6,100.0,standard,1.0,0.0,1.0,
236,0.0,decreament,0.6,100.0,standard,1.0,0.0,1.0,
237,0.0,decreament,0.6,100.0,standard,1.0,0.0,1.0,
238,0.0,decreament,0.6,100.0,standard,1.0,0.0,1.0,
239,0.0,decreament,0.36,60.0,oddball,3.0,0.0,0.0,
240,0.0,increament,0.6,100.0,standard,5.0,0.0,1.0,
241,0.0,increament,0.6,100.0,standard,5.0,0.0,1.0,
242,0.0,increament,0.6,100.0,standard,5.0,0.0,1.0,
243,0.0,increament,0.6,100.0,standard,5.0,0.0,1.0,
244,0.0,increament,0.6,100.0,standard,5.0,0.0,1.0,
245,0.0,increament,0.6,100.0,standard,5.0,0.0,1.0,
246,0.0,increament,0.96,160.0,oddball,8.0,0.0,1.0,0.6550179000478238
247,0.0,increament,0.6,100.0,standard,5.0,0.0,1.0,
248,0.0,increament,0.6,100.0,standard,5.0,0.0,1.0,
249,0.0,increament,0.6,100.0,standard,5.0,0.0,1.0,
250,0.0,increament,0.6,100.0,standard,5.0,0.0,1.0,
251,0.0,increament,0.6,100.0,standard,5.0,0.0,1.0,
252,0.0,increament,0.72,120.0,oddball,6.0,0.0,1.0,0.4248647999484092
253,0.0,increament,0.6,100.0,standard,5.0,0.0,1.0,
254,0.0,increament,0.6,100.0,standard,5.0,0.0,1.0,
255,0.0,increament,0.6,100.0,standard,5.0,0.0,1.0,
256,0.0,increament,0.6,100.0,standard,5.0,0.0,0.0,0.4251858000643551
257,0.0,increament,0.6,100.0,standard,5.0,0.0,1.0,
258,0.0,increament,0.6,100.0,standard,5.0,0.0,1.0,
259,0.0,increament,0.6,100.0,standard,5.0,0.0,1.0,
260,0.0,increament,0.6,100.0,standard,5.0,0.0,1.0,
261,0.0,increament,0.6,100.0,standard,5.0,0.0,0.0,0.337818699888885
262,0.0,increament,0.6,100.0,standard,5.0,0.0,1.0,
263,0.0,increament,0.6,100.0,standard,5.0,0.0,1.0,
264,0.0,increament,0.84,140.0,oddball,7.0,0.0,0.0,
265,0.0,increament,0.6,100.0,standard,5.0,0.0,1.0,
266,0.0,increament,0.6,100.0,standard,5.0,0.0,1.0,
267,0.0,increament,0.6,100.0,standard,5.0,0.0,0.0,0.3910664001014083
268,0.0,increament,0.6,100.0,standard,5.0,0.0,1.0,
269,0.0,increament,0.6,100.0,standard,5.0,0.0,1.0,
270,0.0,decreament,0.6,100.0,standard,1.0,0.0,1.0,
271,0.0,decreament,0.6,100.0,standard,1.0,0.0,1.0,
272,0.0,decreament,0.6,100.0,standard,1.0,0.0,1.0,
273,0.0,decreament,0.6,100.0,standard,1.0,0.0,1.0,
274,0.0,decreament,0.6,100.0,standard,1.0,0.0,1.0,
275,0.0,decreament,0.6,100.0,standard,1.0,0.0,1.0,
276,0.0,decreament,0.6,100.0,standard,1.0,0.0,1.0,
277,0.0,decreament,0.6,100.0,standard,1.0,0.0,1.0,
278,0.0,decreament,0.6,100.0,standard,1.0,0.0,1.0,
279,0.0,decreament,0.6,100.0,standard,1.0,0.0,1.0,
280,0.0,decreament,0.48,80.0,oddball,4.0,0.0,0.0,
281,0.0,decreament,0.6,100.0,standard,1.0,0.0,1.0,
282,0.0,decreament,0.6,100.0,standard,1.0,0.0,1.0,
283,0.0,decreament,0.6,100.0,standard,1.0,0.0,1.0,
284,0.0,decreament,0.6,100.0,standard,1.0,0.0,1.0,
285,0.0,decreament,0.6,100.0,standard,1.0,0.0,1.0,
286,0.0,decreament,0.6,100.0,standard,1.0,0.0,1.0,
287,0.0,decreament,0.6,100.0,standard,1.0,0.0,1.0,
288,0.0,decreament,0.36,60.0,oddball,3.0,0.0,1.0,0.5180986002087593
289,0.0,decreament,0.6,100.0,standard,1.0,0.0,1.0,
290,0.0,decreament,0.6,100.0,standard,1.0,0.0,1.0,
291,0.0,decreament,0.6,100.0,standard,1.0,0.0,1.0,
292,0.0,decreament,0.6,100.0,standard,1.0,0.0,1.0,
293,0.0,decreament,0.6,100.0,standard,1.0,0.0,1.0,
294,0.0,decreament,0.6,100.0,standard,1.0,0.0,1.0,
295,0.0,decreament,0.6,100.0,standard,1.0,0.0,1.0,
296,0.0,decreament,0.6,100.0,standard,1.0,0.0,1.0,
297,0.0,decreament,0.6,100.0,standard,1.0,0.0,0.0,0.5762600000016391
298,0.0,decreament,0.24,40.0,oddball,2.0,0.0,1.0,0.424392299959436
299,0.0,decreament,0.6,100.0,standard,1.0,0.0,1.0,
300,20.0,increament,0.6,100.0,standard,45.0,1.0,1.0,
301,20.0,increament,0.6,100.0,standard,45.0,1.0,1.0,
302,20.0,increament,0.6,100.0,standard,45.0,1.0,1.0,
303,20.0,increament,0.6,100.0,standard,45.0,1.0,1.0,
304,20.0,increament,0.6,100.0,standard,45.0,1.0,1.0,
305,20.0,increament,0.6,100.0,standard,45.0,1.0,1.0,
306,20.0,increament,0.6,100.0,standard,45.0,1.0,1.0,
307,20.0,increament,0.6,100.0,standard,45.0,1.0,1.0,
308,20.0,increament,0.6,100.0,standard,45.0,1.0,1.0,
309,20.0,increament,0.6,100.0,standard,45.0,1.0,1.0,
310,20.0,increament,0.6,100.0,standard,45.0,1.0,1.0,
311,20.0,increament,0.96,160.0,oddball,48.0,1.0,1.0,0.5173144000582397
312,20.0,increament,0.6,100.0,standard,45.0,1.0,1.0,
313,20.0,increament,0.6,100.0,standard,45.0,1.0,1.0,
314,20.0,increament,0.6,100.0,standard,45.0,1.0,1.0,
315,20.0,increament,0.6,100.0,standard,45.0,1.0,1.0,
316,20.0,increament,0.6,100.0,standard,45.0,1.0,1.0,
317,20.0,increament,0.6,100.0,standard,45.0,1.0,1.0,
318,20.0,increament,0.6,100.0,standard,45.0,1.0,1.0,
319,20.0,increament,0.72,120.0,oddball,46.0,1.0,0.0,
320,20.0,increament,0.6,100.0,standard,45.0,1.0,1.0,
321,20.0,increament,0.6,100.0,standard,45.0,1.0,1.0,
322,20.0,increament,0.6,100.0,standard,45.0,1.0,1.0,
323,20.0,increament,0.6,100.0,standard,45.0,1.0,1.0,
324,20.0,increament,0.6,100.0,standard,45.0,1.0,1.0,
325,20.0,increament,0.6,100.0,standard,45.0,1.0,1.0,
326,20.0,increament,0.6,100.0,standard,45.0,1.0,1.0,
327,20.0,increament,0.6,100.0,standard,45.0,1.0,1.0,
328,20.0,increament,0.84,140.0,oddball,47.0,1.0,1.0,1.4338319001253694
329,20.0,increament,0.6,100.0,standard,45.0,1.0,1.0,
330,20.0,decreament,0.6,100.0,standard,41.0,1.0,1.0,
331,20.0,decreament,0.6,100.0,standard,41.0,1.0,1.0,
332,20.0,decreament,0.6,100.0,standard,41.0,1.0,1.0,
333,20.0,decreament,0.6,100.0,standard,41.0,1.0,1.0,
334,20.0,decreament,0.6,100.0,standard,41.0,1.0,1.0,
335,20.0,decreament,0.6,100.0,standard,41.0,1.0,1.0,
336,20.0,decreament,0.6,100.0,standard,41.0,1.0,1.0,
337,20.0,decreament,0.48,80.0,oddball,44.0,1.0,0.0,
338,20.0,decreament,0.6,100.0,standard,41.0,1.0,1.0,
339,20.0,decreament,0.6,100.0,standard,41.0,1.0,1.0,
340,20.0,decreament,0.6,100.0,standard,41.0,1.0,1.0,
341,20.0,decreament,0.6,100.0,standard,41.0,1.0,1.0,
342,20.0,decreament,0.6,100.0,standard,41.0,1.0,1.0,
343,20.0,decreament,0.6,100.0,standard,41.0,1.0,1.0,
344,20.0,decreament,0.6,100.0,standard,41.0,1.0,1.0,
345,20.0,decreament,0.6,100.0,standard,41.0,1.0,1.0,
346,20.0,decreament,0.6,100.0,standard,41.0,1.0,1.0,
347,20.0,decreament,0.6,100.0,standard,41.0,1.0,1.0,
348,20.0,decreament,0.6,100.0,standard,41.0,1.0,1.0,
349,20.0,decreament,0.6,100.0,standard,41.0,1.0,1.0,
350,20.0,decreament,0.36,60.0,oddball,43.0,1.0,0.0,
351,20.0,decreament,0.6,100.0,standard,41.0,1.0,1.0,
352,20.0,decreament,0.6,100.0,standard,41.0,1.0,1.0,
353,20.0,decreament,0.6,100.0,standard,41.0,1.0,1.0,
354,20.0,decreament,0.6,100.0,standard,41.0,1.0,1.0,
355,20.0,decreament,0.6,100.0,standard,41.0,1.0,1.0,
356,20.0,decreament,0.6,100.0,standard,41.0,1.0,1.0,
357,20.0,decreament,0.6,100.0,standard,41.0,1.0,1.0,
358,20.0,decreament,0.6,100.0,standard,41.0,1.0,1.0,
359,20.0,decreament,0.24,40.0,oddball,42.0,1.0,1.0,0.4571013001259416
360,20.0,increament,0.6,100.0,standard,45.0,1.0,1.0,
361,20.0,increament,0.6,100.0,standard,45.0,1.0,1.0,
362,20.0,increament,0.6,100.0,standard,45.0,1.0,1.0,
363,20.0,increament,0.6,100.0,standard,45.0,1.0,1.0,
364,20.0,increament,0.6,100.0,standard,45.0,1.0,1.0,
365,20.0,increament,0.6,100.0,standard,45.0,1.0,1.0,
366,20.0,increament,0.6,100.0,standard,45.0,1.0,1.0,
367,20.0,increament,0.6,100.0,standard,45.0,1.0,1.0,
368,20.0,increament,0.6,100.0,standard,45.0,1.0,1.0,
369,20.0,increament,0.6,100.0,standard,45.0,1.0,1.0,
370,20.0,increament,0.6,100.0,standard,45.0,1.0,0.0,0.7563273999840021
371,20.0,increament,0.6,100.0,standard,45.0,1.0,1.0,
372,20.0,increament,0.6,100.0,standard,45.0,1.0,1.0,
373,20.0,increament,0.6,100.0,standard,45.0,1.0,1.0,
374,20.0,increament,0.6,100.0,standard,45.0,1.0,1.0,
375,20.0,increament,0.6,100.0,standard,45.0,1.0,1.0,
376,20.0,increament,0.84,140.0,oddball,47.0,1.0,1.0,1.420668700011447
377,20.0,increament,0.6,100.0,standard,45.0,1.0,1.0,
378,20.0,increament,0.6,100.0,standard,45.0,1.0,1.0,
379,20.0,increament,0.6,100.0,standard,45.0,1.0,1.0,
380,20.0,increament,0.6,100.0,standard,45.0,1.0,1.0,
381,20.0,increament,0.6,100.0,standard,45.0,1.0,1.0,
382,20.0,increament,0.96,160.0,oddball,48.0,1.0,1.0,0.5448104001116008
383,20.0,increament,0.6,100.0,standard,45.0,1.0,1.0,
384,20.0,increament,0.6,100.0,standard,45.0,1.0,1.0,
385,20.0,increament,0.6,100.0,standard,45.0,1.0,1.0,
386,20.0,increament,0.6,100.0,standard,45.0,1.0,1.0,
387,20.0,increament,0.6,100.0,standard,45.0,1.0,1.0,
388,20.0,increament,0.6,100.0,standard,45.0,1.0,1.0,
389,20.0,increament,0.72,120.0,oddball,46.0,1.0,1.0,0.5296110000927001
390,20.0,decreament,0.6,100.0,standard,41.0,1.0,1.0,
391,20.0,decreament,0.6,100.0,standard,41.0,1.0,1.0,
392,20.0,decreament,0.6,100.0,standard,41.0,1.0,1.0,
393,20.0,decreament,0.6,100.0,standard,41.0,1.0,1.0,
394,20.0,decreament,0.6,100.0,standard,41.0,1.0,1.0,
395,20.0,decreament,0.6,100.0,standard,41.0,1.0,1.0,
396,20.0,decreament,0.6,100.0,standard,41.0,1.0,1.0,
397,20.0,decreament,0.6,100.0,standard,41.0,1.0,1.0,
398,20.0,decreament,0.6,100.0,standard,41.0,1.0,1.0,
399,20.0,decreament,0.36,60.0,oddball,43.0,1.0,0.0,
400,20.0,decreament,0.6,100.0,standard,41.0,1.0,1.0,
401,20.0,decreament,0.6,100.0,standard,41.0,1.0,1.0,
402,20.0,decreament,0.6,100.0,standard,41.0,1.0,1.0,
403,20.0,decreament,0.6,100.0,standard,41.0,1.0,1.0,
404,20.0,decreament,0.6,100.0,standard,41.0,1.0,1.0,
405,20.0,decreament,0.6,100.0,standard,41.0,1.0,1.0,
406,20.0,decreament,0.6,100.0,standard,41.0,1.0,1.0,
407,20.0,decreament,0.6,100.0,standard,41.0,1.0,1.0,
408,20.0,decreament,0.6,100.0,standard,41.0,1.0,1.0,
409,20.0,decreament,0.6,100.0,standard,41.0,1.0,1.0,
410,20.0,decreament,0.6,100.0,standard,41.0,1.0,1.0,
411,20.0,decreament,0.6,100.0,standard,41.0,1.0,1.0,
412,20.0,decreament,0.6,100.0,standard,41.0,1.0,1.0,
413,20.0,decreament,0.6,100.0,standard,41.0,1.0,1.0,
414,20.0,decreament,0.48,80.0,oddball,44.0,1.0,0.0,
415,20.0,decreament,0.6,100.0,standard,41.0,1.0,1.0,
416,20.0,decreament,0.6,100.0,standard,41.0,1.0,1.0,
417,20.0,decreament,0.6,100.0,standard,41.0,1.0,1.0,
418,20.0,decreament,0.24,40.0,oddball,42.0,1.0,1.0,0.664002499775961
419,20.0,decreament,0.6,100.0,standard,41.0,1.0,1.0,
420,20.0,increament,0.6,100.0,standard,45.0,1.0,1.0,
421,20.0,increament,0.6,100.0,standard,45.0,1.0,1.0,
422,20.0,increament,0.6,100.0,standard,45.0,1.0,1.0,
423,20.0,increament,0.6,100.0,standard,45.0,1.0,1.0,
424,20.0,increament,0.6,100.0,standard,45.0,1.0,1.0,
425,20.0,increament,0.96,160.0,oddball,48.0,1.0,0.0,
426,20.0,increament,0.6,100.0,standard,45.0,1.0,1.0,
427,20.0,increament,0.6,100.0,standard,45.0,1.0,1.0,
428,20.0,increament,0.6,100.0,standard,45.0,1.0,1.0,
429,20.0,increament,0.6,100.0,standard,45.0,1.0,1.0,
430,20.0,increament,0.6,100.0,standard,45.0,1.0,1.0,
431,20.0,increament,0.6,100.0,standard,45.0,1.0,1.0,
432,20.0,increament,0.6,100.0,standard,45.0,1.0,1.0,
433,20.0,increament,0.6,100.0,standard,45.0,1.0,1.0,
434,20.0,increament,0.6,100.0,standard,45.0,1.0,1.0,
435,20.0,increament,0.6,100.0,standard,45.0,1.0,1.0,
436,20.0,increament,0.6,100.0,standard,45.0,1.0,1.0,
437,20.0,increament,0.6,100.0,standard,45.0,1.0,1.0,
438,20.0,increament,0.6,100.0,standard,45.0,1.0,1.0,
439,20.0,increament,0.6,100.0,standard,45.0,1.0,1.0,
440,20.0,increament,0.6,100.0,standard,45.0,1.0,1.0,
441,20.0,increament,0.6,100.0,standard,45.0,1.0,1.0,
442,20.0,increament,0.84,140.0,oddball,47.0,1.0,0.0,
443,20.0,increament,0.6,100.0,standard,45.0,1.0,1.0,
444,20.0,increament,0.6,100.0,standard,45.0,1.0,1.0,
445,20.0,increament,0.6,100.0,standard,45.0,1.0,1.0,
446,20.0,increament,0.6,100.0,standard,45.0,1.0,1.0,
447,20.0,increament,0.6,100.0,standard,45.0,1.0,1.0,
448,20.0,increament,0.72,120.0,oddball,46.0,1.0,1.0,1.4389922998379916
449,20.0,increament,0.6,100.0,standard,45.0,1.0,1.0,
450,20.0,decreament,0.6,100.0,standard,41.0,1.0,1.0,
451,20.0,decreament,0.6,100.0,standard,41.0,1.0,1.0,
452,20.0,decreament,0.6,100.0,standard,41.0,1.0,1.0,
453,20.0,decreament,0.6,100.0,standard,41.0,1.0,1.0,
454,20.0,decreament,0.6,100.0,standard,41.0,1.0,1.0,
455,20.0,decreament,0.6,100.0,standard,41.0,1.0,1.0,
456,20.0,decreament,0.6,100.0,standard,41.0,1.0,1.0,
457,20.0,decreament,0.6,100.0,standard,41.0,1.0,1.0,
458,20.0,decreament,0.6,100.0,standard,41.0,1.0,1.0,
459,20.0,decreament,0.24,40.0,oddball,42.0,1.0,1.0,0.7115822001360357
460,20.0,decreament,0.6,100.0,standard,41.0,1.0,1.0,
461,20.0,decreament,0.6,100.0,standard,41.0,1.0,1.0,
462,20.0,decreament,0.6,100.0,standard,41.0,1.0,1.0,
463,20.0,decreament,0.6,100.0,standard,41.0,1.0,1.0,
464,20.0,decreament,0.6,100.0,standard,41.0,1.0,1.0,
465,20.0,decreament,0.6,100.0,standard,41.0,1.0,1.0,
466,20.0,decreament,0.6,100.0,standard,41.0,1.0,1.0,
467,20.0,decreament,0.48,80.0,oddball,44.0,1.0,0.0,
468,20.0,decreament,0.6,100.0,standard,41.0,1.0,1.0,
469,20.0,decreament,0.6,100.0,standard,41.0,1.0,1.0,
470,20.0,decreament,0.6,100.0,standard,41.0,1.0,1.0,
471,20.0,decreament,0.36,60.0,oddball,43.0,1.0,1.0,0.8351942000444978
472,20.0,decreament,0.6,100.0,standard,41.0,1.0,1.0,
473,20.0,decreament,0.6,100.0,standard,41.0,1.0,1.0,
474,20.0,decreament,0.6,100.0,standard,41.0,1.0,1.0,
475,20.0,decreament,0.6,100.0,standard,41.0,1.0,1.0,
476,20.0,decreament,0.6,100.0,standard,41.0,1.0,1.0,
477,20.0,decreament,0.6,100.0,standard,41.0,1.0,1.0,
478,20.0,decreament,0.6,100.0,standard,41.0,1.0,1.0,
479,20.0,decreament,0.6,100.0,standard,41.0,1.0,1.0,
480,20.0,increament,0.6,100.0,standard,45.0,1.0,1.0,
481,20.0,increament,0.6,100.0,standard,45.0,1.0,1.0,
482,20.0,increament,0.6,100.0,standard,45.0,1.0,1.0,
483,20.0,increament,0.6,100.0,standard,45.0,1.0,1.0,
484,20.0,increament,0.6,100.0,standard,45.0,1.0,1.0,
485,20.0,increament,0.6,100.0,standard,45.0,1.0,1.0,
486,20.0,increament,0.6,100.0,standard,45.0,1.0,1.0,
487,20.0,increament,0.6,100.0,standard,45.0,1.0,1.0,
488,20.0,increament,0.96,160.0,oddball,48.0,1.0,0.0,
489,20.0,increament,0.6,100.0,standard,45.0,1.0,1.0,
490,20.0,increament,0.6,100.0,standard,45.0,1.0,1.0,
491,20.0,increament,0.6,100.0,standard,45.0,1.0,1.0,
492,20.0,increament,0.6,100.0,standard,45.0,1.0,1.0,
493,20.0,increament,0.6,100.0,standard,45.0,1.0,1.0,
494,20.0,increament,0.6,100.0,standard,45.0,1.0,1.0,
495,20.0,increament,0.6,100.0,standard,45.0,1.0,1.0,
496,20.0,increament,0.6,100.0,standard,45.0,1.0,1.0,
497,20.0,increament,0.6,100.0,standard,45.0,1.0,1.0,
498,20.0,increament,0.6,100.0,standard,45.0,1.0,1.0,
499,20.0,increament,0.6,100.0,standard,45.0,1.0,1.0,
500,20.0,increament,0.6,100.0,standard,45.0,1.0,1.0,
501,20.0,increament,0.6,100.0,standard,45.0,1.0,1.0,
502,20.0,increament,0.72,120.0,oddball,46.0,1.0,1.0,0.4406968997791409
503,20.0,increament,0.6,100.0,standard,45.0,1.0,1.0,
504,20.0,increament,0.6,100.0,standard,45.0,1.0,1.0,
505,20.0,increament,0.6,100.0,standard,45.0,1.0,1.0,
506,20.0,increament,0.6,100.0,standard,45.0,1.0,1.0,
507,20.0,increament,0.6,100.0,standard,45.0,1.0,1.0,
508,20.0,increament,0.84,140.0,oddball,47.0,1.0,0.0,
509,20.0,increament,0.6,100.0,standard,45.0,1.0,1.0,
510,20.0,decreament,0.6,100.0,standard,41.0,1.0,1.0,
511,20.0,decreament,0.6,100.0,standard,41.0,1.0,1.0,
512,20.0,decreament,0.6,100.0,standard,41.0,1.0,1.0,
513,20.0,decreament,0.6,100.0,standard,41.0,1.0,1.0,
514,20.0,decreament,0.6,100.0,standard,41.0,1.0,1.0,
515,20.0,decreament,0.6,100.0,standard,41.0,1.0,1.0,
516,20.0,decreament,0.36,60.0,oddball,43.0,1.0,0.0,
517,20.0,decreament,0.6,100.0,standard,41.0,1.0,1.0,
518,20.0,decreament,0.6,100.0,standard,41.0,1.0,1.0,
519,20.0,decreament,0.6,100.0,standard,41.0,1.0,1.0,
520,20.0,decreament,0.48,80.0,oddball,44.0,1.0,0.0,
521,20.0,decreament,0.6,100.0,standard,41.0,1.0,1.0,
522,20.0,decreament,0.6,100.0,standard,41.0,1.0,1.0,
523,20.0,decreament,0.6,100.0,standard,41.0,1.0,1.0,
524,20.0,decreament,0.6,100.0,standard,41.0,1.0,1.0,
525,20.0,decreament,0.6,100.0,standard,41.0,1.0,1.0,
526,20.0,decreament,0.6,100.0,standard,41.0,1.0,1.0,
527,20.0,decreament,0.6,100.0,standard,41.0,1.0,1.0,
528,20.0,decreament,0.6,100.0,standard,41.0,1.0,1.0,
529,20.0,decreament,0.6,100.0,standard,41.0,1.0,1.0,
530,20.0,decreament,0.6,100.0,standard,41.0,1.0,1.0,
531,20.0,decreament,0.6,100.0,standard,41.0,1.0,1.0,
532,20.0,decreament,0.6,100.0,standard,41.0,1.0,1.0,
533,20.0,decreament,0.24,40.0,oddball,42.0,1.0,1.0,1.2412435000296682
534,20.0,decreament,0.6,100.0,standard,41.0,1.0,1.0,
535,20.0,decreament,0.6,100.0,standard,41.0,1.0,1.0,
536,20.0,decreament,0.6,100.0,standard,41.0,1.0,1.0,
537,20.0,decreament,0.6,100.0,standard,41.0,1.0,1.0,
538,20.0,decreament,0.6,100.0,standard,41.0,1.0,1.0,
539,20.0,decreament,0.6,100.0,standard,41.0,1.0,0.0,1.8288272998761383
540,20.0,increament,0.6,100.0,standard,45.0,1.0,1.0,
541,20.0,increament,0.6,100.0,standard,45.0,1.0,1.0,
542,20.0,increament,0.6,100.0,standard,45.0,1.0,1.0,
543,20.0,increament,0.6,100.0,standard,45.0,1.0,1.0,
544,20.0,increament,0.6,100.0,standard,45.0,1.0,1.0,
545,20.0,increament,0.6,100.0,standard,45.0,1.0,1.0,
546,20.0,increament,0.6,100.0,standard,45.0,1.0,1.0,
547,20.0,increament,0.6,100.0,standard,45.0,1.0,1.0,
548,20.0,increament,0.6,100.0,standard,45.0,1.0,1.0,
549,20.0,increament,0.6,100.0,standard,45.0,1.0,1.0,
550,20.0,increament,0.84,140.0,oddball,47.0,1.0,0.0,
551,20.0,increament,0.6,100.0,standard,45.0,1.0,1.0,
552,20.0,increament,0.6,100.0,standard,45.0,1.0,1.0,
553,20.0,increament,0.6,100.0,standard,45.0,1.0,1.0,
554,20.0,increament,0.6,100.0,standard,45.0,1.0,1.0,
555,20.0,increament,0.6,100.0,standard,45.0,1.0,1.0,
556,20.0,increament,0.6,100.0,standard,45.0,1.0,1.0,
557,20.0,increament,0.6,100.0,standard,45.0,1.0,1.0,
558,20.0,increament,0.6,100.0,standard,45.0,1.0,1.0,
559,20.0,increament,0.6,100.0,standard,45.0,1.0,1.0,
560,20.0,increament,0.72,120.0,oddball,46.0,1.0,1.0,0.4905707000289112
561,20.0,increament,0.6,100.0,standard,45.0,1.0,1.0,
562,20.0,increament,0.6,100.0,standard,45.0,1.0,1.0,
563,20.0,increament,0.6,100.0,standard,45.0,1.0,1.0,
564,20.0,increament,0.6,100.0,standard,45.0,1.0,1.0,
565,20.0,increament,0.6,100.0,standard,45.0,1.0,1.0,
566,20.0,increament,0.6,100.0,standard,45.0,1.0,1.0,
567,20.0,increament,0.96,160.0,oddball,48.0,1.0,0.0,
568,20.0,increament,0.6,100.0,standard,45.0,1.0,1.0,
569,20.0,increament,0.6,100.0,standard,45.0,1.0,1.0,
570,20.0,decreament,0.6,100.0,standard,41.0,1.0,1.0,
571,20.0,decreament,0.6,100.0,standard,41.0,1.0,1.0,
572,20.0,decreament,0.6,100.0,standard,41.0,1.0,1.0,
573,20.0,decreament,0.6,100.0,standard,41.0,1.0,1.0,
574,20.0,decreament,0.6,100.0,standard,41.0,1.0,1.0,
575,20.0,decreament,0.6,100.0,standard,41.0,1.0,0.0,1.167967800050974
576,20.0,decreament,0.24,40.0,oddball,42.0,1.0,1.0,0.8146095999982208
577,20.0,decreament,0.6,100.0,standard,41.0,1.0,1.0,
578,20.0,decreament,0.6,100.0,standard,41.0,1.0,1.0,
579,20.0,decreament,0.6,100.0,standard,41.0,1.0,1.0,
580,20.0,decreament,0.6,100.0,standard,41.0,1.0,1.0,
581,20.0,decreament,0.6,100.0,standard,41.0,1.0,1.0,
582,20.0,decreament,0.6,100.0,standard,41.0,1.0,1.0,
583,20.0,decreament,0.6,100.0,standard,41.0,1.0,1.0,
584,20.0,decreament,0.6,100.0,standard,41.0,1.0,1.0,
585,20.0,decreament,0.36,60.0,oddball,43.0,1.0,0.0,
586,20.0,decreament,0.6,100.0,standard,41.0,1.0,1.0,
587,20.0,decreament,0.6,100.0,standard,41.0,1.0,1.0,
588,20.0,decreament,0.6,100.0,standard,41.0,1.0,1.0,
589,20.0,decreament,0.6,100.0,standard,41.0,1.0,1.0,
590,20.0,decreament,0.6,100.0,standard,41.0,1.0,1.0,
591,20.0,decreament,0.6,100.0,standard,41.0,1.0,1.0,
592,20.0,decreament,0.6,100.0,standard,41.0,1.0,1.0,
593,20.0,decreament,0.6,100.0,standard,41.0,1.0,1.0,
594,20.0,decreament,0.6,100.0,standard,41.0,1.0,1.0,
595,20.0,decreament,0.6,100.0,standard,41.0,1.0,1.0,
596,20.0,decreament,0.6,100.0,standard,41.0,1.0,1.0,
597,20.0,decreament,0.6,100.0,standard,41.0,1.0,1.0,
598,20.0,decreament,0.6,100.0,standard,41.0,1.0,1.0,
599,20.0,decreament,0.48,80.0,oddball,44.0,1.0,0.0,
600,5.0,increament,0.6,100.0,standard,15.0,2.0,1.0,
601,5.0,increament,0.6,100.0,standard,15.0,2.0,1.0,
602,5.0,increament,0.6,100.0,standard,15.0,2.0,1.0,
603,5.0,increament,0.6,100.0,standard,15.0,2.0,1.0,
604,5.0,increament,0.6,100.0,standard,15.0,2.0,1.0,
605,5.0,increament,0.72,120.0,oddball,16.0,2.0,0.0,
606,5.0,increament,0.6,100.0,standard,15.0,2.0,1.0,
607,5.0,increament,0.6,100.0,standard,15.0,2.0,1.0,
608,5.0,increament,0.6,100.0,standard,15.0,2.0,1.0,
609,5.0,increament,0.6,100.0,standard,15.0,2.0,1.0,
610,5.0,increament,0.6,100.0,standard,15.0,2.0,1.0,
611,5.0,increament,0.6,100.0,standard,15.0,2.0,1.0,
612,5.0,increament,0.6,100.0,standard,15.0,2.0,1.0,
613,5.0,increament,0.6,100.0,standard,15.0,2.0,1.0,
614,5.0,increament,0.6,100.0,standard,15.0,2.0,1.0,
615,5.0,increament,0.84,140.0,oddball,17.0,2.0,0.0,
616,5.0,increament,0.6,100.0,standard,15.0,2.0,1.0,
617,5.0,increament,0.6,100.0,standard,15.0,2.0,1.0,
618,5.0,increament,0.6,100.0,standard,15.0,2.0,1.0,
619,5.0,increament,0.6,100.0,standard,15.0,2.0,1.0,
620,5.0,increament,0.6,100.0,standard,15.0,2.0,1.0,
621,5.0,increament,0.6,100.0,standard,15.0,2.0,1.0,
622,5.0,increament,0.96,160.0,oddball,18.0,2.0,1.0,0.3828883999958634
623,5.0,increament,0.6,100.0,standard,15.0,2.0,1.0,
624,5.0,increament,0.6,100.0,standard,15.0,2.0,1.0,
625,5.0,increament,0.6,100.0,standard,15.0,2.0,1.0,
626,5.0,increament,0.6,100.0,standard,15.0,2.0,1.0,
627,5.0,increament,0.6,100.0,standard,15.0,2.0,1.0,
628,5.0,increament,0.6,100.0,standard,15.0,2.0,1.0,
629,5.0,increament,0.6,100.0,standard,15.0,2.0,1.0,
630,5.0,decreament,0.6,100.0,standard,11.0,2.0,1.0,
631,5.0,decreament,0.6,100.0,standard,11.0,2.0,1.0,
632,5.0,decreament,0.6,100.0,standard,11.0,2.0,1.0,
633,5.0,decreament,0.6,100.0,standard,11.0,2.0,1.0,
634,5.0,decreament,0.6,100.0,standard,11.0,2.0,1.0,
635,5.0,decreament,0.6,100.0,standard,11.0,2.0,1.0,
636,5.0,decreament,0.6,100.0,standard,11.0,2.0,1.0,
637,5.0,decreament,0.6,100.0,standard,11.0,2.0,1.0,
638,5.0,decreament,0.6,100.0,standard,11.0,2.0,1.0,
639,5.0,decreament,0.6,100.0,standard,11.0,2.0,1.0,
640,5.0,decreament,0.24,40.0,oddball,12.0,2.0,1.0,0.8839017001446337
641,5.0,decreament,0.6,100.0,standard,11.0,2.0,1.0,
642,5.0,decreament,0.6,100.0,standard,11.0,2.0,1.0,
643,5.0,decreament,0.6,100.0,standard,11.0,2.0,1.0,
644,5.0,decreament,0.48,80.0,oddball,14.0,2.0,0.0,
645,5.0,decreament,0.6,100.0,standard,11.0,2.0,1.0,
646,5.0,decreament,0.6,100.0,standard,11.0,2.0,1.0,
647,5.0,decreament,0.6,100.0,standard,11.0,2.0,1.0,
648,5.0,decreament,0.6,100.0,standard,11.0,2.0,1.0,
649,5.0,decreament,0.6,100.0,standard,11.0,2.0,1.0,
650,5.0,decreament,0.6,100.0,standard,11.0,2.0,1.0,
651,5.0,decreament,0.6,100.0,standard,11.0,2.0,1.0,
652,5.0,decreament,0.6,100.0,standard,11.0,2.0,1.0,
653,5.0,decreament,0.6,100.0,standard,11.0,2.0,1.0,
654,5.0,decreament,0.6,100.0,standard,11.0,2.0,1.0,
655,5.0,decreament,0.6,100.0,standard,11.0,2.0,1.0,
656,5.0,decreament,0.36,60.0,oddball,13.0,2.0,1.0,0.8281094001140445
657,5.0,decreament,0.6,100.0,standard,11.0,2.0,1.0,
658,5.0,decreament,0.6,100.0,standard,11.0,2.0,1.0,
659,5.0,decreament,0.6,100.0,standard,11.0,2.0,1.0,
660,5.0,increament,0.6,100.0,standard,15.0,2.0,1.0,
661,5.0,increament,0.6,100.0,standard,15.0,2.0,1.0,
662,5.0,increament,0.6,100.0,standard,15.0,2.0,1.0,
663,5.0,increament,0.6,100.0,standard,15.0,2.0,1.0,
664,5.0,increament,0.6,100.0,standard,15.0,2.0,1.0,
665,5.0,increament,0.72,120.0,oddball,16.0,2.0,0.0,
666,5.0,increament,0.6,100.0,standard,15.0,2.0,1.0,
667,5.0,increament,0.6,100.0,standard,15.0,2.0,1.0,
668,5.0,increament,0.6,100.0,standard,15.0,2.0,1.0,
669,5.0,increament,0.6,100.0,standard,15.0,2.0,1.0,
670,5.0,increament,0.6,100.0,standard,15.0,2.0,1.0,
671,5.0,increament,0.6,100.0,standard,15.0,2.0,1.0,
672,5.0,increament,0.6,100.0,standard,15.0,2.0,1.0,
673,5.0,increament,0.6,100.0,standard,15.0,2.0,1.0,
674,5.0,increament,0.6,100.0,standard,15.0,2.0,1.0,
675,5.0,increament,0.6,100.0,standard,15.0,2.0,1.0,
676,5.0,increament,0.6,100.0,standard,15.0,2.0,1.0,
677,5.0,increament,0.6,100.0,standard,15.0,2.0,1.0,
678,5.0,increament,0.6,100.0,standard,15.0,2.0,1.0,
679,5.0,increament,0.84,140.0,oddball,17.0,2.0,1.0,0.6302322999108583
680,5.0,increament,0.6,100.0,standard,15.0,2.0,1.0,
681,5.0,increament,0.6,100.0,standard,15.0,2.0,1.0,
682,5.0,increament,0.6,100.0,standard,15.0,2.0,1.0,
683,5.0,increament,0.6,100.0,standard,15.0,2.0,1.0,
684,5.0,increament,0.6,100.0,standard,15.0,2.0,1.0,
685,5.0,increament,0.6,100.0,standard,15.0,2.0,1.0,
686,5.0,increament,0.96,160.0,oddball,18.0,2.0,1.0,0.6676707998849452
687,5.0,increament,0.6,100.0,standard,15.0,2.0,1.0,
688,5.0,increament,0.6,100.0,standard,15.0,2.0,1.0,
689,5.0,increament,0.6,100.0,standard,15.0,2.0,0.0,0.965129799908027
690,5.0,decreament,0.6,100.0,standard,11.0,2.0,1.0,
691,5.0,decreament,0.6,100.0,standard,11.0,2.0,1.0,
692,5.0,decreament,0.6,100.0,standard,11.0,2.0,1.0,
693,5.0,decreament,0.6,100.0,standard,11.0,2.0,1.0,
694,5.0,decreament,0.6,100.0,standard,11.0,2.0,1.0,
695,5.0,decreament,0.6,100.0,standard,11.0,2.0,1.0,
696,5.0,decreament,0.6,100.0,standard,11.0,2.0,1.0,
697,5.0,decreament,0.6,100.0,standard,11.0,2.0,1.0,
698,5.0,decreament,0.6,100.0,standard,11.0,2.0,1.0,
699,5.0,decreament,0.48,80.0,oddball,14.0,2.0,0.0,
700,5.0,decreament,0.6,100.0,standard,11.0,2.0,1.0,
701,5.0,decreament,0.6,100.0,standard,11.0,2.0,1.0,
702,5.0,decreament,0.6,100.0,standard,11.0,2.0,1.0,
703,5.0,decreament,0.6,100.0,standard,11.0,2.0,1.0,
704,5.0,decreament,0.36,60.0,oddball,13.0,2.0,1.0,1.046506900107488
705,5.0,decreament,0.6,100.0,standard,11.0,2.0,1.0,
706,5.0,decreament,0.6,100.0,standard,11.0,2.0,1.0,
707,5.0,decreament,0.6,100.0,standard,11.0,2.0,1.0,
708,5.0,decreament,0.6,100.0,standard,11.0,2.0,1.0,
709,5.0,decreament,0.6,100.0,standard,11.0,2.0,1.0,
710,5.0,decreament,0.6,100.0,standard,11.0,2.0,1.0,
711,5.0,decreament,0.6,100.0,standard,11.0,2.0,1.0,
712,5.0,decreament,0.6,100.0,standard,11.0,2.0,1.0,
713,5.0,decreament,0.6,100.0,standard,11.0,2.0,1.0,
714,5.0,decreament,0.6,100.0,standard,11.0,2.0,1.0,
715,5.0,decreament,0.6,100.0,standard,11.0,2.0,1.0,
716,5.0,decreament,0.6,100.0,standard,11.0,2.0,1.0,
717,5.0,decreament,0.6,100.0,standard,11.0,2.0,1.0,
718,5.0,decreament,0.6,100.0,standard,11.0,2.0,1.0,
719,5.0,decreament,0.24,40.0,oddball,12.0,2.0,0.0,
720,5.0,increament,0.6,100.0,standard,15.0,2.0,1.0,
721,5.0,increament,0.6,100.0,standard,15.0,2.0,1.0,
722,5.0,increament,0.6,100.0,standard,15.0,2.0,1.0,
723,5.0,increament,0.6,100.0,standard,15.0,2.0,1.0,
724,5.0,increament,0.6,100.0,standard,15.0,2.0,1.0,
725,5.0,increament,0.6,100.0,standard,15.0,2.0,1.0,
726,5.0,increament,0.6,100.0,standard,15.0,2.0,1.0,
727,5.0,increament,0.6,100.0,standard,15.0,2.0,1.0,
728,5.0,increament,0.6,100.0,standard,15.0,2.0,0.0,0.9174875998869538
729,5.0,increament,0.6,100.0,standard,15.0,2.0,1.0,
730,5.0,increament,0.6,100.0,standard,15.0,2.0,1.0,
731,5.0,increament,0.96,160.0,oddball,18.0,2.0,0.0,
732,5.0,increament,0.6,100.0,standard,15.0,2.0,1.0,
733,5.0,increament,0.6,100.0,standard,15.0,2.0,1.0,
734,5.0,increament,0.6,100.0,standard,15.0,2.0,1.0,
735,5.0,increament,0.72,120.0,oddball,16.0,2.0,0.0,
736,5.0,increament,0.6,100.0,standard,15.0,2.0,1.0,
737,5.0,increament,0.6,100.0,standard,15.0,2.0,1.0,
738,5.0,increament,0.6,100.0,standard,15.0,2.0,1.0,
739,5.0,increament,0.6,100.0,standard,15.0,2.0,1.0,
740,5.0,increament,0.6,100.0,standard,15.0,2.0,1.0,
741,5.0,increament,0.6,100.0,standard,15.0,2.0,1.0,
742,5.0,increament,0.6,100.0,standard,15.0,2.0,1.0,
743,5.0,increament,0.84,140.0,oddball,17.0,2.0,1.0,0.5163049998227507
744,5.0,increament,0.6,100.0,standard,15.0,2.0,1.0,
745,5.0,increament,0.6,100.0,standard,15.0,2.0,1.0,
746,5.0,increament,0.6,100.0,standard,15.0,2.0,1.0,
747,5.0,increament,0.6,100.0,standard,15.0,2.0,1.0,
748,5.0,increament,0.6,100.0,standard,15.0,2.0,1.0,
749,5.0,increament,0.6,100.0,standard,15.0,2.0,1.0,
750,5.0,decreament,0.6,100.0,standard,11.0,2.0,1.0,
751,5.0,decreament,0.6,100.0,standard,11.0,2.0,1.0,
752,5.0,decreament,0.6,100.0,standard,11.0,2.0,1.0,
753,5.0,decreament,0.6,100.0,standard,11.0,2.0,1.0,
754,5.0,decreament,0.6,100.0,standard,11.0,2.0,1.0,
755,5.0,decreament,0.6,100.0,standard,11.0,2.0,1.0,
756,5.0,decreament,0.6,100.0,standard,11.0,2.0,1.0,
757,5.0,decreament,0.6,100.0,standard,11.0,2.0,1.0,
758,5.0,decreament,0.6,100.0,standard,11.0,2.0,1.0,
759,5.0,decreament,0.6,100.0,standard,11.0,2.0,1.0,
760,5.0,decreament,0.24,40.0,oddball,12.0,2.0,1.0,0.9521385000552982
761,5.0,decreament,0.6,100.0,standard,11.0,2.0,1.0,
762,5.0,decreament,0.6,100.0,standard,11.0,2.0,1.0,
763,5.0,decreament,0.6,100.0,standard,11.0,2.0,1.0,
764,5.0,decreament,0.6,100.0,standard,11.0,2.0,1.0,
765,5.0,decreament,0.6,100.0,standard,11.0,2.0,1.0,
766,5.0,decreament,0.6,100.0,standard,11.0,2.0,1.0,
767,5.0,decreament,0.6,100.0,standard,11.0,2.0,1.0,
768,5.0,decreament,0.6,100.0,standard,11.0,2.0,1.0,
769,5.0,decreament,0.6,100.0,standard,11.0,2.0,1.0,
770,5.0,decreament,0.6,100.0,standard,11.0,2.0,1.0,
771,5.0,decreament,0.6,100.0,standard,11.0,2.0,1.0,
772,5.0,decreament,0.6,100.0,standard,11.0,2.0,1.0,
773,5.0,decreament,0.48,80.0,oddball,14.0,2.0,0.0,
774,5.0,decreament,0.6,100.0,standard,11.0,2.0,1.0,
775,5.0,decreament,0.6,100.0,standard,11.0,2.0,1.0,
776,5.0,decreament,0.6,100.0,standard,11.0,2.0,1.0,
777,5.0,decreament,0.6,100.0,standard,11.0,2.0,1.0,
778,5.0,decreament,0.36,60.0,oddball,13.0,2.0,1.0,1.0243867998942733
779,5.0,decreament,0.6,100.0,standard,11.0,2.0,1.0,
780,5.0,increament,0.6,100.0,standard,15.0,2.0,1.0,
781,5.0,increament,0.6,100.0,standard,15.0,2.0,1.0,
782,5.0,increament,0.6,100.0,standard,15.0,2.0,1.0,
783,5.0,increament,0.6,100.0,standard,15.0,2.0,1.0,
784,5.0,increament,0.6,100.0,standard,15.0,2.0,1.0,
785,5.0,increament,0.6,100.0,standard,15.0,2.0,1.0,
786,5.0,increament,0.6,100.0,standard,15.0,2.0,1.0,
787,5.0,increament,0.6,100.0,standard,15.0,2.0,1.0,
788,5.0,increament,0.6,100.0,standard,15.0,2.0,1.0,
789,5.0,increament,0.6,100.0,standard,15.0,2.0,1.0,
790,5.0,increament,0.84,140.0,oddball,17.0,2.0,1.0,0.675857099937275
791,5.0,increament,0.6,100.0,standard,15.0,2.0,1.0,
792,5.0,increament,0.6,100.0,standard,15.0,2.0,1.0,
793,5.0,increament,0.6,100.0,standard,15.0,2.0,1.0,
794,5.0,increament,0.6,100.0,standard,15.0,2.0,1.0,
795,5.0,increament,0.96,160.0,oddball,18.0,2.0,1.0,0.5317675999831408
796,5.0,increament,0.6,100.0,standard,15.0,2.0,1.0,
797,5.0,increament,0.6,100.0,standard,15.0,2.0,1.0,
798,5.0,increament,0.6,100.0,standard,15.0,2.0,1.0,
799,5.0,increament,0.6,100.0,standard,15.0,2.0,1.0,
800,5.0,increament,0.6,100.0,standard,15.0,2.0,1.0,
801,5.0,increament,0.6,100.0,standard,15.0,2.0,1.0,
802,5.0,increament,0.6,100.0,standard,15.0,2.0,1.0,
803,5.0,increament,0.6,100.0,standard,15.0,2.0,1.0,
804,5.0,increament,0.6,100.0,standard,15.0,2.0,1.0,
805,5.0,increament,0.6,100.0,standard,15.0,2.0,1.0,
806,5.0,increament,0.6,100.0,standard,15.0,2.0,1.0,
807,5.0,increament,0.72,120.0,oddball,16.0,2.0,0.0,
808,5.0,increament,0.6,100.0,standard,15.0,2.0,1.0,
809,5.0,increament,0.6,100.0,standard,15.0,2.0,0.0,1.0177705998066813
810,5.0,decreament,0.6,100.0,standard,11.0,2.0,1.0,
811,5.0,decreament,0.6,100.0,standard,11.0,2.0,1.0,
812,5.0,decreament,0.6,100.0,standard,11.0,2.0,1.0,
813,5.0,decreament,0.6,100.0,standard,11.0,2.0,1.0,
814,5.0,decreament,0.6,100.0,standard,11.0,2.0,1.0,
815,5.0,decreament,0.6,100.0,standard,11.0,2.0,1.0,
816,5.0,decreament,0.6,100.0,standard,11.0,2.0,1.0,
817,5.0,decreament,0.24,40.0,oddball,12.0,2.0,0.0,
818,5.0,decreament,0.6,100.0,standard,11.0,2.0,1.0,
819,5.0,decreament,0.6,100.0,standard,11.0,2.0,1.0,
820,5.0,decreament,0.6,100.0,standard,11.0,2.0,1.0,
821,5.0,decreament,0.6,100.0,standard,11.0,2.0,1.0,
822,5.0,decreament,0.48,80.0,oddball,14.0,2.0,0.0,
823,5.0,decreament,0.6,100.0,standard,11.0,2.0,1.0,
824,5.0,decreament,0.6,100.0,standard,11.0,2.0,1.0,
825,5.0,decreament,0.6,100.0,standard,11.0,2.0,1.0,
826,5.0,decreament,0.6,100.0,standard,11.0,2.0,1.0,
827,5.0,decreament,0.36,60.0,oddball,13.0,2.0,1.0,1.1075234001036731
828,5.0,decreament,0.6,100.0,standard,11.0,2.0,1.0,
829,5.0,decreament,0.6,100.0,standard,11.0,2.0,1.0,
830,5.0,decreament,0.6,100.0,standard,11.0,2.0,1.0,
831,5.0,decreament,0.6,100.0,standard,11.0,2.0,1.0,
832,5.0,decreament,0.6,100.0,standard,11.0,2.0,1.0,
833,5.0,decreament,0.6,100.0,standard,11.0,2.0,1.0,
834,5.0,decreament,0.6,100.0,standard,11.0,2.0,1.0,
835,5.0,decreament,0.6,100.0,standard,11.0,2.0,1.0,
836,5.0,decreament,0.6,100.0,standard,11.0,2.0,1.0,
837,5.0,decreament,0.6,100.0,standard,11.0,2.0,1.0,
838,5.0,decreament,0.6,100.0,standard,11.0,2.0,1.0,
839,5.0,decreament,0.6,100.0,standard,11.0,2.0,1.0,
840,5.0,increament,0.6,100.0,standard,15.0,2.0,1.0,
841,5.0,increament,0.6,100.0,standard,15.0,2.0,1.0,
842,5.0,increament,0.6,100.0,standard,15.0,2.0,1.0,
843,5.0,increament,0.6,100.0,standard,15.0,2.0,1.0,
844,5.0,increament,0.6,100.0,standard,15.0,2.0,1.0,
845,5.0,increament,0.6,100.0,standard,15.0,2.0,1.0,
846,5.0,increament,0.84,140.0,oddball,17.0,2.0,0.0,
847,5.0,increament,0.6,100.0,standard,15.0,2.0,1.0,
848,5.0,increament,0.6,100.0,standard,15.0,2.0,1.0,
849,5.0,increament,0.6,100.0,standard,15.0,2.0,0.0,0.6440419000573456
850,5.0,increament,0.6,100.0,standard,15.0,2.0,1.0,
851,5.0,increament,0.6,100.0,standard,15.0,2.0,1.0,
852,5.0,increament,0.6,100.0,standard,15.0,2.0,1.0,
853,5.0,increament,0.6,100.0,standard,15.0,2.0,1.0,
854,5.0,increament,0.6,100.0,standard,15.0,2.0,1.0,
855,5.0,increament,0.6,100.0,standard,15.0,2.0,1.0,
856,5.0,increament,0.6,100.0,standard,15.0,2.0,1.0,
857,5.0,increament,0.6,100.0,standard,15.0,2.0,1.0,
858,5.0,increament,0.6,100.0,standard,15.0,2.0,1.0,
859,5.0,increament,0.96,160.0,oddball,18.0,2.0,1.0,0.4557552998885512
860,5.0,increament,0.6,100.0,standard,15.0,2.0,1.0,
861,5.0,increament,0.6,100.0,standard,15.0,2.0,1.0,
862,5.0,increament,0.6,100.0,standard,15.0,2.0,1.0,
863,5.0,increament,0.6,100.0,standard,15.0,2.0,1.0,
864,5.0,increament,0.6,100.0,standard,15.0,2.0,1.0,
865,5.0,increament,0.6,100.0,standard,15.0,2.0,1.0,
866,5.0,increament,0.6,100.0,standard,15.0,2.0,1.0,
867,5.0,increament,0.6,100.0,standard,15.0,2.0,1.0,
868,5.0,increament,0.72,120.0,oddball,16.0,2.0,0.0,
869,5.0,increament,0.6,100.0,standard,15.0,2.0,1.0,
870,5.0,decreament,0.6,100.0,standard,11.0,2.0,1.0,
871,5.0,decreament,0.6,100.0,standard,11.0,2.0,1.0,
872,5.0,decreament,0.6,100.0,standard,11.0,2.0,1.0,
873,5.0,decreament,0.6,100.0,standard,11.0,2.0,1.0,
874,5.0,decreament,0.6,100.0,standard,11.0,2.0,1.0,
875,5.0,decreament,0.6,100.0,standard,11.0,2.0,1.0,
876,5.0,decreament,0.6,100.0,standard,11.0,2.0,1.0,
877,5.0,decreament,0.6,100.0,standard,11.0,2.0,1.0,
878,5.0,decreament,0.6,100.0,standard,11.0,2.0,1.0,
879,5.0,decreament,0.6,100.0,standard,11.0,2.0,1.0,
880,5.0,decreament,0.24,40.0,oddball,12.0,2.0,1.0,0.5188945999834687
881,5.0,decreament,0.6,100.0,standard,11.0,2.0,1.0,
882,5.0,decreament,0.6,100.0,standard,11.0,2.0,1.0,
883,5.0,decreament,0.6,100.0,standard,11.0,2.0,1.0,
884,5.0,decreament,0.6,100.0,standard,11.0,2.0,1.0,
885,5.0,decreament,0.6,100.0,standard,11.0,2.0,1.0,
886,5.0,decreament,0.6,100.0,standard,11.0,2.0,1.0,
887,5.0,decreament,0.48,80.0,oddball,14.0,2.0,0.0,
888,5.0,decreament,0.6,100.0,standard,11.0,2.0,1.0,
889,5.0,decreament,0.6,100.0,standard,11.0,2.0,1.0,
890,5.0,decreament,0.6,100.0,standard,11.0,2.0,1.0,
891,5.0,decreament,0.6,100.0,standard,11.0,2.0,1.0,
892,5.0,decreament,0.6,100.0,standard,11.0,2.0,1.0,
893,5.0,decreament,0.6,100.0,standard,11.0,2.0,1.0,
894,5.0,decreament,0.6,100.0,standard,11.0,2.0,1.0,
895,5.0,decreament,0.6,100.0,standard,11.0,2.0,1.0,
896,5.0,decreament,0.6,100.0,standard,11.0,2.0,1.0,
897,5.0,decreament,0.36,60.0,oddball,13.0,2.0,1.0,0.8402579999528825
898,5.0,decreament,0.6,100.0,standard,11.0,2.0,1.0,
899,5.0,decreament,0.6,100.0,standard,11.0,2.0,1.0,
900,10.0,increament,0.6,100.0,standard,25.0,3.0,1.0,
901,10.0,increament,0.6,100.0,standard,25.0,3.0,1.0,
902,10.0,increament,0.6,100.0,standard,25.0,3.0,1.0,
903,10.0,increament,0.6,100.0,standard,25.0,3.0,1.0,
904,10.0,increament,0.6,100.0,standard,25.0,3.0,1.0,
905,10.0,increament,0.6,100.0,standard,25.0,3.0,1.0,
906,10.0,increament,0.6,100.0,standard,25.0,3.0,1.0,
907,10.0,increament,0.72,120.0,oddball,26.0,3.0,0.0,
908,10.0,increament,0.6,100.0,standard,25.0,3.0,1.0,
909,10.0,increament,0.6,100.0,standard,25.0,3.0,1.0,
910,10.0,increament,0.6,100.0,standard,25.0,3.0,1.0,
911,10.0,increament,0.6,100.0,standard,25.0,3.0,1.0,
912,10.0,increament,0.6,100.0,standard,25.0,3.0,1.0,
913,10.0,increament,0.6,100.0,standard,25.0,3.0,1.0,
914,10.0,increament,0.6,100.0,standard,25.0,3.0,1.0,
915,10.0,increament,0.6,100.0,standard,25.0,3.0,1.0,
916,10.0,increament,0.6,100.0,standard,25.0,3.0,1.0,
917,10.0,increament,0.96,160.0,oddball,28.0,3.0,0.0,
918,10.0,increament,0.6,100.0,standard,25.0,3.0,1.0,
919,10.0,increament,0.6,100.0,standard,25.0,3.0,1.0,
920,10.0,increament,0.6,100.0,standard,25.0,3.0,1.0,
921,10.0,increament,0.84,140.0,oddball,27.0,3.0,1.0,0.3870319998823106
922,10.0,increament,0.6,100.0,standard,25.0,3.0,1.0,
923,10.0,increament,0.6,100.0,standard,25.0,3.0,1.0,
924,10.0,increament,0.6,100.0,standard,25.0,3.0,1.0,
925,10.0,increament,0.6,100.0,standard,25.0,3.0,1.0,
926,10.0,increament,0.6,100.0,standard,25.0,3.0,1.0,
927,10.0,increament,0.6,100.0,standard,25.0,3.0,1.0,
928,10.0,increament,0.6,100.0,standard,25.0,3.0,1.0,
929,10.0,increament,0.6,100.0,standard,25.0,3.0,1.0,
930,10.0,decreament,0.6,100.0,standard,21.0,3.0,1.0,
931,10.0,decreament,0.6,100.0,standard,21.0,3.0,1.0,
932,10.0,decreament,0.6,100.0,standard,21.0,3.0,1.0,
933,10.0,decreament,0.6,100.0,standard,21.0,3.0,1.0,
934,10.0,decreament,0.6,100.0,standard,21.0,3.0,1.0,
935,10.0,decreament,0.36,60.0,oddball,23.0,3.0,1.0,0.8407869001384825
936,10.0,decreament,0.6,100.0,standard,21.0,3.0,1.0,
937,10.0,decreament,0.6,100.0,standard,21.0,3.0,1.0,
938,10.0,decreament,0.6,100.0,standard,21.0,3.0,1.0,
939,10.0,decreament,0.6,100.0,standard,21.0,3.0,1.0,
940,10.0,decreament,0.6,100.0,standard,21.0,3.0,1.0,
941,10.0,decreament,0.6,100.0,standard,21.0,3.0,1.0,
942,10.0,decreament,0.6,100.0,standard,21.0,3.0,1.0,
943,10.0,decreament,0.6,100.0,standard,21.0,3.0,1.0,
944,10.0,decreament,0.6,100.0,standard,21.0,3.0,1.0,
945,10.0,decreament,0.6,100.0,standard,21.0,3.0,1.0,
946,10.0,decreament,0.6,100.0,standard,21.0,3.0,1.0,
947,10.0,decreament,0.24,40.0,oddball,22.0,3.0,0.0,
948,10.0,decreament,0.6,100.0,standard,21.0,3.0,1.0,
949,10.0,decreament,0.6,100.0,standard,21.0,3.0,1.0,
950,10.0,decreament,0.6,100.0,standard,21.0,3.0,1.0,
951,10.0,decreament,0.6,100.0,standard,21.0,3.0,1.0,
952,10.0,decreament,0.6,100.0,standard,21.0,3.0,1.0,
953,10.0,decreament,0.6,100.0,standard,21.0,3.0,1.0,
954,10.0,decreament,0.6,100.0,standard,21.0,3.0,1.0,
955,10.0,decreament,0.48,80.0,oddball,24.0,3.0,1.0,0.6630883000325412
956,10.0,decreament,0.6,100.0,standard,21.0,3.0,1.0,
957,10.0,decreament,0.6,100.0,standard,21.0,3.0,1.0,
958,10.0,decreament,0.6,100.0,standard,21.0,3.0,1.0,
959,10.0,decreament,0.6,100.0,standard,21.0,3.0,1.0,
960,10.0,increament,0.6,100.0,standard,25.0,3.0,1.0,
961,10.0,increament,0.6,100.0,standard,25.0,3.0,1.0,
962,10.0,increament,0.6,100.0,standard,25.0,3.0,1.0,
963,10.0,increament,0.6,100.0,standard,25.0,3.0,1.0,
964,10.0,increament,0.6,100.0,standard,25.0,3.0,1.0,
965,10.0,increament,0.6,100.0,standard,25.0,3.0,1.0,
966,10.0,increament,0.84,140.0,oddball,27.0,3.0,0.0,
967,10.0,increament,0.6,100.0,standard,25.0,3.0,1.0,
968,10.0,increament,0.6,100.0,standard,25.0,3.0,1.0,
969,10.0,increament,0.6,100.0,standard,25.0,3.0,1.0,
970,10.0,increament,0.96,160.0,oddball,28.0,3.0,1.0,0.77090990007855
971,10.0,increament,0.6,100.0,standard,25.0,3.0,1.0,
972,10.0,increament,0.6,100.0,standard,25.0,3.0,1.0,
973,10.0,increament,0.6,100.0,standard,25.0,3.0,1.0,
974,10.0,increament,0.6,100.0,standard,25.0,3.0,1.0,
975,10.0,increament,0.6,100.0,standard,25.0,3.0,1.0,
976,10.0,increament,0.6,100.0,standard,25.0,3.0,1.0,
977,10.0,increament,0.6,100.0,standard,25.0,3.0,1.0,
978,10.0,increament,0.6,100.0,standard,25.0,3.0,1.0,
979,10.0,increament,0.6,100.0,standard,25.0,3.0,1.0,
980,10.0,increament,0.6,100.0,standard,25.0,3.0,1.0,
981,10.0,increament,0.6,100.0,standard,25.0,3.0,0.0,0.7049416000954807
982,10.0,increament,0.6,100.0,standard,25.0,3.0,1.0,
983,10.0,increament,0.6,100.0,standard,25.0,3.0,0.0,0.6310278999153525
984,10.0,increament,0.72,120.0,oddball,26.0,3.0,1.0,0.913753200089559
985,10.0,increament,0.6,100.0,standard,25.0,3.0,1.0,
986,10.0,increament,0.6,100.0,standard,25.0,3.0,1.0,
987,10.0,increament,0.6,100.0,standard,25.0,3.0,1.0,
988,10.0,increament,0.6,100.0,standard,25.0,3.0,1.0,
989,10.0,increament,0.6,100.0,standard,25.0,3.0,1.0,
990,10.0,decreament,0.6,100.0,standard,21.0,3.0,1.0,
991,10.0,decreament,0.6,100.0,standard,21.0,3.0,1.0,
992,10.0,decreament,0.6,100.0,standard,21.0,3.0,1.0,
993,10.0,decreament,0.6,100.0,standard,21.0,3.0,1.0,
994,10.0,decreament,0.6,100.0,standard,21.0,3.0,1.0,
995,10.0,decreament,0.6,100.0,standard,21.0,3.0,1.0,
996,10.0,decreament,0.6,100.0,standard,21.0,3.0,1.0,
997,10.0,decreament,0.6,100.0,standard,21.0,3.0,1.0,
998,10.0,decreament,0.48,80.0,oddball,24.0,3.0,0.0,
999,10.0,decreament,0.6,100.0,standard,21.0,3.0,1.0,
1000,10.0,decreament,0.6,100.0,standard,21.0,3.0,1.0,
1001,10.0,decreament,0.6,100.0,standard,21.0,3.0,1.0,
1002,10.0,decreament,0.6,100.0,standard,21.0,3.0,1.0,
1003,10.0,decreament,0.6,100.0,standard,21.0,3.0,1.0,
1004,10.0,decreament,0.6,100.0,standard,21.0,3.0,1.0,
1005,10.0,decreament,0.6,100.0,standard,21.0,3.0,1.0,
1006,10.0,decreament,0.6,100.0,standard,21.0,3.0,1.0,
1007,10.0,decreament,0.6,100.0,standard,21.0,3.0,1.0,
1008,10.0,decreament,0.36,60.0,oddball,23.0,3.0,1.0,0.691152699990198
1009,10.0,decreament,0.6,100.0,standard,21.0,3.0,1.0,
1010,10.0,decreament,0.6,100.0,standard,21.0,3.0,1.0,
1011,10.0,decreament,0.6,100.0,standard,21.0,3.0,1.0,
1012,10.0,decreament,0.6,100.0,standard,21.0,3.0,1.0,
1013,10.0,decreament,0.6,100.0,standard,21.0,3.0,1.0,
1014,10.0,decreament,0.6,100.0,standard,21.0,3.0,1.0,
1015,10.0,decreament,0.6,100.0,standard,21.0,3.0,1.0,
1016,10.0,decreament,0.6,100.0,standard,21.0,3.0,1.0,
1017,10.0,decreament,0.24,40.0,oddball,22.0,3.0,1.0,0.768621499883011
1018,10.0,decreament,0.6,100.0,standard,21.0,3.0,1.0,
1019,10.0,decreament,0.6,100.0,standard,21.0,3.0,1.0,
1020,10.0,increament,0.6,100.0,standard,25.0,3.0,1.0,
1021,10.0,increament,0.6,100.0,standard,25.0,3.0,1.0,
1022,10.0,increament,0.6,100.0,standard,25.0,3.0,1.0,
1023,10.0,increament,0.6,100.0,standard,25.0,3.0,1.0,
1024,10.0,increament,0.6,100.0,standard,25.0,3.0,1.0,
1025,10.0,increament,0.6,100.0,standard,25.0,3.0,1.0,
1026,10.0,increament,0.6,100.0,standard,25.0,3.0,1.0,
1027,10.0,increament,0.6,100.0,standard,25.0,3.0,1.0,
1028,10.0,increament,0.6,100.0,standard,25.0,3.0,1.0,
1029,10.0,increament,0.6,100.0,standard,25.0,3.0,1.0,
1030,10.0,increament,0.6,100.0,standard,25.0,3.0,1.0,
1031,10.0,increament,0.6,100.0,standard,25.0,3.0,1.0,
1032,10.0,increament,0.96,160.0,oddball,28.0,3.0,1.0,0.3934428000357002
1033,10.0,increament,0.6,100.0,standard,25.0,3.0,1.0,
1034,10.0,increament,0.6,100.0,standard,25.0,3.0,1.0,
1035,10.0,increament,0.6,100.0,standard,25.0,3.0,1.0,
1036,10.0,increament,0.84,140.0,oddball,27.0,3.0,0.0,
1037,10.0,increament,0.6,100.0,standard,25.0,3.0,1.0,
1038,10.0,increament,0.6,100.0,standard,25.0,3.0,1.0,
1039,10.0,increament,0.6,100.0,standard,25.0,3.0,1.0,
1040,10.0,increament,0.6,100.0,standard,25.0,3.0,1.0,
1041,10.0,increament,0.6,100.0,standard,25.0,3.0,1.0,
1042,10.0,increament,0.6,100.0,standard,25.0,3.0,1.0,
1043,10.0,increament,0.6,100.0,standard,25.0,3.0,1.0,
1044,10.0,increament,0.6,100.0,standard,25.0,3.0,1.0,
1045,10.0,increament,0.6,100.0,standard,25.0,3.0,1.0,
1046,10.0,increament,0.6,100.0,standard,25.0,3.0,1.0,
1047,10.0,increament,0.6,100.0,standard,25.0,3.0,0.0,0.7623566999100149
1048,10.0,increament,0.72,120.0,oddball,26.0,3.0,0.0,
1049,10.0,increament,0.6,100.0,standard,25.0,3.0,1.0,
1050,10.0,decreament,0.6,100.0,standard,21.0,3.0,1.0,
1051,10.0,decreament,0.6,100.0,standard,21.0,3.0,1.0,
1052,10.0,decreament,0.6,100.0,standard,21.0,3.0,1.0,
1053,10.0,decreament,0.6,100.0,standard,21.0,3.0,1.0,
1054,10.0,decreament,0.6,100.0,standard,21.0,3.0,1.0,
1055,10.0,decreament,0.6,100.0,standard,21.0,3.0,1.0,
1056,10.0,decreament,0.6,100.0,standard,21.0,3.0,0.0,1.0700111999176445
1057,10.0,decreament,0.6,100.0,standard,21.0,3.0,1.0,
1058,10.0,decreament,0.6,100.0,standard,21.0,3.0,1.0,
1059,10.0,decreament,0.6,100.0,standard,21.0,3.0,1.0,
1060,10.0,decreament,0.6,100.0,standard,21.0,3.0,1.0,
1061,10.0,decreament,0.6,100.0,standard,21.0,3.0,1.0,
1062,10.0,decreament,0.6,100.0,standard,21.0,3.0,1.0,
1063,10.0,decreament,0.6,100.0,standard,21.0,3.0,1.0,
1064,10.0,decreament,0.36,60.0,oddball,23.0,3.0,0.0,
1065,10.0,decreament,0.6,100.0,standard,21.0,3.0,1.0,
1066,10.0,decreament,0.6,100.0,standard,21.0,3.0,1.0,
1067,10.0,decreament,0.6,100.0,standard,21.0,3.0,1.0,
1068,10.0,decreament,0.6,100.0,standard,21.0,3.0,1.0,
1069,10.0,decreament,0.6,100.0,standard,21.0,3.0,1.0,
1070,10.0,decreament,0.6,100.0,standard,21.0,3.0,1.0,
1071,10.0,decreament,0.6,100.0,standard,21.0,3.0,1.0,
1072,10.0,decreament,0.6,100.0,standard,21.0,3.0,1.0,
1073,10.0,decreament,0.6,100.0,standard,21.0,3.0,1.0,
1074,10.0,decreament,0.6,100.0,standard,21.0,3.0,1.0,
1075,10.0,decreament,0.24,40.0,oddball,22.0,3.0,1.0,0.615542400162667
1076,10.0,decreament,0.6,100.0,standard,21.0,3.0,1.0,
1077,10.0,decreament,0.6,100.0,standard,21.0,3.0,1.0,
1078,10.0,decreament,0.6,100.0,standard,21.0,3.0,1.0,
1079,10.0,decreament,0.48,80.0,oddball,24.0,3.0,0.0,
1080,10.0,increament,0.6,100.0,standard,25.0,3.0,1.0,
1081,10.0,increament,0.6,100.0,standard,25.0,3.0,1.0,
1082,10.0,increament,0.6,100.0,standard,25.0,3.0,1.0,
1083,10.0,increament,0.6,100.0,standard,25.0,3.0,1.0,
1084,10.0,increament,0.6,100.0,standard,25.0,3.0,1.0,
1085,10.0,increament,0.6,100.0,standard,25.0,3.0,1.0,
1086,10.0,increament,0.6,100.0,standard,25.0,3.0,1.0,
1087,10.0,increament,0.6,100.0,standard,25.0,3.0,1.0,
1088,10.0,increament,0.6,100.0,standard,25.0,3.0,1.0,
1089,10.0,increament,0.6,100.0,standard,25.0,3.0,1.0,
1090,10.0,increament,0.6,100.0,standard,25.0,3.0,1.0,
1091,10.0,increament,0.72,120.0,oddball,26.0,3.0,0.0,
1092,10.0,increament,0.6,100.0,standard,25.0,3.0,1.0,
1093,10.0,increament,0.6,100.0,standard,25.0,3.0,1.0,
1094,10.0,increament,0.6,100.0,standard,25.0,3.0,1.0,
1095,10.0,increament,0.6,100.0,standard,25.0,3.0,1.0,
1096,10.0,increament,0.96,160.0,oddball,28.0,3.0,0.0,
1097,10.0,increament,0.6,100.0,standard,25.0,3.0,1.0,
1098,10.0,increament,0.6,100.0,standard,25.0,3.0,1.0,
1099,10.0,increament,0.6,100.0,standard,25.0,3.0,1.0,
1100,10.0,increament,0.6,100.0,standard,25.0,3.0,1.0,
1101,10.0,increament,0.84,140.0,oddball,27.0,3.0,0.0,
1102,10.0,increament,0.6,100.0,standard,25.0,3.0,1.0,
1103,10.0,increament,0.6,100.0,standard,25.0,3.0,1.0,
1104,10.0,increament,0.6,100.0,standard,25.0,3.0,1.0,
1105,10.0,increament,0.6,100.0,standard,25.0,3.0,1.0,
1106,10.0,increament,0.6,100.0,standard,25.0,3.0,1.0,
1107,10.0,increament,0.6,100.0,standard,25.0,3.0,1.0,
1108,10.0,increament,0.6,100.0,standard,25.0,3.0,1.0,
1109,10.0,increament,0.6,100.0,standard,25.0,3.0,1.0,
1110,10.0,decreament,0.6,100.0,standard,21.0,3.0,1.0,
1111,10.0,decreament,0.6,100.0,standard,21.0,3.0,1.0,
1112,10.0,decreament,0.6,100.0,standard,21.0,3.0,1.0,
1113,10.0,decreament,0.6,100.0,standard,21.0,3.0,1.0,
1114,10.0,decreament,0.6,100.0,standard,21.0,3.0,1.0,
1115,10.0,decreament,0.6,100.0,standard,21.0,3.0,1.0,
1116,10.0,decreament,0.6,100.0,standard,21.0,3.0,1.0,
1117,10.0,decreament,0.6,100.0,standard,21.0,3.0,1.0,
1118,10.0,decreament,0.6,100.0,standard,21.0,3.0,1.0,
1119,10.0,decreament,0.24,40.0,oddball,22.0,3.0,1.0,1.5740820998325944
1120,10.0,decreament,0.6,100.0,standard,21.0,3.0,1.0,
1121,10.0,decreament,0.6,100.0,standard,21.0,3.0,1.0,
1122,10.0,decreament,0.6,100.0,standard,21.0,3.0,1.0,
1123,10.0,decreament,0.6,100.0,standard,21.0,3.0,1.0,
1124,10.0,decreament,0.6,100.0,standard,21.0,3.0,1.0,
1125,10.0,decreament,0.48,80.0,oddball,24.0,3.0,0.0,
1126,10.0,decreament,0.6,100.0,standard,21.0,3.0,1.0,
1127,10.0,decreament,0.6,100.0,standard,21.0,3.0,1.0,
1128,10.0,decreament,0.6,100.0,standard,21.0,3.0,1.0,
1129,10.0,decreament,0.6,100.0,standard,21.0,3.0,1.0,
1130,10.0,decreament,0.6,100.0,standard,21.0,3.0,1.0,
1131,10.0,decreament,0.6,100.0,standard,21.0,3.0,1.0,
1132,10.0,decreament,0.6,100.0,standard,21.0,3.0,1.0,
1133,10.0,decreament,0.6,100.0,standard,21.0,3.0,1.0,
1134,10.0,decreament,0.6,100.0,standard,21.0,3.0,1.0,
1135,10.0,decreament,0.36,60.0,oddball,23.0,3.0,1.0,0.5742635999340564
1136,10.0,decreament,0.6,100.0,standard,21.0,3.0,1.0,
1137,10.0,decreament,0.6,100.0,standard,21.0,3.0,1.0,
1138,10.0,decreament,0.6,100.0,standard,21.0,3.0,1.0,
1139,10.0,decreament,0.6,100.0,standard,21.0,3.0,1.0,
1140,10.0,increament,0.6,100.0,standard,25.0,3.0,1.0,
1141,10.0,increament,0.6,100.0,standard,25.0,3.0,1.0,
1142,10.0,increament,0.6,100.0,standard,25.0,3.0,1.0,
1143,10.0,increament,0.6,100.0,standard,25.0,3.0,1.0,
1144,10.0,increament,0.6,100.0,standard,25.0,3.0,1.0,
1145,10.0,increament,0.6,100.0,standard,25.0,3.0,1.0,
1146,10.0,increament,0.6,100.0,standard,25.0,3.0,1.0,
1147,10.0,increament,0.6,100.0,standard,25.0,3.0,1.0,
1148,10.0,increament,0.6,100.0,standard,25.0,3.0,1.0,
1149,10.0,increament,0.6,100.0,standard,25.0,3.0,1.0,
1150,10.0,increament,0.72,120.0,oddball,26.0,3.0,0.0,
1151,10.0,increament,0.6,100.0,standard,25.0,3.0,1.0,
1152,10.0,increament,0.6,100.0,standard,25.0,3.0,1.0,
1153,10.0,increament,0.6,100.0,standard,25.0,3.0,1.0,
1154,10.0,increament,0.6,100.0,standard,25.0,3.0,1.0,
1155,10.0,increament,0.6,100.0,standard,25.0,3.0,1.0,
1156,10.0,increament,0.6,100.0,standard,25.0,3.0,1.0,
1157,10.0,increament,0.6,100.0,standard,25.0,3.0,1.0,
1158,10.0,increament,0.96,160.0,oddball,28.0,3.0,0.0,
1159,10.0,increament,0.6,100.0,standard,25.0,3.0,1.0,
1160,10.0,increament,0.6,100.0,standard,25.0,3.0,1.0,
1161,10.0,increament,0.6,100.0,standard,25.0,3.0,1.0,
1162,10.0,increament,0.6,100.0,standard,25.0,3.0,1.0,
1163,10.0,increament,0.6,100.0,standard,25.0,3.0,1.0,
1164,10.0,increament,0.84,140.0,oddball,27.0,3.0,1.0,0.3454890998546034
1165,10.0,increament,0.6,100.0,standard,25.0,3.0,1.0,
1166,10.0,increament,0.6,100.0,standard,25.0,3.0,1.0,
1167,10.0,increament,0.6,100.0,standard,25.0,3.0,1.0,
1168,10.0,increament,0.6,100.0,standard,25.0,3.0,1.0,
1169,10.0,increament,0.6,100.0,standard,25.0,3.0,1.0,
1170,10.0,decreament,0.6,100.0,standard,21.0,3.0,1.0,
1171,10.0,decreament,0.6,100.0,standard,21.0,3.0,1.0,
1172,10.0,decreament,0.6,100.0,standard,21.0,3.0,1.0,
1173,10.0,decreament,0.6,100.0,standard,21.0,3.0,1.0,
1174,10.0,decreament,0.6,100.0,standard,21.0,3.0,1.0,
1175,10.0,decreament,0.6,100.0,standard,21.0,3.0,1.0,
1176,10.0,decreament,0.6,100.0,standard,21.0,3.0,1.0,
1177,10.0,decreament,0.6,100.0,standard,21.0,3.0,1.0,
1178,10.0,decreament,0.6,100.0,standard,21.0,3.0,1.0,
1179,10.0,decreament,0.6,100.0,standard,21.0,3.0,1.0,
1180,10.0,decreament,0.6,100.0,standard,21.0,3.0,1.0,
1181,10.0,decreament,0.6,100.0,standard,21.0,3.0,1.0,
1182,10.0,decreament,0.6,100.0,standard,21.0,3.0,1.0,
1183,10.0,decreament,0.6,100.0,standard,21.0,3.0,1.0,
1184,10.0,decreament,0.6,100.0,standard,21.0,3.0,1.0,
1185,10.0,decreament,0.6,100.0,standard,21.0,3.0,1.0,
1186,10.0,decreament,0.36,60.0,oddball,23.0,3.0,1.0,0.5802557999268174
1187,10.0,decreament,0.6,100.0,standard,21.0,3.0,1.0,
1188,10.0,decreament,0.6,100.0,standard,21.0,3.0,1.0,
1189,10.0,decreament,0.6,100.0,standard,21.0,3.0,1.0,
1190,10.0,decreament,0.24,40.0,oddball,22.0,3.0,1.0,0.8436640000436455
1191,10.0,decreament,0.6,100.0,standard,21.0,3.0,1.0,
1192,10.0,decreament,0.6,100.0,standard,21.0,3.0,1.0,
1193,10.0,decreament,0.6,100.0,standard,21.0,3.0,1.0,
1194,10.0,decreament,0.6,100.0,standard,21.0,3.0,1.0,
1195,10.0,decreament,0.6,100.0,standard,21.0,3.0,1.0,
1196,10.0,decreament,0.48,80.0,oddball,24.0,3.0,1.0,0.6107423000503331
1197,10.0,decreament,0.6,100.0,standard,21.0,3.0,1.0,
1198,10.0,decreament,0.6,100.0,standard,21.0,3.0,1.0,
1199,10.0,decreament,0.6,100.0,standard,21.0,3.0,1.0,
