,grating_freq,direction,duration,scaling,stim_type,trigger,blocks.thisN,resp.corr,resp.rt
0,5.0,increament,0.6,100.0,standard,15.0,0.0,1.0,
1,5.0,increament,0.6,100.0,standard,15.0,0.0,1.0,
2,5.0,increament,0.6,100.0,standard,15.0,0.0,1.0,
3,5.0,increament,0.6,100.0,standard,15.0,0.0,1.0,
4,5.0,increament,0.6,100.0,standard,15.0,0.0,1.0,
5,5.0,increament,0.6,100.0,standard,15.0,0.0,1.0,
6,5.0,increament,0.6,100.0,standard,15.0,0.0,0.0,0.0803950999397784
7,5.0,increament,0.6,100.0,standard,15.0,0.0,1.0,
8,5.0,increament,0.6,100.0,standard,15.0,0.0,1.0,
9,5.0,increament,0.6,100.0,standard,15.0,0.0,1.0,
10,5.0,increament,0.6,100.0,standard,15.0,0.0,1.0,
11,5.0,increament,0.6,100.0,standard,15.0,0.0,1.0,
12,5.0,increament,0.6,100.0,standard,15.0,0.0,1.0,
13,5.0,increament,0.96,160.0,oddball,18.0,0.0,0.0,
14,5.0,increament,0.6,100.0,standard,15.0,0.0,1.0,
15,5.0,increament,0.6,100.0,standard,15.0,0.0,1.0,
16,5.0,increament,0.6,100.0,standard,15.0,0.0,1.0,
17,5.0,increament,0.6,100.0,standard,15.0,0.0,0.0,0.1872147000394761
18,5.0,increament,0.6,100.0,standard,15.0,0.0,0.0,0.1561173999216407
19,5.0,increament,0.6,100.0,standard,15.0,0.0,1.0,
20,5.0,increament,0.6,100.0,standard,15.0,0.0,1.0,
21,5.0,increament,0.84,140.0,oddball,17.0,0.0,0.0,
22,5.0,increament,0.6,100.0,standard,15.0,0.0,1.0,
23,5.0,increament,0.6,100.0,standard,15.0,0.0,1.0,
24,5.0,increament,0.6,100.0,standard,15.0,0.0,1.0,
25,5.0,increament,0.6,100.0,standard,15.0,0.0,0.0,0.3703709999099374
26,5.0,increament,0.6,100.0,standard,15.0,0.0,1.0,
27,5.0,increament,0.6,100.0,standard,15.0,0.0,1.0,
28,5.0,increament,0.72,120.0,oddball,16.0,0.0,0.0,
29,5.0,increament,0.6,100.0,standard,15.0,0.0,1.0,
30,5.0,decreament,0.6,100.0,standard,11.0,0.0,1.0,
31,5.0,decreament,0.6,100.0,standard,11.0,0.0,1.0,
32,5.0,decreament,0.6,100.0,standard,11.0,0.0,1.0,
33,5.0,decreament,0.6,100.0,standard,11.0,0.0,1.0,
34,5.0,decreament,0.6,100.0,standard,11.0,0.0,1.0,
35,5.0,decreament,0.6,100.0,standard,11.0,0.0,1.0,
36,5.0,decreament,0.6,100.0,standard,11.0,0.0,1.0,
37,5.0,decreament,0.36,60.0,oddball,13.0,0.0,1.0,0.2821814997587353
38,5.0,decreament,0.6,100.0,standard,11.0,0.0,1.0,
39,5.0,decreament,0.6,100.0,standard,11.0,0.0,0.0,0.6486947999801487
40,5.0,decreament,0.6,100.0,standard,11.0,0.0,1.0,
41,5.0,decreament,0.6,100.0,standard,11.0,0.0,1.0,
42,5.0,decreament,0.6,100.0,standard,11.0,0.0,1.0,
43,5.0,decreament,0.6,100.0,standard,11.0,0.0,1.0,
44,5.0,decreament,0.6,100.0,standard,11.0,0.0,0.0,0.9558089999482036
45,5.0,decreament,0.6,100.0,standard,11.0,0.0,0.0,0.4246108999941498
46,5.0,decreament,0.6,100.0,standard,11.0,0.0,1.0,
47,5.0,decreament,0.6,100.0,standard,11.0,0.0,0.0,1.0107168997637928
48,5.0,decreament,0.6,100.0,standard,11.0,0.0,0.0,0.8480428999755532
49,5.0,decreament,0.6,100.0,standard,11.0,0.0,1.0,
50,5.0,decreament,0.6,100.0,standard,11.0,0.0,1.0,
51,5.0,decreament,0.6,100.0,standard,11.0,0.0,0.0,0.6617811999749392
52,5.0,decreament,0.6,100.0,standard,11.0,0.0,1.0,
53,5.0,decreament,0.24,40.0,oddball,12.0,0.0,1.0,0.6615802999585867
54,5.0,decreament,0.6,100.0,standard,11.0,0.0,1.0,
55,5.0,decreament,0.6,100.0,standard,11.0,0.0,1.0,
56,5.0,decreament,0.6,100.0,standard,11.0,0.0,1.0,
57,5.0,decreament,0.48,80.0,oddball,14.0,0.0,0.0,
58,5.0,decreament,0.6,100.0,standard,11.0,0.0,0.0,0.5425507000181824
59,5.0,decreament,0.6,100.0,standard,11.0,0.0,1.0,
60,5.0,increament,0.6,100.0,standard,15.0,0.0,1.0,
61,5.0,increament,0.6,100.0,standard,15.0,0.0,1.0,
62,5.0,increament,0.6,100.0,standard,15.0,0.0,1.0,
63,5.0,increament,0.6,100.0,standard,15.0,0.0,1.0,
64,5.0,increament,0.6,100.0,standard,15.0,0.0,1.0,
65,5.0,increament,0.6,100.0,standard,15.0,0.0,1.0,
66,5.0,increament,0.6,100.0,standard,15.0,0.0,1.0,
67,5.0,increament,0.6,100.0,standard,15.0,0.0,1.0,
68,5.0,increament,0.6,100.0,standard,15.0,0.0,0.0,0.2771131996996701
69,5.0,increament,0.6,100.0,standard,15.0,0.0,1.0,
70,5.0,increament,0.6,100.0,standard,15.0,0.0,0.0,0.2486315998248756
71,5.0,increament,0.6,100.0,standard,15.0,0.0,1.0,
72,5.0,increament,0.6,100.0,standard,15.0,0.0,1.0,
73,5.0,increament,0.84,140.0,oddball,17.0,0.0,1.0,0.2491164999082684
74,5.0,increament,0.6,100.0,standard,15.0,0.0,1.0,
75,5.0,increament,0.6,100.0,standard,15.0,0.0,1.0,
76,5.0,increament,0.6,100.0,standard,15.0,0.0,1.0,
77,5.0,increament,0.6,100.0,standard,15.0,0.0,1.0,
78,5.0,increament,0.72,120.0,oddball,16.0,0.0,0.0,
79,5.0,increament,0.6,100.0,standard,15.0,0.0,1.0,
80,5.0,increament,0.6,100.0,standard,15.0,0.0,1.0,
81,5.0,increament,0.6,100.0,standard,15.0,0.0,1.0,
82,5.0,increament,0.6,100.0,standard,15.0,0.0,1.0,
83,5.0,increament,0.96,160.0,oddball,18.0,0.0,0.0,
84,5.0,increament,0.6,100.0,standard,15.0,0.0,0.0,0.0013595998752862
85,5.0,increament,0.6,100.0,standard,15.0,0.0,0.0,0.1565533999819308
86,5.0,increament,0.6,100.0,standard,15.0,0.0,1.0,
87,5.0,increament,0.6,100.0,standard,15.0,0.0,0.0,0.0020412998273968
88,5.0,increament,0.6,100.0,standard,15.0,0.0,1.0,
89,5.0,increament,0.6,100.0,standard,15.0,0.0,1.0,
90,5.0,decreament,0.6,100.0,standard,11.0,0.0,1.0,
91,5.0,decreament,0.6,100.0,standard,11.0,0.0,1.0,
92,5.0,decreament,0.6,100.0,standard,11.0,0.0,1.0,
93,5.0,decreament,0.6,100.0,standard,11.0,0.0,1.0,
94,5.0,decreament,0.6,100.0,standard,11.0,0.0,1.0,
95,5.0,decreament,0.24,40.0,oddball,12.0,0.0,1.0,1.4202332999557257
96,5.0,decreament,0.6,100.0,standard,11.0,0.0,1.0,
97,5.0,decreament,0.6,100.0,standard,11.0,0.0,1.0,
98,5.0,decreament,0.6,100.0,standard,11.0,0.0,1.0,
99,5.0,decreament,0.6,100.0,standard,11.0,0.0,0.0,0.9017598000355064
100,5.0,decreament,0.6,100.0,standard,11.0,0.0,0.0,0.3807508999016136
101,5.0,decreament,0.6,100.0,standard,11.0,0.0,0.0,0.9073342997580768
102,5.0,decreament,0.36,60.0,oddball,13.0,0.0,1.0,0.7801695999223739
103,5.0,decreament,0.6,100.0,standard,11.0,0.0,1.0,
104,5.0,decreament,0.6,100.0,standard,11.0,0.0,1.0,
105,5.0,decreament,0.6,100.0,standard,11.0,0.0,1.0,
106,5.0,decreament,0.6,100.0,standard,11.0,0.0,1.0,
107,5.0,decreament,0.6,100.0,standard,11.0,0.0,1.0,
108,5.0,decreament,0.6,100.0,standard,11.0,0.0,1.0,
109,5.0,decreament,0.48,80.0,oddball,14.0,0.0,0.0,
110,5.0,decreament,0.6,100.0,standard,11.0,0.0,1.0,
111,5.0,decreament,0.6,100.0,standard,11.0,0.0,1.0,
112,5.0,decreament,0.6,100.0,standard,11.0,0.0,1.0,
113,5.0,decreament,0.6,100.0,standard,11.0,0.0,1.0,
114,5.0,decreament,0.6,100.0,standard,11.0,0.0,1.0,
115,5.0,decreament,0.6,100.0,standard,11.0,0.0,1.0,
116,5.0,decreament,0.6,100.0,standard,11.0,0.0,1.0,
117,5.0,decreament,0.6,100.0,standard,11.0,0.0,1.0,
118,5.0,decreament,0.6,100.0,standard,11.0,0.0,1.0,
119,5.0,decreament,0.6,100.0,standard,11.0,0.0,1.0,
120,5.0,increament,0.6,100.0,standard,15.0,0.0,1.0,
121,5.0,increament,0.6,100.0,standard,15.0,0.0,1.0,
122,5.0,increament,0.6,100.0,standard,15.0,0.0,1.0,
123,5.0,increament,0.6,100.0,standard,15.0,0.0,1.0,
124,5.0,increament,0.6,100.0,standard,15.0,0.0,1.0,
125,5.0,increament,0.6,100.0,standard,15.0,0.0,1.0,
126,5.0,increament,0.6,100.0,standard,15.0,0.0,0.0,0.028646599734202
127,5.0,increament,0.6,100.0,standard,15.0,0.0,1.0,
128,5.0,increament,0.6,100.0,standard,15.0,0.0,1.0,
129,5.0,increament,0.6,100.0,standard,15.0,0.0,1.0,
130,5.0,increament,0.6,100.0,standard,15.0,0.0,1.0,
131,5.0,increament,0.6,100.0,standard,15.0,0.0,1.0,
132,5.0,increament,0.6,100.0,standard,15.0,0.0,1.0,
133,5.0,increament,0.6,100.0,standard,15.0,0.0,1.0,
134,5.0,increament,0.6,100.0,standard,15.0,0.0,1.0,
135,5.0,increament,0.84,140.0,oddball,17.0,0.0,0.0,
136,5.0,increament,0.6,100.0,standard,15.0,0.0,1.0,
137,5.0,increament,0.6,100.0,standard,15.0,0.0,1.0,
138,5.0,increament,0.6,100.0,standard,15.0,0.0,0.0,0.0380681997630745
139,5.0,increament,0.6,100.0,standard,15.0,0.0,1.0,
140,5.0,increament,0.6,100.0,standard,15.0,0.0,1.0,
141,5.0,increament,0.6,100.0,standard,15.0,0.0,1.0,
142,5.0,increament,0.6,100.0,standard,15.0,0.0,1.0,
143,5.0,increament,0.6,100.0,standard,15.0,0.0,1.0,
144,5.0,increament,0.6,100.0,standard,15.0,0.0,1.0,
145,5.0,increament,0.72,120.0,oddball,16.0,0.0,0.0,
146,5.0,increament,0.6,100.0,standard,15.0,0.0,1.0,
147,5.0,increament,0.6,100.0,standard,15.0,0.0,1.0,
148,5.0,increament,0.6,100.0,standard,15.0,0.0,1.0,
149,5.0,increament,0.96,160.0,oddball,18.0,0.0,0.0,
150,5.0,decreament,0.6,100.0,standard,11.0,0.0,1.0,
151,5.0,decreament,0.6,100.0,standard,11.0,0.0,1.0,
152,5.0,decreament,0.6,100.0,standard,11.0,0.0,1.0,
153,5.0,decreament,0.6,100.0,standard,11.0,0.0,1.0,
154,5.0,decreament,0.6,100.0,standard,11.0,0.0,1.0,
155,5.0,decreament,0.6,100.0,standard,11.0,0.0,1.0,
156,5.0,decreament,0.6,100.0,standard,11.0,0.0,1.0,
157,5.0,decreament,0.6,100.0,standard,11.0,0.0,1.0,
158,5.0,decreament,0.6,100.0,standard,11.0,0.0,1.0,
159,5.0,decreament,0.6,100.0,standard,11.0,0.0,1.0,
160,5.0,decreament,0.6,100.0,standard,11.0,0.0,1.0,
161,5.0,decreament,0.48,80.0,oddball,14.0,0.0,0.0,
162,5.0,decreament,0.6,100.0,standard,11.0,0.0,1.0,
163,5.0,decreament,0.6,100.0,standard,11.0,0.0,1.0,
164,5.0,decreament,0.6,100.0,standard,11.0,0.0,0.0,0.0199488999787718
165,5.0,decreament,0.6,100.0,standard,11.0,0.0,1.0,
166,5.0,decreament,0.6,100.0,standard,11.0,0.0,1.0,
167,5.0,decreament,0.6,100.0,standard,11.0,0.0,1.0,
168,5.0,decreament,0.6,100.0,standard,11.0,0.0,1.0,
169,5.0,decreament,0.24,40.0,oddball,12.0,0.0,1.0,0.7413221998140216
170,5.0,decreament,0.6,100.0,standard,11.0,0.0,0.0,0.9744622998405248
171,5.0,decreament,0.6,100.0,standard,11.0,0.0,1.0,
172,5.0,decreament,0.6,100.0,standard,11.0,0.0,1.0,
173,5.0,decreament,0.36,60.0,oddball,13.0,0.0,1.0,0.2816272999625653
174,5.0,decreament,0.6,100.0,standard,11.0,0.0,1.0,
175,5.0,decreament,0.6,100.0,standard,11.0,0.0,1.0,
176,5.0,decreament,0.6,100.0,standard,11.0,0.0,1.0,
177,5.0,decreament,0.6,100.0,standard,11.0,0.0,1.0,
178,5.0,decreament,0.6,100.0,standard,11.0,0.0,1.0,
179,5.0,decreament,0.6,100.0,standard,11.0,0.0,1.0,
180,5.0,increament,0.6,100.0,standard,15.0,0.0,1.0,
181,5.0,increament,0.6,100.0,standard,15.0,0.0,1.0,
182,5.0,increament,0.6,100.0,standard,15.0,0.0,1.0,
183,5.0,increament,0.6,100.0,standard,15.0,0.0,1.0,
184,5.0,increament,0.6,100.0,standard,15.0,0.0,1.0,
185,5.0,increament,0.96,160.0,oddball,18.0,0.0,0.0,
186,5.0,increament,0.6,100.0,standard,15.0,0.0,1.0,
187,5.0,increament,0.6,100.0,standard,15.0,0.0,1.0,
188,5.0,increament,0.6,100.0,standard,15.0,0.0,1.0,
189,5.0,increament,0.6,100.0,standard,15.0,0.0,1.0,
190,5.0,increament,0.6,100.0,standard,15.0,0.0,1.0,
191,5.0,increament,0.6,100.0,standard,15.0,0.0,0.0,0.3361809998750686
192,5.0,increament,0.6,100.0,standard,15.0,0.0,1.0,
193,5.0,increament,0.72,120.0,oddball,16.0,0.0,0.0,
194,5.0,increament,0.6,100.0,standard,15.0,0.0,1.0,
195,5.0,increament,0.6,100.0,standard,15.0,0.0,0.0,0.0169029999524354
196,5.0,increament,0.6,100.0,standard,15.0,0.0,1.0,
197,5.0,increament,0.6,100.0,standard,15.0,0.0,1.0,
198,5.0,increament,0.6,100.0,standard,15.0,0.0,0.0,0.2005230998620391
199,5.0,increament,0.6,100.0,standard,15.0,0.0,1.0,
200,5.0,increament,0.6,100.0,standard,15.0,0.0,0.0,0.2683040997944772
201,5.0,increament,0.6,100.0,standard,15.0,0.0,1.0,
202,5.0,increament,0.6,100.0,standard,15.0,0.0,1.0,
203,5.0,increament,0.6,100.0,standard,15.0,0.0,1.0,
204,5.0,increament,0.6,100.0,standard,15.0,0.0,1.0,
205,5.0,increament,0.6,100.0,standard,15.0,0.0,1.0,
206,5.0,increament,0.6,100.0,standard,15.0,0.0,1.0,
207,5.0,increament,0.84,140.0,oddball,17.0,0.0,0.0,
208,5.0,increament,0.6,100.0,standard,15.0,0.0,1.0,
209,5.0,increament,0.6,100.0,standard,15.0,0.0,0.0,0.4834582998882979
210,5.0,decreament,0.6,100.0,standard,11.0,0.0,1.0,
211,5.0,decreament,0.6,100.0,standard,11.0,0.0,1.0,
212,5.0,decreament,0.6,100.0,standard,11.0,0.0,1.0,
213,5.0,decreament,0.6,100.0,standard,11.0,0.0,1.0,
214,5.0,decreament,0.6,100.0,standard,11.0,0.0,1.0,
215,5.0,decreament,0.6,100.0,standard,11.0,0.0,1.0,
216,5.0,decreament,0.6,100.0,standard,11.0,0.0,1.0,
217,5.0,decreament,0.48,80.0,oddball,14.0,0.0,1.0,0.1691586999222636
218,5.0,decreament,0.6,100.0,standard,11.0,0.0,1.0,
219,5.0,decreament,0.6,100.0,standard,11.0,0.0,1.0,
220,5.0,decreament,0.6,100.0,standard,11.0,0.0,0.0,0.0952560000587254
221,5.0,decreament,0.6,100.0,standard,11.0,0.0,1.0,
222,5.0,decreament,0.24,40.0,oddball,12.0,0.0,1.0,0.6406931998208165
223,5.0,decreament,0.6,100.0,standard,11.0,0.0,1.0,
224,5.0,decreament,0.6,100.0,standard,11.0,0.0,1.0,
225,5.0,decreament,0.6,100.0,standard,11.0,0.0,0.0,0.1424663998186588
226,5.0,decreament,0.6,100.0,standard,11.0,0.0,1.0,
227,5.0,decreament,0.6,100.0,standard,11.0,0.0,1.0,
228,5.0,decreament,0.6,100.0,standard,11.0,0.0,1.0,
229,5.0,decreament,0.6,100.0,standard,11.0,0.0,1.0,
230,5.0,decreament,0.6,100.0,standard,11.0,0.0,1.0,
231,5.0,decreament,0.6,100.0,standard,11.0,0.0,0.0,0.0522055998444557
232,5.0,decreament,0.6,100.0,standard,11.0,0.0,1.0,
233,5.0,decreament,0.6,100.0,standard,11.0,0.0,1.0,
234,5.0,decreament,0.6,100.0,standard,11.0,0.0,1.0,
235,5.0,decreament,0.6,100.0,standard,11.0,0.0,1.0,
236,5.0,decreament,0.6,100.0,standard,11.0,0.0,0.0,0.1625951000023633
237,5.0,decreament,0.36,60.0,oddball,13.0,0.0,0.0,
238,5.0,decreament,0.6,100.0,standard,11.0,0.0,1.0,
239,5.0,decreament,0.6,100.0,standard,11.0,0.0,1.0,
240,5.0,increament,0.6,100.0,standard,15.0,0.0,1.0,
241,5.0,increament,0.6,100.0,standard,15.0,0.0,1.0,
242,5.0,increament,0.6,100.0,standard,15.0,0.0,1.0,
243,5.0,increament,0.6,100.0,standard,15.0,0.0,1.0,
244,5.0,increament,0.6,100.0,standard,15.0,0.0,1.0,
245,5.0,increament,0.6,100.0,standard,15.0,0.0,1.0,
246,5.0,increament,0.6,100.0,standard,15.0,0.0,1.0,
247,5.0,increament,0.6,100.0,standard,15.0,0.0,1.0,
248,5.0,increament,0.6,100.0,standard,15.0,0.0,1.0,
249,5.0,increament,0.6,100.0,standard,15.0,0.0,1.0,
250,5.0,increament,0.6,100.0,standard,15.0,0.0,1.0,
251,5.0,increament,0.6,100.0,standard,15.0,0.0,1.0,
252,5.0,increament,0.6,100.0,standard,15.0,0.0,1.0,
253,5.0,increament,0.6,100.0,standard,15.0,0.0,1.0,
254,5.0,increament,0.6,100.0,standard,15.0,0.0,1.0,
255,5.0,increament,0.6,100.0,standard,15.0,0.0,1.0,
256,5.0,increament,0.96,160.0,oddball,18.0,0.0,0.0,
257,5.0,increament,0.6,100.0,standard,15.0,0.0,1.0,
258,5.0,increament,0.6,100.0,standard,15.0,0.0,1.0,
259,5.0,increament,0.6,100.0,standard,15.0,0.0,1.0,
260,5.0,increament,0.6,100.0,standard,15.0,0.0,1.0,
261,5.0,increament,0.6,100.0,standard,15.0,0.0,1.0,
262,5.0,increament,0.6,100.0,standard,15.0,0.0,1.0,
263,5.0,increament,0.84,140.0,oddball,17.0,0.0,0.0,
264,5.0,increament,0.6,100.0,standard,15.0,0.0,1.0,
265,5.0,increament,0.6,100.0,standard,15.0,0.0,1.0,
266,5.0,increament,0.6,100.0,standard,15.0,0.0,1.0,
267,5.0,increament,0.72,120.0,oddball,16.0,0.0,0.0,
268,5.0,increament,0.6,100.0,standard,15.0,0.0,1.0,
269,5.0,increament,0.6,100.0,standard,15.0,0.0,1.0,
270,5.0,decreament,0.6,100.0,standard,11.0,0.0,1.0,
271,5.0,decreament,0.6,100.0,standard,11.0,0.0,1.0,
272,5.0,decreament,0.6,100.0,standard,11.0,0.0,1.0,
273,5.0,decreament,0.6,100.0,standard,11.0,0.0,1.0,
274,5.0,decreament,0.6,100.0,standard,11.0,0.0,1.0,
275,5.0,decreament,0.24,40.0,oddball,12.0,0.0,1.0,0.893419899744913
276,5.0,decreament,0.6,100.0,standard,11.0,0.0,1.0,
277,5.0,decreament,0.6,100.0,standard,11.0,0.0,1.0,
278,5.0,decreament,0.6,100.0,standard,11.0,0.0,0.0,0.3893369997385889
279,5.0,decreament,0.6,100.0,standard,11.0,0.0,1.0,
280,5.0,decreament,0.6,100.0,standard,11.0,0.0,0.0,0.7466745998244733
281,5.0,decreament,0.6,100.0,standard,11.0,0.0,1.0,
282,5.0,decreament,0.6,100.0,standard,11.0,0.0,1.0,
283,5.0,decreament,0.6,100.0,standard,11.0,0.0,1.0,
284,5.0,decreament,0.48,80.0,oddball,14.0,0.0,1.0,0.6616520998068154
285,5.0,decreament,0.6,100.0,standard,11.0,0.0,1.0,
286,5.0,decreament,0.6,100.0,standard,11.0,0.0,1.0,
287,5.0,decreament,0.6,100.0,standard,11.0,0.0,1.0,
288,5.0,decreament,0.6,100.0,standard,11.0,0.0,1.0,
289,5.0,decreament,0.6,100.0,standard,11.0,0.0,0.0,0.1631240998394787
290,5.0,decreament,0.6,100.0,standard,11.0,0.0,1.0,
291,5.0,decreament,0.6,100.0,standard,11.0,0.0,1.0,
292,5.0,decreament,0.6,100.0,standard,11.0,0.0,1.0,
293,5.0,decreament,0.6,100.0,standard,11.0,0.0,1.0,
294,5.0,decreament,0.6,100.0,standard,11.0,0.0,1.0,
295,5.0,decreament,0.6,100.0,standard,11.0,0.0,1.0,
296,5.0,decreament,0.36,60.0,oddball,13.0,0.0,1.0,0.1641868997830897
297,5.0,decreament,0.6,100.0,standard,11.0,0.0,1.0,
298,5.0,decreament,0.6,100.0,standard,11.0,0.0,1.0,
299,5.0,decreament,0.6,100.0,standard,11.0,0.0,1.0,
300,10.0,increament,0.6,100.0,standard,25.0,1.0,1.0,
301,10.0,increament,0.6,100.0,standard,25.0,1.0,1.0,
302,10.0,increament,0.6,100.0,standard,25.0,1.0,1.0,
303,10.0,increament,0.6,100.0,standard,25.0,1.0,1.0,
304,10.0,increament,0.6,100.0,standard,25.0,1.0,1.0,
305,10.0,increament,0.6,100.0,standard,25.0,1.0,1.0,
306,10.0,increament,0.6,100.0,standard,25.0,1.0,1.0,
307,10.0,increament,0.6,100.0,standard,25.0,1.0,1.0,
308,10.0,increament,0.6,100.0,standard,25.0,1.0,1.0,
309,10.0,increament,0.84,140.0,oddball,27.0,1.0,1.0,0.6864315997809172
310,10.0,increament,0.6,100.0,standard,25.0,1.0,1.0,
311,10.0,increament,0.6,100.0,standard,25.0,1.0,1.0,
312,10.0,increament,0.6,100.0,standard,25.0,1.0,1.0,
313,10.0,increament,0.6,100.0,standard,25.0,1.0,1.0,
314,10.0,increament,0.6,100.0,standard,25.0,1.0,1.0,
315,10.0,increament,0.72,120.0,oddball,26.0,1.0,0.0,
316,10.0,increament,0.6,100.0,standard,25.0,1.0,1.0,
317,10.0,increament,0.6,100.0,standard,25.0,1.0,1.0,
318,10.0,increament,0.6,100.0,standard,25.0,1.0,1.0,
319,10.0,increament,0.6,100.0,standard,25.0,1.0,1.0,
320,10.0,increament,0.6,100.0,standard,25.0,1.0,1.0,
321,10.0,increament,0.6,100.0,standard,25.0,1.0,1.0,
322,10.0,increament,0.6,100.0,standard,25.0,1.0,1.0,
323,10.0,increament,0.6,100.0,standard,25.0,1.0,1.0,
324,10.0,increament,0.6,100.0,standard,25.0,1.0,1.0,
325,10.0,increament,0.6,100.0,standard,25.0,1.0,1.0,
326,10.0,increament,0.6,100.0,standard,25.0,1.0,1.0,
327,10.0,increament,0.6,100.0,standard,25.0,1.0,0.0,0.2621859000064432
328,10.0,increament,0.6,100.0,standard,25.0,1.0,1.0,
329,10.0,increament,0.96,160.0,oddball,28.0,1.0,1.0,0.2348913999740034
330,10.0,decreament,0.6,100.0,standard,21.0,1.0,1.0,
331,10.0,decreament,0.6,100.0,standard,21.0,1.0,0.0,0.6333000999875367
332,10.0,decreament,0.6,100.0,standard,21.0,1.0,1.0,
333,10.0,decreament,0.6,100.0,standard,21.0,1.0,1.0,
334,10.0,decreament,0.6,100.0,standard,21.0,1.0,1.0,
335,10.0,decreament,0.6,100.0,standard,21.0,1.0,1.0,
336,10.0,decreament,0.6,100.0,standard,21.0,1.0,0.0,0.7487566999625415
337,10.0,decreament,0.48,80.0,oddball,24.0,1.0,1.0,0.4910975999664515
338,10.0,decreament,0.6,100.0,standard,21.0,1.0,1.0,
339,10.0,decreament,0.6,100.0,standard,21.0,1.0,0.0,0.1577364997938275
340,10.0,decreament,0.6,100.0,standard,21.0,1.0,1.0,
341,10.0,decreament,0.24,40.0,oddball,22.0,1.0,1.0,0.5398327999282628
342,10.0,decreament,0.6,100.0,standard,21.0,1.0,1.0,
343,10.0,decreament,0.6,100.0,standard,21.0,1.0,1.0,
344,10.0,decreament,0.6,100.0,standard,21.0,1.0,1.0,
345,10.0,decreament,0.6,100.0,standard,21.0,1.0,1.0,
346,10.0,decreament,0.6,100.0,standard,21.0,1.0,1.0,
347,10.0,decreament,0.36,60.0,oddball,23.0,1.0,1.0,0.4209845999721437
348,10.0,decreament,0.6,100.0,standard,21.0,1.0,1.0,
349,10.0,decreament,0.6,100.0,standard,21.0,1.0,1.0,
350,10.0,decreament,0.6,100.0,standard,21.0,1.0,1.0,
351,10.0,decreament,0.6,100.0,standard,21.0,1.0,1.0,
352,10.0,decreament,0.6,100.0,standard,21.0,1.0,1.0,
353,10.0,decreament,0.6,100.0,standard,21.0,1.0,0.0,0.5518829000648111
354,10.0,decreament,0.6,100.0,standard,21.0,1.0,0.0,0.5946007997263223
355,10.0,decreament,0.6,100.0,standard,21.0,1.0,0.0,0.4206766998395324
356,10.0,decreament,0.6,100.0,standard,21.0,1.0,1.0,
357,10.0,decreament,0.6,100.0,standard,21.0,1.0,0.0,0.646134999813512
358,10.0,decreament,0.6,100.0,standard,21.0,1.0,1.0,
359,10.0,decreament,0.6,100.0,standard,21.0,1.0,0.0,0.4673838999588042
360,10.0,increament,0.6,100.0,standard,25.0,1.0,1.0,
361,10.0,increament,0.6,100.0,standard,25.0,1.0,1.0,
362,10.0,increament,0.6,100.0,standard,25.0,1.0,1.0,
363,10.0,increament,0.6,100.0,standard,25.0,1.0,1.0,
364,10.0,increament,0.6,100.0,standard,25.0,1.0,1.0,
365,10.0,increament,0.6,100.0,standard,25.0,1.0,1.0,
366,10.0,increament,0.6,100.0,standard,25.0,1.0,0.0,0.4145735998172313
367,10.0,increament,0.6,100.0,standard,25.0,1.0,1.0,
368,10.0,increament,0.6,100.0,standard,25.0,1.0,1.0,
369,10.0,increament,0.6,100.0,standard,25.0,1.0,1.0,
370,10.0,increament,0.96,160.0,oddball,28.0,1.0,0.0,
371,10.0,increament,0.6,100.0,standard,25.0,1.0,1.0,
372,10.0,increament,0.6,100.0,standard,25.0,1.0,1.0,
373,10.0,increament,0.6,100.0,standard,25.0,1.0,0.0,0.3847984997555613
374,10.0,increament,0.6,100.0,standard,25.0,1.0,1.0,
375,10.0,increament,0.6,100.0,standard,25.0,1.0,1.0,
376,10.0,increament,0.84,140.0,oddball,27.0,1.0,1.0,0.1543497999664396
377,10.0,increament,0.6,100.0,standard,25.0,1.0,1.0,
378,10.0,increament,0.6,100.0,standard,25.0,1.0,1.0,
379,10.0,increament,0.6,100.0,standard,25.0,1.0,1.0,
380,10.0,increament,0.72,120.0,oddball,26.0,1.0,0.0,
381,10.0,increament,0.6,100.0,standard,25.0,1.0,1.0,
382,10.0,increament,0.6,100.0,standard,25.0,1.0,1.0,
383,10.0,increament,0.6,100.0,standard,25.0,1.0,1.0,
384,10.0,increament,0.6,100.0,standard,25.0,1.0,1.0,
385,10.0,increament,0.6,100.0,standard,25.0,1.0,0.0,0.2065501997712999
386,10.0,increament,0.6,100.0,standard,25.0,1.0,1.0,
387,10.0,increament,0.6,100.0,standard,25.0,1.0,1.0,
388,10.0,increament,0.6,100.0,standard,25.0,1.0,0.0,0.2822977998293936
389,10.0,increament,0.6,100.0,standard,25.0,1.0,1.0,
390,10.0,decreament,0.6,100.0,standard,21.0,1.0,1.0,
391,10.0,decreament,0.6,100.0,standard,21.0,1.0,1.0,
392,10.0,decreament,0.6,100.0,standard,21.0,1.0,1.0,
393,10.0,decreament,0.6,100.0,standard,21.0,1.0,1.0,
394,10.0,decreament,0.6,100.0,standard,21.0,1.0,1.0,
395,10.0,decreament,0.6,100.0,standard,21.0,1.0,1.0,
396,10.0,decreament,0.6,100.0,standard,21.0,1.0,1.0,
397,10.0,decreament,0.6,100.0,standard,21.0,1.0,0.0,0.4722592998296022
398,10.0,decreament,0.24,40.0,oddball,22.0,1.0,1.0,0.7925803000107408
399,10.0,decreament,0.6,100.0,standard,21.0,1.0,1.0,
400,10.0,decreament,0.6,100.0,standard,21.0,1.0,1.0,
401,10.0,decreament,0.6,100.0,standard,21.0,1.0,0.0,0.4490951998159289
402,10.0,decreament,0.6,100.0,standard,21.0,1.0,1.0,
403,10.0,decreament,0.6,100.0,standard,21.0,1.0,1.0,
404,10.0,decreament,0.6,100.0,standard,21.0,1.0,1.0,
405,10.0,decreament,0.6,100.0,standard,21.0,1.0,0.0,0.3075035999063402
406,10.0,decreament,0.6,100.0,standard,21.0,1.0,1.0,
407,10.0,decreament,0.6,100.0,standard,21.0,1.0,1.0,
408,10.0,decreament,0.6,100.0,standard,21.0,1.0,0.0,0.0747541997116059
409,10.0,decreament,0.6,100.0,standard,21.0,1.0,1.0,
410,10.0,decreament,0.6,100.0,standard,21.0,1.0,1.0,
411,10.0,decreament,0.36,60.0,oddball,23.0,1.0,1.0,0.4662182999309152
412,10.0,decreament,0.6,100.0,standard,21.0,1.0,1.0,
413,10.0,decreament,0.6,100.0,standard,21.0,1.0,1.0,
414,10.0,decreament,0.6,100.0,standard,21.0,1.0,1.0,
415,10.0,decreament,0.6,100.0,standard,21.0,1.0,1.0,
416,10.0,decreament,0.48,80.0,oddball,24.0,1.0,1.0,0.1757650997024029
417,10.0,decreament,0.6,100.0,standard,21.0,1.0,0.0,0.557340599829331
418,10.0,decreament,0.6,100.0,standard,21.0,1.0,1.0,
419,10.0,decreament,0.6,100.0,standard,21.0,1.0,0.0,0.7970348997041583
420,10.0,increament,0.6,100.0,standard,25.0,1.0,1.0,
421,10.0,increament,0.6,100.0,standard,25.0,1.0,1.0,
422,10.0,increament,0.6,100.0,standard,25.0,1.0,1.0,
423,10.0,increament,0.6,100.0,standard,25.0,1.0,1.0,
424,10.0,increament,0.6,100.0,standard,25.0,1.0,1.0,
425,10.0,increament,0.6,100.0,standard,25.0,1.0,1.0,
426,10.0,increament,0.6,100.0,standard,25.0,1.0,1.0,
427,10.0,increament,0.6,100.0,standard,25.0,1.0,1.0,
428,10.0,increament,0.96,160.0,oddball,28.0,1.0,1.0,0.54923089989461
429,10.0,increament,0.6,100.0,standard,25.0,1.0,1.0,
430,10.0,increament,0.6,100.0,standard,25.0,1.0,1.0,
431,10.0,increament,0.6,100.0,standard,25.0,1.0,1.0,
432,10.0,increament,0.6,100.0,standard,25.0,1.0,1.0,
433,10.0,increament,0.6,100.0,standard,25.0,1.0,0.0,0.3364782996941358
434,10.0,increament,0.6,100.0,standard,25.0,1.0,1.0,
435,10.0,increament,0.6,100.0,standard,25.0,1.0,1.0,
436,10.0,increament,0.6,100.0,standard,25.0,1.0,1.0,
437,10.0,increament,0.6,100.0,standard,25.0,1.0,1.0,
438,10.0,increament,0.6,100.0,standard,25.0,1.0,0.0,0.2664455999620259
439,10.0,increament,0.6,100.0,standard,25.0,1.0,1.0,
440,10.0,increament,0.6,100.0,standard,25.0,1.0,1.0,
441,10.0,increament,0.6,100.0,standard,25.0,1.0,1.0,
442,10.0,increament,0.6,100.0,standard,25.0,1.0,0.0,0.3245650997851044
443,10.0,increament,0.84,140.0,oddball,27.0,1.0,1.0,0.3894655997864902
444,10.0,increament,0.6,100.0,standard,25.0,1.0,1.0,
445,10.0,increament,0.6,100.0,standard,25.0,1.0,1.0,
446,10.0,increament,0.6,100.0,standard,25.0,1.0,1.0,
447,10.0,increament,0.6,100.0,standard,25.0,1.0,1.0,
448,10.0,increament,0.6,100.0,standard,25.0,1.0,1.0,
449,10.0,increament,0.72,120.0,oddball,26.0,1.0,1.0,0.2929667998105287
450,10.0,decreament,0.6,100.0,standard,21.0,1.0,1.0,
451,10.0,decreament,0.6,100.0,standard,21.0,1.0,1.0,
452,10.0,decreament,0.6,100.0,standard,21.0,1.0,1.0,
453,10.0,decreament,0.6,100.0,standard,21.0,1.0,1.0,
454,10.0,decreament,0.6,100.0,standard,21.0,1.0,1.0,
455,10.0,decreament,0.6,100.0,standard,21.0,1.0,1.0,
456,10.0,decreament,0.6,100.0,standard,21.0,1.0,1.0,
457,10.0,decreament,0.6,100.0,standard,21.0,1.0,1.0,
458,10.0,decreament,0.6,100.0,standard,21.0,1.0,1.0,
459,10.0,decreament,0.6,100.0,standard,21.0,1.0,1.0,
460,10.0,decreament,0.48,80.0,oddball,24.0,1.0,0.0,
461,10.0,decreament,0.6,100.0,standard,21.0,1.0,1.0,
462,10.0,decreament,0.6,100.0,standard,21.0,1.0,1.0,
463,10.0,decreament,0.6,100.0,standard,21.0,1.0,0.0,0.1143794998060911
464,10.0,decreament,0.6,100.0,standard,21.0,1.0,1.0,
465,10.0,decreament,0.6,100.0,standard,21.0,1.0,1.0,
466,10.0,decreament,0.6,100.0,standard,21.0,1.0,1.0,
467,10.0,decreament,0.6,100.0,standard,21.0,1.0,1.0,
468,10.0,decreament,0.6,100.0,standard,21.0,1.0,0.0,0.7887398998718709
469,10.0,decreament,0.6,100.0,standard,21.0,1.0,1.0,
470,10.0,decreament,0.6,100.0,standard,21.0,1.0,1.0,
471,10.0,decreament,0.6,100.0,standard,21.0,1.0,0.0,0.9561250999104232
472,10.0,decreament,0.6,100.0,standard,21.0,1.0,1.0,
473,10.0,decreament,0.24,40.0,oddball,22.0,1.0,1.0,0.8585507997777313
474,10.0,decreament,0.6,100.0,standard,21.0,1.0,1.0,
475,10.0,decreament,0.6,100.0,standard,21.0,1.0,1.0,
476,10.0,decreament,0.6,100.0,standard,21.0,1.0,1.0,
477,10.0,decreament,0.6,100.0,standard,21.0,1.0,1.0,
478,10.0,decreament,0.36,60.0,oddball,23.0,1.0,0.0,
479,10.0,decreament,0.6,100.0,standard,21.0,1.0,1.0,
480,10.0,increament,0.6,100.0,standard,25.0,1.0,1.0,
481,10.0,increament,0.6,100.0,standard,25.0,1.0,1.0,
482,10.0,increament,0.6,100.0,standard,25.0,1.0,1.0,
483,10.0,increament,0.6,100.0,standard,25.0,1.0,1.0,
484,10.0,increament,0.6,100.0,standard,25.0,1.0,1.0,
485,10.0,increament,0.84,140.0,oddball,27.0,1.0,1.0,0.3778120998758822
486,10.0,increament,0.6,100.0,standard,25.0,1.0,1.0,
487,10.0,increament,0.6,100.0,standard,25.0,1.0,1.0,
488,10.0,increament,0.6,100.0,standard,25.0,1.0,1.0,
489,10.0,increament,0.6,100.0,standard,25.0,1.0,1.0,
490,10.0,increament,0.6,100.0,standard,25.0,1.0,1.0,
491,10.0,increament,0.6,100.0,standard,25.0,1.0,1.0,
492,10.0,increament,0.6,100.0,standard,25.0,1.0,1.0,
493,10.0,increament,0.6,100.0,standard,25.0,1.0,1.0,
494,10.0,increament,0.6,100.0,standard,25.0,1.0,1.0,
495,10.0,increament,0.6,100.0,standard,25.0,1.0,0.0,0.3313349999953061
496,10.0,increament,0.6,100.0,standard,25.0,1.0,1.0,
497,10.0,increament,0.6,100.0,standard,25.0,1.0,1.0,
498,10.0,increament,0.6,100.0,standard,25.0,1.0,0.0,0.4832864999771118
499,10.0,increament,0.6,100.0,standard,25.0,1.0,1.0,
500,10.0,increament,0.6,100.0,standard,25.0,1.0,1.0,
501,10.0,increament,0.72,120.0,oddball,26.0,1.0,1.0,0.3977500998880714
502,10.0,increament,0.6,100.0,standard,25.0,1.0,1.0,
503,10.0,increament,0.6,100.0,standard,25.0,1.0,1.0,
504,10.0,increament,0.6,100.0,standard,25.0,1.0,1.0,
505,10.0,increament,0.6,100.0,standard,25.0,1.0,1.0,
506,10.0,increament,0.96,160.0,oddball,28.0,1.0,1.0,0.1371617999393493
507,10.0,increament,0.6,100.0,standard,25.0,1.0,1.0,
508,10.0,increament,0.6,100.0,standard,25.0,1.0,1.0,
509,10.0,increament,0.6,100.0,standard,25.0,1.0,0.0,0.7097142997663468
510,10.0,decreament,0.6,100.0,standard,21.0,1.0,1.0,
511,10.0,decreament,0.6,100.0,standard,21.0,1.0,1.0,
512,10.0,decreament,0.6,100.0,standard,21.0,1.0,1.0,
513,10.0,decreament,0.6,100.0,standard,21.0,1.0,1.0,
514,10.0,decreament,0.6,100.0,standard,21.0,1.0,1.0,
515,10.0,decreament,0.6,100.0,standard,21.0,1.0,1.0,
516,10.0,decreament,0.6,100.0,standard,21.0,1.0,1.0,
517,10.0,decreament,0.6,100.0,standard,21.0,1.0,1.0,
518,10.0,decreament,0.6,100.0,standard,21.0,1.0,1.0,
519,10.0,decreament,0.6,100.0,standard,21.0,1.0,1.0,
520,10.0,decreament,0.6,100.0,standard,21.0,1.0,0.0,0.382569900015369
521,10.0,decreament,0.48,80.0,oddball,24.0,1.0,1.0,0.4756338999141007
522,10.0,decreament,0.6,100.0,standard,21.0,1.0,1.0,
523,10.0,decreament,0.6,100.0,standard,21.0,1.0,1.0,
524,10.0,decreament,0.6,100.0,standard,21.0,1.0,0.0,0.5682947998866439
525,10.0,decreament,0.6,100.0,standard,21.0,1.0,0.0,0.6328790998086333
526,10.0,decreament,0.6,100.0,standard,21.0,1.0,1.0,
527,10.0,decreament,0.36,60.0,oddball,23.0,1.0,1.0,0.6855611999053508
528,10.0,decreament,0.6,100.0,standard,21.0,1.0,1.0,
529,10.0,decreament,0.6,100.0,standard,21.0,1.0,1.0,
530,10.0,decreament,0.6,100.0,standard,21.0,1.0,0.0,0.0901535998564213
531,10.0,decreament,0.6,100.0,standard,21.0,1.0,1.0,
532,10.0,decreament,0.6,100.0,standard,21.0,1.0,0.0,0.1480912996921688
533,10.0,decreament,0.6,100.0,standard,21.0,1.0,0.0,0.5032799998298287
534,10.0,decreament,0.6,100.0,standard,21.0,1.0,1.0,
535,10.0,decreament,0.6,100.0,standard,21.0,1.0,1.0,
536,10.0,decreament,0.6,100.0,standard,21.0,1.0,1.0,
537,10.0,decreament,0.6,100.0,standard,21.0,1.0,0.0,0.2300402999389916
538,10.0,decreament,0.24,40.0,oddball,22.0,1.0,1.0,0.6531789000146091
539,10.0,decreament,0.6,100.0,standard,21.0,1.0,0.0,0.5565249000210315
540,10.0,increament,0.6,100.0,standard,25.0,1.0,1.0,
541,10.0,increament,0.6,100.0,standard,25.0,1.0,1.0,
542,10.0,increament,0.6,100.0,standard,25.0,1.0,1.0,
543,10.0,increament,0.6,100.0,standard,25.0,1.0,1.0,
544,10.0,increament,0.6,100.0,standard,25.0,1.0,1.0,
545,10.0,increament,0.72,120.0,oddball,26.0,1.0,0.0,
546,10.0,increament,0.6,100.0,standard,25.0,1.0,1.0,
547,10.0,increament,0.6,100.0,standard,25.0,1.0,1.0,
548,10.0,increament,0.6,100.0,standard,25.0,1.0,1.0,
549,10.0,increament,0.6,100.0,standard,25.0,1.0,1.0,
550,10.0,increament,0.6,100.0,standard,25.0,1.0,1.0,
551,10.0,increament,0.6,100.0,standard,25.0,1.0,1.0,
552,10.0,increament,0.6,100.0,standard,25.0,1.0,1.0,
553,10.0,increament,0.96,160.0,oddball,28.0,1.0,0.0,
554,10.0,increament,0.6,100.0,standard,25.0,1.0,1.0,
555,10.0,increament,0.6,100.0,standard,25.0,1.0,1.0,
556,10.0,increament,0.6,100.0,standard,25.0,1.0,1.0,
557,10.0,increament,0.6,100.0,standard,25.0,1.0,1.0,
558,10.0,increament,0.6,100.0,standard,25.0,1.0,0.0,0.3523118998855352
559,10.0,increament,0.6,100.0,standard,25.0,1.0,1.0,
560,10.0,increament,0.6,100.0,standard,25.0,1.0,1.0,
561,10.0,increament,0.6,100.0,standard,25.0,1.0,0.0,1.0562400999478996
562,10.0,increament,0.6,100.0,standard,25.0,1.0,1.0,
563,10.0,increament,0.6,100.0,standard,25.0,1.0,1.0,
564,10.0,increament,0.6,100.0,standard,25.0,1.0,0.0,0.378974299877882
565,10.0,increament,0.6,100.0,standard,25.0,1.0,1.0,
566,10.0,increament,0.6,100.0,standard,25.0,1.0,1.0,
567,10.0,increament,0.6,100.0,standard,25.0,1.0,1.0,
568,10.0,increament,0.84,140.0,oddball,27.0,1.0,1.0,0.1760927999857813
569,10.0,increament,0.6,100.0,standard,25.0,1.0,1.0,
570,10.0,decreament,0.6,100.0,standard,21.0,1.0,1.0,
571,10.0,decreament,0.6,100.0,standard,21.0,1.0,1.0,
572,10.0,decreament,0.6,100.0,standard,21.0,1.0,1.0,
573,10.0,decreament,0.6,100.0,standard,21.0,1.0,1.0,
574,10.0,decreament,0.6,100.0,standard,21.0,1.0,1.0,
575,10.0,decreament,0.6,100.0,standard,21.0,1.0,1.0,
576,10.0,decreament,0.6,100.0,standard,21.0,1.0,1.0,
577,10.0,decreament,0.6,100.0,standard,21.0,1.0,1.0,
578,10.0,decreament,0.48,80.0,oddball,24.0,1.0,0.0,
579,10.0,decreament,0.6,100.0,standard,21.0,1.0,1.0,
580,10.0,decreament,0.6,100.0,standard,21.0,1.0,1.0,
581,10.0,decreament,0.6,100.0,standard,21.0,1.0,1.0,
582,10.0,decreament,0.6,100.0,standard,21.0,1.0,1.0,
583,10.0,decreament,0.6,100.0,standard,21.0,1.0,1.0,
584,10.0,decreament,0.6,100.0,standard,21.0,1.0,1.0,
585,10.0,decreament,0.6,100.0,standard,21.0,1.0,1.0,
586,10.0,decreament,0.36,60.0,oddball,23.0,1.0,1.0,0.6094423998147249
587,10.0,decreament,0.6,100.0,standard,21.0,1.0,1.0,
588,10.0,decreament,0.6,100.0,standard,21.0,1.0,1.0,
589,10.0,decreament,0.6,100.0,standard,21.0,1.0,0.0,0.467925600009039
590,10.0,decreament,0.6,100.0,standard,21.0,1.0,1.0,
591,10.0,decreament,0.6,100.0,standard,21.0,1.0,0.0,1.2852711000014096
592,10.0,decreament,0.24,40.0,oddball,22.0,1.0,1.0,0.6446080999448895
593,10.0,decreament,0.6,100.0,standard,21.0,1.0,1.0,
594,10.0,decreament,0.6,100.0,standard,21.0,1.0,1.0,
595,10.0,decreament,0.6,100.0,standard,21.0,1.0,1.0,
596,10.0,decreament,0.6,100.0,standard,21.0,1.0,0.0,0.4505305998027324
597,10.0,decreament,0.6,100.0,standard,21.0,1.0,1.0,
598,10.0,decreament,0.6,100.0,standard,21.0,1.0,1.0,
599,10.0,decreament,0.6,100.0,standard,21.0,1.0,1.0,
600,20.0,increament,0.6,100.0,standard,45.0,2.0,1.0,
601,20.0,increament,0.6,100.0,standard,45.0,2.0,1.0,
602,20.0,increament,0.6,100.0,standard,45.0,2.0,1.0,
603,20.0,increament,0.6,100.0,standard,45.0,2.0,1.0,
604,20.0,increament,0.6,100.0,standard,45.0,2.0,1.0,
605,20.0,increament,0.6,100.0,standard,45.0,2.0,1.0,
606,20.0,increament,0.96,160.0,oddball,48.0,2.0,1.0,0.142645799787715
607,20.0,increament,0.6,100.0,standard,45.0,2.0,1.0,
608,20.0,increament,0.6,100.0,standard,45.0,2.0,1.0,
609,20.0,increament,0.6,100.0,standard,45.0,2.0,0.0,0.4123937997501343
610,20.0,increament,0.6,100.0,standard,45.0,2.0,0.0,0.4686142997816205
611,20.0,increament,0.6,100.0,standard,45.0,2.0,1.0,
612,20.0,increament,0.6,100.0,standard,45.0,2.0,1.0,
613,20.0,increament,0.6,100.0,standard,45.0,2.0,1.0,
614,20.0,increament,0.6,100.0,standard,45.0,2.0,1.0,
615,20.0,increament,0.6,100.0,standard,45.0,2.0,1.0,
616,20.0,increament,0.72,120.0,oddball,46.0,2.0,1.0,0.3674769999925047
617,20.0,increament,0.6,100.0,standard,45.0,2.0,1.0,
618,20.0,increament,0.6,100.0,standard,45.0,2.0,1.0,
619,20.0,increament,0.6,100.0,standard,45.0,2.0,1.0,
620,20.0,increament,0.6,100.0,standard,45.0,2.0,1.0,
621,20.0,increament,0.6,100.0,standard,45.0,2.0,1.0,
622,20.0,increament,0.6,100.0,standard,45.0,2.0,1.0,
623,20.0,increament,0.6,100.0,standard,45.0,2.0,1.0,
624,20.0,increament,0.6,100.0,standard,45.0,2.0,0.0,0.4121666999999434
625,20.0,increament,0.6,100.0,standard,45.0,2.0,1.0,
626,20.0,increament,0.6,100.0,standard,45.0,2.0,1.0,
627,20.0,increament,0.6,100.0,standard,45.0,2.0,1.0,
628,20.0,increament,0.84,140.0,oddball,47.0,2.0,1.0,0.258370499825105
629,20.0,increament,0.6,100.0,standard,45.0,2.0,1.0,
630,20.0,decreament,0.6,100.0,standard,41.0,2.0,1.0,
631,20.0,decreament,0.6,100.0,standard,41.0,2.0,1.0,
632,20.0,decreament,0.6,100.0,standard,41.0,2.0,1.0,
633,20.0,decreament,0.6,100.0,standard,41.0,2.0,1.0,
634,20.0,decreament,0.6,100.0,standard,41.0,2.0,1.0,
635,20.0,decreament,0.36,60.0,oddball,43.0,2.0,1.0,0.7245308998972178
636,20.0,decreament,0.6,100.0,standard,41.0,2.0,1.0,
637,20.0,decreament,0.6,100.0,standard,41.0,2.0,1.0,
638,20.0,decreament,0.6,100.0,standard,41.0,2.0,1.0,
639,20.0,decreament,0.6,100.0,standard,41.0,2.0,1.0,
640,20.0,decreament,0.48,80.0,oddball,44.0,2.0,0.0,
641,20.0,decreament,0.6,100.0,standard,41.0,2.0,1.0,
642,20.0,decreament,0.6,100.0,standard,41.0,2.0,1.0,
643,20.0,decreament,0.6,100.0,standard,41.0,2.0,1.0,
644,20.0,decreament,0.6,100.0,standard,41.0,2.0,1.0,
645,20.0,decreament,0.6,100.0,standard,41.0,2.0,0.0,0.2146617998369038
646,20.0,decreament,0.6,100.0,standard,41.0,2.0,1.0,
647,20.0,decreament,0.6,100.0,standard,41.0,2.0,1.0,
648,20.0,decreament,0.6,100.0,standard,41.0,2.0,1.0,
649,20.0,decreament,0.24,40.0,oddball,42.0,2.0,1.0,0.5883759998250753
650,20.0,decreament,0.6,100.0,standard,41.0,2.0,1.0,
651,20.0,decreament,0.6,100.0,standard,41.0,2.0,1.0,
652,20.0,decreament,0.6,100.0,standard,41.0,2.0,1.0,
653,20.0,decreament,0.6,100.0,standard,41.0,2.0,1.0,
654,20.0,decreament,0.6,100.0,standard,41.0,2.0,0.0,0.1856809998862445
655,20.0,decreament,0.6,100.0,standard,41.0,2.0,0.0,0.6239916998893023
656,20.0,decreament,0.6,100.0,standard,41.0,2.0,1.0,
657,20.0,decreament,0.6,100.0,standard,41.0,2.0,1.0,
658,20.0,decreament,0.6,100.0,standard,41.0,2.0,1.0,
659,20.0,decreament,0.6,100.0,standard,41.0,2.0,1.0,
660,20.0,increament,0.6,100.0,standard,45.0,2.0,1.0,
661,20.0,increament,0.6,100.0,standard,45.0,2.0,1.0,
662,20.0,increament,0.6,100.0,standard,45.0,2.0,1.0,
663,20.0,increament,0.6,100.0,standard,45.0,2.0,1.0,
664,20.0,increament,0.6,100.0,standard,45.0,2.0,1.0,
665,20.0,increament,0.6,100.0,standard,45.0,2.0,1.0,
666,20.0,increament,0.6,100.0,standard,45.0,2.0,1.0,
667,20.0,increament,0.6,100.0,standard,45.0,2.0,1.0,
668,20.0,increament,0.6,100.0,standard,45.0,2.0,1.0,
669,20.0,increament,0.6,100.0,standard,45.0,2.0,1.0,
670,20.0,increament,0.6,100.0,standard,45.0,2.0,1.0,
671,20.0,increament,0.6,100.0,standard,45.0,2.0,1.0,
672,20.0,increament,0.6,100.0,standard,45.0,2.0,0.0,0.3082518998999148
673,20.0,increament,0.6,100.0,standard,45.0,2.0,1.0,
674,20.0,increament,0.84,140.0,oddball,47.0,2.0,1.0,0.548378299921751
675,20.0,increament,0.6,100.0,standard,45.0,2.0,1.0,
676,20.0,increament,0.6,100.0,standard,45.0,2.0,1.0,
677,20.0,increament,0.6,100.0,standard,45.0,2.0,1.0,
678,20.0,increament,0.6,100.0,standard,45.0,2.0,1.0,
679,20.0,increament,0.6,100.0,standard,45.0,2.0,1.0,
680,20.0,increament,0.6,100.0,standard,45.0,2.0,1.0,
681,20.0,increament,0.6,100.0,standard,45.0,2.0,0.0,0.4040713999420404
682,20.0,increament,0.6,100.0,standard,45.0,2.0,1.0,
683,20.0,increament,0.96,160.0,oddball,48.0,2.0,1.0,0.4477062998339534
684,20.0,increament,0.6,100.0,standard,45.0,2.0,1.0,
685,20.0,increament,0.6,100.0,standard,45.0,2.0,1.0,
686,20.0,increament,0.6,100.0,standard,45.0,2.0,1.0,
687,20.0,increament,0.72,120.0,oddball,46.0,2.0,1.0,0.3383432999253273
688,20.0,increament,0.6,100.0,standard,45.0,2.0,1.0,
689,20.0,increament,0.6,100.0,standard,45.0,2.0,1.0,
690,20.0,decreament,0.6,100.0,standard,41.0,2.0,1.0,
691,20.0,decreament,0.6,100.0,standard,41.0,2.0,1.0,
692,20.0,decreament,0.6,100.0,standard,41.0,2.0,1.0,
693,20.0,decreament,0.6,100.0,standard,41.0,2.0,1.0,
694,20.0,decreament,0.6,100.0,standard,41.0,2.0,1.0,
695,20.0,decreament,0.24,40.0,oddball,42.0,2.0,1.0,0.7350486998911947
696,20.0,decreament,0.6,100.0,standard,41.0,2.0,1.0,
697,20.0,decreament,0.6,100.0,standard,41.0,2.0,1.0,
698,20.0,decreament,0.6,100.0,standard,41.0,2.0,1.0,
699,20.0,decreament,0.6,100.0,standard,41.0,2.0,1.0,
700,20.0,decreament,0.6,100.0,standard,41.0,2.0,1.0,
701,20.0,decreament,0.6,100.0,standard,41.0,2.0,1.0,
702,20.0,decreament,0.6,100.0,standard,41.0,2.0,1.0,
703,20.0,decreament,0.6,100.0,standard,41.0,2.0,1.0,
704,20.0,decreament,0.6,100.0,standard,41.0,2.0,1.0,
705,20.0,decreament,0.6,100.0,standard,41.0,2.0,1.0,
706,20.0,decreament,0.6,100.0,standard,41.0,2.0,1.0,
707,20.0,decreament,0.6,100.0,standard,41.0,2.0,1.0,
708,20.0,decreament,0.36,60.0,oddball,43.0,2.0,1.0,0.5864098998717964
709,20.0,decreament,0.6,100.0,standard,41.0,2.0,1.0,
710,20.0,decreament,0.6,100.0,standard,41.0,2.0,1.0,
711,20.0,decreament,0.6,100.0,standard,41.0,2.0,1.0,
712,20.0,decreament,0.6,100.0,standard,41.0,2.0,1.0,
713,20.0,decreament,0.6,100.0,standard,41.0,2.0,1.0,
714,20.0,decreament,0.6,100.0,standard,41.0,2.0,1.0,
715,20.0,decreament,0.6,100.0,standard,41.0,2.0,1.0,
716,20.0,decreament,0.48,80.0,oddball,44.0,2.0,0.0,
717,20.0,decreament,0.6,100.0,standard,41.0,2.0,1.0,
718,20.0,decreament,0.6,100.0,standard,41.0,2.0,1.0,
719,20.0,decreament,0.6,100.0,standard,41.0,2.0,1.0,
720,20.0,increament,0.6,100.0,standard,45.0,2.0,1.0,
721,20.0,increament,0.6,100.0,standard,45.0,2.0,1.0,
722,20.0,increament,0.6,100.0,standard,45.0,2.0,1.0,
723,20.0,increament,0.6,100.0,standard,45.0,2.0,1.0,
724,20.0,increament,0.6,100.0,standard,45.0,2.0,1.0,
725,20.0,increament,0.96,160.0,oddball,48.0,2.0,1.0,0.3226707999128848
726,20.0,increament,0.6,100.0,standard,45.0,2.0,1.0,
727,20.0,increament,0.6,100.0,standard,45.0,2.0,1.0,
728,20.0,increament,0.6,100.0,standard,45.0,2.0,1.0,
729,20.0,increament,0.6,100.0,standard,45.0,2.0,1.0,
730,20.0,increament,0.84,140.0,oddball,47.0,2.0,0.0,
731,20.0,increament,0.6,100.0,standard,45.0,2.0,1.0,
732,20.0,increament,0.6,100.0,standard,45.0,2.0,1.0,
733,20.0,increament,0.6,100.0,standard,45.0,2.0,1.0,
734,20.0,increament,0.6,100.0,standard,45.0,2.0,1.0,
735,20.0,increament,0.6,100.0,standard,45.0,2.0,1.0,
736,20.0,increament,0.6,100.0,standard,45.0,2.0,0.0,0.3963798000477254
737,20.0,increament,0.6,100.0,standard,45.0,2.0,1.0,
738,20.0,increament,0.6,100.0,standard,45.0,2.0,1.0,
739,20.0,increament,0.6,100.0,standard,45.0,2.0,1.0,
740,20.0,increament,0.6,100.0,standard,45.0,2.0,1.0,
741,20.0,increament,0.6,100.0,standard,45.0,2.0,1.0,
742,20.0,increament,0.6,100.0,standard,45.0,2.0,0.0,0.4045696998946368
743,20.0,increament,0.72,120.0,oddball,46.0,2.0,1.0,0.4205670999363065
744,20.0,increament,0.6,100.0,standard,45.0,2.0,1.0,
745,20.0,increament,0.6,100.0,standard,45.0,2.0,1.0,
746,20.0,increament,0.6,100.0,standard,45.0,2.0,1.0,
747,20.0,increament,0.6,100.0,standard,45.0,2.0,1.0,
748,20.0,increament,0.6,100.0,standard,45.0,2.0,1.0,
749,20.0,increament,0.6,100.0,standard,45.0,2.0,1.0,
750,20.0,decreament,0.6,100.0,standard,41.0,2.0,1.0,
751,20.0,decreament,0.6,100.0,standard,41.0,2.0,1.0,
752,20.0,decreament,0.6,100.0,standard,41.0,2.0,1.0,
753,20.0,decreament,0.6,100.0,standard,41.0,2.0,1.0,
754,20.0,decreament,0.6,100.0,standard,41.0,2.0,1.0,
755,20.0,decreament,0.6,100.0,standard,41.0,2.0,1.0,
756,20.0,decreament,0.6,100.0,standard,41.0,2.0,1.0,
757,20.0,decreament,0.6,100.0,standard,41.0,2.0,1.0,
758,20.0,decreament,0.6,100.0,standard,41.0,2.0,1.0,
759,20.0,decreament,0.36,60.0,oddball,43.0,2.0,1.0,0.5103452999610454
760,20.0,decreament,0.6,100.0,standard,41.0,2.0,1.0,
761,20.0,decreament,0.6,100.0,standard,41.0,2.0,1.0,
762,20.0,decreament,0.6,100.0,standard,41.0,2.0,1.0,
763,20.0,decreament,0.6,100.0,standard,41.0,2.0,1.0,
764,20.0,decreament,0.6,100.0,standard,41.0,2.0,1.0,
765,20.0,decreament,0.6,100.0,standard,41.0,2.0,1.0,
766,20.0,decreament,0.6,100.0,standard,41.0,2.0,1.0,
767,20.0,decreament,0.6,100.0,standard,41.0,2.0,0.0,0.2769333999603987
768,20.0,decreament,0.6,100.0,standard,41.0,2.0,1.0,
769,20.0,decreament,0.48,80.0,oddball,44.0,2.0,0.0,
770,20.0,decreament,0.6,100.0,standard,41.0,2.0,1.0,
771,20.0,decreament,0.6,100.0,standard,41.0,2.0,1.0,
772,20.0,decreament,0.6,100.0,standard,41.0,2.0,0.0,0.5197606000583619
773,20.0,decreament,0.6,100.0,standard,41.0,2.0,1.0,
774,20.0,decreament,0.24,40.0,oddball,42.0,2.0,1.0,0.6378453997895122
775,20.0,decreament,0.6,100.0,standard,41.0,2.0,1.0,
776,20.0,decreament,0.6,100.0,standard,41.0,2.0,1.0,
777,20.0,decreament,0.6,100.0,standard,41.0,2.0,1.0,
778,20.0,decreament,0.6,100.0,standard,41.0,2.0,1.0,
779,20.0,decreament,0.6,100.0,standard,41.0,2.0,1.0,
780,20.0,increament,0.6,100.0,standard,45.0,2.0,1.0,
781,20.0,increament,0.6,100.0,standard,45.0,2.0,1.0,
782,20.0,increament,0.6,100.0,standard,45.0,2.0,1.0,
783,20.0,increament,0.6,100.0,standard,45.0,2.0,1.0,
784,20.0,increament,0.6,100.0,standard,45.0,2.0,1.0,
785,20.0,increament,0.72,120.0,oddball,46.0,2.0,0.0,
786,20.0,increament,0.6,100.0,standard,45.0,2.0,0.0,0.4346352000720799
787,20.0,increament,0.6,100.0,standard,45.0,2.0,1.0,
788,20.0,increament,0.6,100.0,standard,45.0,2.0,1.0,
789,20.0,increament,0.6,100.0,standard,45.0,2.0,1.0,
790,20.0,increament,0.6,100.0,standard,45.0,2.0,1.0,
791,20.0,increament,0.6,100.0,standard,45.0,2.0,1.0,
792,20.0,increament,0.6,100.0,standard,45.0,2.0,1.0,
793,20.0,increament,0.6,100.0,standard,45.0,2.0,1.0,
794,20.0,increament,0.6,100.0,standard,45.0,2.0,1.0,
795,20.0,increament,0.96,160.0,oddball,48.0,2.0,0.0,
796,20.0,increament,0.6,100.0,standard,45.0,2.0,1.0,
797,20.0,increament,0.6,100.0,standard,45.0,2.0,1.0,
798,20.0,increament,0.6,100.0,standard,45.0,2.0,1.0,
799,20.0,increament,0.6,100.0,standard,45.0,2.0,1.0,
800,20.0,increament,0.6,100.0,standard,45.0,2.0,0.0,0.3488171999342739
801,20.0,increament,0.6,100.0,standard,45.0,2.0,1.0,
802,20.0,increament,0.6,100.0,standard,45.0,2.0,1.0,
803,20.0,increament,0.6,100.0,standard,45.0,2.0,1.0,
804,20.0,increament,0.6,100.0,standard,45.0,2.0,1.0,
805,20.0,increament,0.6,100.0,standard,45.0,2.0,0.0,0.3417350999079644
806,20.0,increament,0.6,100.0,standard,45.0,2.0,1.0,
807,20.0,increament,0.84,140.0,oddball,47.0,2.0,0.0,
808,20.0,increament,0.6,100.0,standard,45.0,2.0,1.0,
809,20.0,increament,0.6,100.0,standard,45.0,2.0,0.0,0.3818275998346507
810,20.0,decreament,0.6,100.0,standard,41.0,2.0,1.0,
811,20.0,decreament,0.6,100.0,standard,41.0,2.0,1.0,
812,20.0,decreament,0.6,100.0,standard,41.0,2.0,1.0,
813,20.0,decreament,0.6,100.0,standard,41.0,2.0,1.0,
814,20.0,decreament,0.6,100.0,standard,41.0,2.0,1.0,
815,20.0,decreament,0.6,100.0,standard,41.0,2.0,1.0,
816,20.0,decreament,0.6,100.0,standard,41.0,2.0,1.0,
817,20.0,decreament,0.6,100.0,standard,41.0,2.0,1.0,
818,20.0,decreament,0.6,100.0,standard,41.0,2.0,1.0,
819,20.0,decreament,0.6,100.0,standard,41.0,2.0,1.0,
820,20.0,decreament,0.6,100.0,standard,41.0,2.0,1.0,
821,20.0,decreament,0.24,40.0,oddball,42.0,2.0,1.0,0.5705656998325139
822,20.0,decreament,0.6,100.0,standard,41.0,2.0,1.0,
823,20.0,decreament,0.6,100.0,standard,41.0,2.0,1.0,
824,20.0,decreament,0.6,100.0,standard,41.0,2.0,1.0,
825,20.0,decreament,0.6,100.0,standard,41.0,2.0,1.0,
826,20.0,decreament,0.36,60.0,oddball,43.0,2.0,1.0,0.6678639000747353
827,20.0,decreament,0.6,100.0,standard,41.0,2.0,1.0,
828,20.0,decreament,0.6,100.0,standard,41.0,2.0,1.0,
829,20.0,decreament,0.6,100.0,standard,41.0,2.0,1.0,
830,20.0,decreament,0.6,100.0,standard,41.0,2.0,1.0,
831,20.0,decreament,0.48,80.0,oddball,44.0,2.0,1.0,1.120790099957958
832,20.0,decreament,0.6,100.0,standard,41.0,2.0,1.0,
833,20.0,decreament,0.6,100.0,standard,41.0,2.0,1.0,
834,20.0,decreament,0.6,100.0,standard,41.0,2.0,1.0,
835,20.0,decreament,0.6,100.0,standard,41.0,2.0,1.0,
836,20.0,decreament,0.6,100.0,standard,41.0,2.0,1.0,
837,20.0,decreament,0.6,100.0,standard,41.0,2.0,1.0,
838,20.0,decreament,0.6,100.0,standard,41.0,2.0,1.0,
839,20.0,decreament,0.6,100.0,standard,41.0,2.0,1.0,
840,20.0,increament,0.6,100.0,standard,45.0,2.0,1.0,
841,20.0,increament,0.6,100.0,standard,45.0,2.0,1.0,
842,20.0,increament,0.6,100.0,standard,45.0,2.0,1.0,
843,20.0,increament,0.6,100.0,standard,45.0,2.0,1.0,
844,20.0,increament,0.6,100.0,standard,45.0,2.0,1.0,
845,20.0,increament,0.6,100.0,standard,45.0,2.0,1.0,
846,20.0,increament,0.6,100.0,standard,45.0,2.0,1.0,
847,20.0,increament,0.84,140.0,oddball,47.0,2.0,1.0,0.2309499997645616
848,20.0,increament,0.6,100.0,standard,45.0,2.0,1.0,
849,20.0,increament,0.6,100.0,standard,45.0,2.0,0.0,0.3397643999196589
850,20.0,increament,0.6,100.0,standard,45.0,2.0,1.0,
851,20.0,increament,0.6,100.0,standard,45.0,2.0,1.0,
852,20.0,increament,0.72,120.0,oddball,46.0,2.0,1.0,0.4177463999949395
853,20.0,increament,0.6,100.0,standard,45.0,2.0,1.0,
854,20.0,increament,0.6,100.0,standard,45.0,2.0,1.0,
855,20.0,increament,0.6,100.0,standard,45.0,2.0,1.0,
856,20.0,increament,0.6,100.0,standard,45.0,2.0,1.0,
857,20.0,increament,0.6,100.0,standard,45.0,2.0,1.0,
858,20.0,increament,0.6,100.0,standard,45.0,2.0,1.0,
859,20.0,increament,0.6,100.0,standard,45.0,2.0,1.0,
860,20.0,increament,0.6,100.0,standard,45.0,2.0,1.0,
861,20.0,increament,0.6,100.0,standard,45.0,2.0,1.0,
862,20.0,increament,0.6,100.0,standard,45.0,2.0,0.0,0.3306275999639183
863,20.0,increament,0.6,100.0,standard,45.0,2.0,1.0,
864,20.0,increament,0.6,100.0,standard,45.0,2.0,1.0,
865,20.0,increament,0.6,100.0,standard,45.0,2.0,1.0,
866,20.0,increament,0.6,100.0,standard,45.0,2.0,1.0,
867,20.0,increament,0.6,100.0,standard,45.0,2.0,1.0,
868,20.0,increament,0.96,160.0,oddball,48.0,2.0,1.0,0.5340952998958528
869,20.0,increament,0.6,100.0,standard,45.0,2.0,1.0,
870,20.0,decreament,0.6,100.0,standard,41.0,2.0,1.0,
871,20.0,decreament,0.6,100.0,standard,41.0,2.0,1.0,
872,20.0,decreament,0.6,100.0,standard,41.0,2.0,1.0,
873,20.0,decreament,0.6,100.0,standard,41.0,2.0,1.0,
874,20.0,decreament,0.6,100.0,standard,41.0,2.0,1.0,
875,20.0,decreament,0.6,100.0,standard,41.0,2.0,1.0,
876,20.0,decreament,0.24,40.0,oddball,42.0,2.0,1.0,0.7230525997001678
877,20.0,decreament,0.6,100.0,standard,41.0,2.0,1.0,
878,20.0,decreament,0.6,100.0,standard,41.0,2.0,1.0,
879,20.0,decreament,0.6,100.0,standard,41.0,2.0,1.0,
880,20.0,decreament,0.6,100.0,standard,41.0,2.0,1.0,
881,20.0,decreament,0.6,100.0,standard,41.0,2.0,1.0,
882,20.0,decreament,0.6,100.0,standard,41.0,2.0,1.0,
883,20.0,decreament,0.6,100.0,standard,41.0,2.0,1.0,
884,20.0,decreament,0.6,100.0,standard,41.0,2.0,1.0,
885,20.0,decreament,0.6,100.0,standard,41.0,2.0,1.0,
886,20.0,decreament,0.6,100.0,standard,41.0,2.0,1.0,
887,20.0,decreament,0.6,100.0,standard,41.0,2.0,0.0,0.2490827997680753
888,20.0,decreament,0.36,60.0,oddball,43.0,2.0,1.0,0.6860660000238568
889,20.0,decreament,0.6,100.0,standard,41.0,2.0,1.0,
890,20.0,decreament,0.6,100.0,standard,41.0,2.0,1.0,
891,20.0,decreament,0.6,100.0,standard,41.0,2.0,0.0,0.5181934998836368
892,20.0,decreament,0.6,100.0,standard,41.0,2.0,1.0,
893,20.0,decreament,0.6,100.0,standard,41.0,2.0,0.0,0.7314283000305295
894,20.0,decreament,0.6,100.0,standard,41.0,2.0,1.0,
895,20.0,decreament,0.6,100.0,standard,41.0,2.0,0.0,0.8675339999608696
896,20.0,decreament,0.48,80.0,oddball,44.0,2.0,0.0,
897,20.0,decreament,0.6,100.0,standard,41.0,2.0,1.0,
898,20.0,decreament,0.6,100.0,standard,41.0,2.0,1.0,
899,20.0,decreament,0.6,100.0,standard,41.0,2.0,1.0,
900,0.0,increament,0.6,100.0,standard,5.0,3.0,1.0,
901,0.0,increament,0.6,100.0,standard,5.0,3.0,1.0,
902,0.0,increament,0.6,100.0,standard,5.0,3.0,1.0,
903,0.0,increament,0.6,100.0,standard,5.0,3.0,1.0,
904,0.0,increament,0.6,100.0,standard,5.0,3.0,1.0,
905,0.0,increament,0.6,100.0,standard,5.0,3.0,1.0,
906,0.0,increament,0.6,100.0,standard,5.0,3.0,0.0,0.6414649998769164
907,0.0,increament,0.6,100.0,standard,5.0,3.0,1.0,
908,0.0,increament,0.6,100.0,standard,5.0,3.0,1.0,
909,0.0,increament,0.6,100.0,standard,5.0,3.0,1.0,
910,0.0,increament,0.6,100.0,standard,5.0,3.0,1.0,
911,0.0,increament,0.6,100.0,standard,5.0,3.0,1.0,
912,0.0,increament,0.6,100.0,standard,5.0,3.0,0.0,0.372204199898988
913,0.0,increament,0.6,100.0,standard,5.0,3.0,1.0,
914,0.0,increament,0.96,160.0,oddball,8.0,3.0,1.0,0.0612560997251421
915,0.0,increament,0.6,100.0,standard,5.0,3.0,1.0,
916,0.0,increament,0.6,100.0,standard,5.0,3.0,1.0,
917,0.0,increament,0.6,100.0,standard,5.0,3.0,1.0,
918,0.0,increament,0.6,100.0,standard,5.0,3.0,1.0,
919,0.0,increament,0.6,100.0,standard,5.0,3.0,1.0,
920,0.0,increament,0.84,140.0,oddball,7.0,3.0,1.0,0.4614667999558151
921,0.0,increament,0.6,100.0,standard,5.0,3.0,1.0,
922,0.0,increament,0.6,100.0,standard,5.0,3.0,1.0,
923,0.0,increament,0.6,100.0,standard,5.0,3.0,1.0,
924,0.0,increament,0.6,100.0,standard,5.0,3.0,1.0,
925,0.0,increament,0.6,100.0,standard,5.0,3.0,1.0,
926,0.0,increament,0.72,120.0,oddball,6.0,3.0,1.0,0.4023663997650146
927,0.0,increament,0.6,100.0,standard,5.0,3.0,1.0,
928,0.0,increament,0.6,100.0,standard,5.0,3.0,1.0,
929,0.0,increament,0.6,100.0,standard,5.0,3.0,1.0,
930,0.0,decreament,0.6,100.0,standard,1.0,3.0,1.0,
931,0.0,decreament,0.6,100.0,standard,1.0,3.0,1.0,
932,0.0,decreament,0.6,100.0,standard,1.0,3.0,1.0,
933,0.0,decreament,0.6,100.0,standard,1.0,3.0,1.0,
934,0.0,decreament,0.6,100.0,standard,1.0,3.0,1.0,
935,0.0,decreament,0.6,100.0,standard,1.0,3.0,1.0,
936,0.0,decreament,0.24,40.0,oddball,2.0,3.0,1.0,0.8647479999344796
937,0.0,decreament,0.6,100.0,standard,1.0,3.0,1.0,
938,0.0,decreament,0.6,100.0,standard,1.0,3.0,1.0,
939,0.0,decreament,0.6,100.0,standard,1.0,3.0,1.0,
940,0.0,decreament,0.6,100.0,standard,1.0,3.0,1.0,
941,0.0,decreament,0.6,100.0,standard,1.0,3.0,1.0,
942,0.0,decreament,0.6,100.0,standard,1.0,3.0,1.0,
943,0.0,decreament,0.48,80.0,oddball,4.0,3.0,1.0,0.4614684998523444
944,0.0,decreament,0.6,100.0,standard,1.0,3.0,1.0,
945,0.0,decreament,0.6,100.0,standard,1.0,3.0,1.0,
946,0.0,decreament,0.6,100.0,standard,1.0,3.0,1.0,
947,0.0,decreament,0.6,100.0,standard,1.0,3.0,0.0,0.5710115998517722
948,0.0,decreament,0.6,100.0,standard,1.0,3.0,1.0,
949,0.0,decreament,0.6,100.0,standard,1.0,3.0,1.0,
950,0.0,decreament,0.6,100.0,standard,1.0,3.0,1.0,
951,0.0,decreament,0.6,100.0,standard,1.0,3.0,1.0,
952,0.0,decreament,0.36,60.0,oddball,3.0,3.0,1.0,0.5342345999088138
953,0.0,decreament,0.6,100.0,standard,1.0,3.0,1.0,
954,0.0,decreament,0.6,100.0,standard,1.0,3.0,1.0,
955,0.0,decreament,0.6,100.0,standard,1.0,3.0,1.0,
956,0.0,decreament,0.6,100.0,standard,1.0,3.0,1.0,
957,0.0,decreament,0.6,100.0,standard,1.0,3.0,1.0,
958,0.0,decreament,0.6,100.0,standard,1.0,3.0,1.0,
959,0.0,decreament,0.6,100.0,standard,1.0,3.0,1.0,
960,0.0,increament,0.6,100.0,standard,5.0,3.0,1.0,
961,0.0,increament,0.6,100.0,standard,5.0,3.0,1.0,
962,0.0,increament,0.6,100.0,standard,5.0,3.0,1.0,
963,0.0,increament,0.6,100.0,standard,5.0,3.0,1.0,
964,0.0,increament,0.6,100.0,standard,5.0,3.0,1.0,
965,0.0,increament,0.6,100.0,standard,5.0,3.0,1.0,
966,0.0,increament,0.6,100.0,standard,5.0,3.0,1.0,
967,0.0,increament,0.6,100.0,standard,5.0,3.0,1.0,
968,0.0,increament,0.6,100.0,standard,5.0,3.0,1.0,
969,0.0,increament,0.6,100.0,standard,5.0,3.0,1.0,
970,0.0,increament,0.6,100.0,standard,5.0,3.0,1.0,
971,0.0,increament,0.84,140.0,oddball,7.0,3.0,1.0,0.3155138997826725
972,0.0,increament,0.6,100.0,standard,5.0,3.0,1.0,
973,0.0,increament,0.6,100.0,standard,5.0,3.0,1.0,
974,0.0,increament,0.6,100.0,standard,5.0,3.0,1.0,
975,0.0,increament,0.6,100.0,standard,5.0,3.0,1.0,
976,0.0,increament,0.96,160.0,oddball,8.0,3.0,1.0,0.2701415000483393
977,0.0,increament,0.6,100.0,standard,5.0,3.0,1.0,
978,0.0,increament,0.6,100.0,standard,5.0,3.0,1.0,
979,0.0,increament,0.6,100.0,standard,5.0,3.0,1.0,
980,0.0,increament,0.6,100.0,standard,5.0,3.0,1.0,
981,0.0,increament,0.6,100.0,standard,5.0,3.0,1.0,
982,0.0,increament,0.6,100.0,standard,5.0,3.0,1.0,
983,0.0,increament,0.6,100.0,standard,5.0,3.0,1.0,
984,0.0,increament,0.6,100.0,standard,5.0,3.0,1.0,
985,0.0,increament,0.72,120.0,oddball,6.0,3.0,0.0,
986,0.0,increament,0.6,100.0,standard,5.0,3.0,1.0,
987,0.0,increament,0.6,100.0,standard,5.0,3.0,1.0,
988,0.0,increament,0.6,100.0,standard,5.0,3.0,1.0,
989,0.0,increament,0.6,100.0,standard,5.0,3.0,1.0,
990,0.0,decreament,0.6,100.0,standard,1.0,3.0,1.0,
991,0.0,decreament,0.6,100.0,standard,1.0,3.0,1.0,
992,0.0,decreament,0.6,100.0,standard,1.0,3.0,1.0,
993,0.0,decreament,0.6,100.0,standard,1.0,3.0,1.0,
994,0.0,decreament,0.6,100.0,standard,1.0,3.0,1.0,
995,0.0,decreament,0.6,100.0,standard,1.0,3.0,1.0,
996,0.0,decreament,0.6,100.0,standard,1.0,3.0,1.0,
997,0.0,decreament,0.6,100.0,standard,1.0,3.0,1.0,
998,0.0,decreament,0.6,100.0,standard,1.0,3.0,1.0,
999,0.0,decreament,0.48,80.0,oddball,4.0,3.0,0.0,
1000,0.0,decreament,0.6,100.0,standard,1.0,3.0,1.0,
1001,0.0,decreament,0.6,100.0,standard,1.0,3.0,0.0,0.8023806000128388
1002,0.0,decreament,0.6,100.0,standard,1.0,3.0,1.0,
1003,0.0,decreament,0.36,60.0,oddball,3.0,3.0,1.0,1.576101599726826
1004,0.0,decreament,0.6,100.0,standard,1.0,3.0,1.0,
1005,0.0,decreament,0.6,100.0,standard,1.0,3.0,1.0,
1006,0.0,decreament,0.6,100.0,standard,1.0,3.0,1.0,
1007,0.0,decreament,0.6,100.0,standard,1.0,3.0,1.0,
1008,0.0,decreament,0.6,100.0,standard,1.0,3.0,1.0,
1009,0.0,decreament,0.6,100.0,standard,1.0,3.0,1.0,
1010,0.0,decreament,0.6,100.0,standard,1.0,3.0,1.0,
1011,0.0,decreament,0.6,100.0,standard,1.0,3.0,1.0,
1012,0.0,decreament,0.6,100.0,standard,1.0,3.0,1.0,
1013,0.0,decreament,0.6,100.0,standard,1.0,3.0,1.0,
1014,0.0,decreament,0.6,100.0,standard,1.0,3.0,1.0,
1015,0.0,decreament,0.6,100.0,standard,1.0,3.0,0.0,0.4759390999097377
1016,0.0,decreament,0.6,100.0,standard,1.0,3.0,1.0,
1017,0.0,decreament,0.6,100.0,standard,1.0,3.0,1.0,
1018,0.0,decreament,0.24,40.0,oddball,2.0,3.0,1.0,0.5979448999278247
1019,0.0,decreament,0.6,100.0,standard,1.0,3.0,1.0,
1020,0.0,increament,0.6,100.0,standard,5.0,3.0,1.0,
1021,0.0,increament,0.6,100.0,standard,5.0,3.0,1.0,
1022,0.0,increament,0.6,100.0,standard,5.0,3.0,1.0,
1023,0.0,increament,0.6,100.0,standard,5.0,3.0,1.0,
1024,0.0,increament,0.6,100.0,standard,5.0,3.0,1.0,
1025,0.0,increament,0.6,100.0,standard,5.0,3.0,1.0,
1026,0.0,increament,0.6,100.0,standard,5.0,3.0,1.0,
1027,0.0,increament,0.6,100.0,standard,5.0,3.0,1.0,
1028,0.0,increament,0.6,100.0,standard,5.0,3.0,1.0,
1029,0.0,increament,0.6,100.0,standard,5.0,3.0,1.0,
1030,0.0,increament,0.96,160.0,oddball,8.0,3.0,1.0,0.0714327997993677
1031,0.0,increament,0.6,100.0,standard,5.0,3.0,1.0,
1032,0.0,increament,0.6,100.0,standard,5.0,3.0,1.0,
1033,0.0,increament,0.6,100.0,standard,5.0,3.0,1.0,
1034,0.0,increament,0.6,100.0,standard,5.0,3.0,1.0,
1035,0.0,increament,0.6,100.0,standard,5.0,3.0,1.0,
1036,0.0,increament,0.6,100.0,standard,5.0,3.0,1.0,
1037,0.0,increament,0.72,120.0,oddball,6.0,3.0,0.0,
1038,0.0,increament,0.6,100.0,standard,5.0,3.0,1.0,
1039,0.0,increament,0.6,100.0,standard,5.0,3.0,1.0,
1040,0.0,increament,0.6,100.0,standard,5.0,3.0,1.0,
1041,0.0,increament,0.6,100.0,standard,5.0,3.0,1.0,
1042,0.0,increament,0.84,140.0,oddball,7.0,3.0,1.0,0.5978053999133408
1043,0.0,increament,0.6,100.0,standard,5.0,3.0,1.0,
1044,0.0,increament,0.6,100.0,standard,5.0,3.0,1.0,
1045,0.0,increament,0.6,100.0,standard,5.0,3.0,1.0,
1046,0.0,increament,0.6,100.0,standard,5.0,3.0,1.0,
1047,0.0,increament,0.6,100.0,standard,5.0,3.0,1.0,
1048,0.0,increament,0.6,100.0,standard,5.0,3.0,1.0,
1049,0.0,increament,0.6,100.0,standard,5.0,3.0,1.0,
1050,0.0,decreament,0.6,100.0,standard,1.0,3.0,1.0,
1051,0.0,decreament,0.6,100.0,standard,1.0,3.0,1.0,
1052,0.0,decreament,0.6,100.0,standard,1.0,3.0,1.0,
1053,0.0,decreament,0.6,100.0,standard,1.0,3.0,1.0,
1054,0.0,decreament,0.6,100.0,standard,1.0,3.0,1.0,
1055,0.0,decreament,0.6,100.0,standard,1.0,3.0,1.0,
1056,0.0,decreament,0.6,100.0,standard,1.0,3.0,1.0,
1057,0.0,decreament,0.6,100.0,standard,1.0,3.0,1.0,
1058,0.0,decreament,0.6,100.0,standard,1.0,3.0,1.0,
1059,0.0,decreament,0.6,100.0,standard,1.0,3.0,1.0,
1060,0.0,decreament,0.6,100.0,standard,1.0,3.0,1.0,
1061,0.0,decreament,0.36,60.0,oddball,3.0,3.0,1.0,0.5769114999566227
1062,0.0,decreament,0.6,100.0,standard,1.0,3.0,1.0,
1063,0.0,decreament,0.6,100.0,standard,1.0,3.0,1.0,
1064,0.0,decreament,0.6,100.0,standard,1.0,3.0,1.0,
1065,0.0,decreament,0.6,100.0,standard,1.0,3.0,1.0,
1066,0.0,decreament,0.48,80.0,oddball,4.0,3.0,0.0,
1067,0.0,decreament,0.6,100.0,standard,1.0,3.0,1.0,
1068,0.0,decreament,0.6,100.0,standard,1.0,3.0,1.0,
1069,0.0,decreament,0.6,100.0,standard,1.0,3.0,1.0,
1070,0.0,decreament,0.6,100.0,standard,1.0,3.0,1.0,
1071,0.0,decreament,0.6,100.0,standard,1.0,3.0,1.0,
1072,0.0,decreament,0.6,100.0,standard,1.0,3.0,1.0,
1073,0.0,decreament,0.6,100.0,standard,1.0,3.0,1.0,
1074,0.0,decreament,0.24,40.0,oddball,2.0,3.0,1.0,0.5226225997321308
1075,0.0,decreament,0.6,100.0,standard,1.0,3.0,1.0,
1076,0.0,decreament,0.6,100.0,standard,1.0,3.0,1.0,
1077,0.0,decreament,0.6,100.0,standard,1.0,3.0,1.0,
1078,0.0,decreament,0.6,100.0,standard,1.0,3.0,1.0,
1079,0.0,decreament,0.6,100.0,standard,1.0,3.0,1.0,
1080,0.0,increament,0.6,100.0,standard,5.0,3.0,1.0,
1081,0.0,increament,0.6,100.0,standard,5.0,3.0,1.0,
1082,0.0,increament,0.6,100.0,standard,5.0,3.0,1.0,
1083,0.0,increament,0.6,100.0,standard,5.0,3.0,1.0,
1084,0.0,increament,0.6,100.0,standard,5.0,3.0,1.0,
1085,0.0,increament,0.6,100.0,standard,5.0,3.0,1.0,
1086,0.0,increament,0.6,100.0,standard,5.0,3.0,1.0,
1087,0.0,increament,0.6,100.0,standard,5.0,3.0,1.0,
1088,0.0,increament,0.6,100.0,standard,5.0,3.0,1.0,
1089,0.0,increament,0.6,100.0,standard,5.0,3.0,1.0,
1090,0.0,increament,0.84,140.0,oddball,7.0,3.0,1.0,0.1291187000460922
1091,0.0,increament,0.6,100.0,standard,5.0,3.0,1.0,
1092,0.0,increament,0.6,100.0,standard,5.0,3.0,1.0,
1093,0.0,increament,0.6,100.0,standard,5.0,3.0,1.0,
1094,0.0,increament,0.6,100.0,standard,5.0,3.0,1.0,
1095,0.0,increament,0.96,160.0,oddball,8.0,3.0,1.0,0.2418613999616354
1096,0.0,increament,0.6,100.0,standard,5.0,3.0,1.0,
1097,0.0,increament,0.6,100.0,standard,5.0,3.0,1.0,
1098,0.0,increament,0.6,100.0,standard,5.0,3.0,1.0,
1099,0.0,increament,0.6,100.0,standard,5.0,3.0,1.0,
1100,0.0,increament,0.6,100.0,standard,5.0,3.0,1.0,
1101,0.0,increament,0.6,100.0,standard,5.0,3.0,1.0,
1102,0.0,increament,0.6,100.0,standard,5.0,3.0,1.0,
1103,0.0,increament,0.6,100.0,standard,5.0,3.0,1.0,
1104,0.0,increament,0.6,100.0,standard,5.0,3.0,1.0,
1105,0.0,increament,0.6,100.0,standard,5.0,3.0,1.0,
1106,0.0,increament,0.6,100.0,standard,5.0,3.0,1.0,
1107,0.0,increament,0.6,100.0,standard,5.0,3.0,1.0,
1108,0.0,increament,0.72,120.0,oddball,6.0,3.0,0.0,
1109,0.0,increament,0.6,100.0,standard,5.0,3.0,1.0,
1110,0.0,decreament,0.6,100.0,standard,1.0,3.0,1.0,
1111,0.0,decreament,0.6,100.0,standard,1.0,3.0,1.0,
1112,0.0,decreament,0.6,100.0,standard,1.0,3.0,1.0,
1113,0.0,decreament,0.6,100.0,standard,1.0,3.0,1.0,
1114,0.0,decreament,0.6,100.0,standard,1.0,3.0,1.0,
1115,0.0,decreament,0.6,100.0,standard,1.0,3.0,1.0,
1116,0.0,decreament,0.6,100.0,standard,1.0,3.0,1.0,
1117,0.0,decreament,0.6,100.0,standard,1.0,3.0,1.0,
1118,0.0,decreament,0.36,60.0,oddball,3.0,3.0,1.0,0.5535055999644101
1119,0.0,decreament,0.6,100.0,standard,1.0,3.0,1.0,
1120,0.0,decreament,0.6,100.0,standard,1.0,3.0,1.0,
1121,0.0,decreament,0.6,100.0,standard,1.0,3.0,1.0,
1122,0.0,decreament,0.6,100.0,standard,1.0,3.0,1.0,
1123,0.0,decreament,0.6,100.0,standard,1.0,3.0,1.0,
1124,0.0,decreament,0.6,100.0,standard,1.0,3.0,1.0,
1125,0.0,decreament,0.6,100.0,standard,1.0,3.0,1.0,
1126,0.0,decreament,0.6,100.0,standard,1.0,3.0,1.0,
1127,0.0,decreament,0.6,100.0,standard,1.0,3.0,1.0,
1128,0.0,decreament,0.24,40.0,oddball,2.0,3.0,1.0,0.6146932998672128
1129,0.0,decreament,0.6,100.0,standard,1.0,3.0,1.0,
1130,0.0,decreament,0.6,100.0,standard,1.0,3.0,1.0,
1131,0.0,decreament,0.6,100.0,standard,1.0,3.0,1.0,
1132,0.0,decreament,0.6,100.0,standard,1.0,3.0,1.0,
1133,0.0,decreament,0.6,100.0,standard,1.0,3.0,1.0,
1134,0.0,decreament,0.6,100.0,standard,1.0,3.0,1.0,
1135,0.0,decreament,0.48,80.0,oddball,4.0,3.0,0.0,
1136,0.0,decreament,0.6,100.0,standard,1.0,3.0,1.0,
1137,0.0,decreament,0.6,100.0,standard,1.0,3.0,1.0,
1138,0.0,decreament,0.6,100.0,standard,1.0,3.0,1.0,
1139,0.0,decreament,0.6,100.0,standard,1.0,3.0,1.0,
1140,0.0,increament,0.6,100.0,standard,5.0,3.0,1.0,
1141,0.0,increament,0.6,100.0,standard,5.0,3.0,1.0,
1142,0.0,increament,0.6,100.0,standard,5.0,3.0,1.0,
1143,0.0,increament,0.6,100.0,standard,5.0,3.0,1.0,
1144,0.0,increament,0.6,100.0,standard,5.0,3.0,1.0,
1145,0.0,increament,0.6,100.0,standard,5.0,3.0,1.0,
1146,0.0,increament,0.72,120.0,oddball,6.0,3.0,0.0,
1147,0.0,increament,0.6,100.0,standard,5.0,3.0,1.0,
1148,0.0,increament,0.6,100.0,standard,5.0,3.0,1.0,
1149,0.0,increament,0.6,100.0,standard,5.0,3.0,1.0,
1150,0.0,increament,0.6,100.0,standard,5.0,3.0,1.0,
1151,0.0,increament,0.6,100.0,standard,5.0,3.0,1.0,
1152,0.0,increament,0.6,100.0,standard,5.0,3.0,1.0,
1153,0.0,increament,0.96,160.0,oddball,8.0,3.0,1.0,0.364304699935019
1154,0.0,increament,0.6,100.0,standard,5.0,3.0,1.0,
1155,0.0,increament,0.6,100.0,standard,5.0,3.0,1.0,
1156,0.0,increament,0.6,100.0,standard,5.0,3.0,1.0,
1157,0.0,increament,0.6,100.0,standard,5.0,3.0,1.0,
1158,0.0,increament,0.6,100.0,standard,5.0,3.0,1.0,
1159,0.0,increament,0.6,100.0,standard,5.0,3.0,1.0,
1160,0.0,increament,0.6,100.0,standard,5.0,3.0,1.0,
1161,0.0,increament,0.6,100.0,standard,5.0,3.0,1.0,
1162,0.0,increament,0.6,100.0,standard,5.0,3.0,1.0,
1163,0.0,increament,0.6,100.0,standard,5.0,3.0,1.0,
1164,0.0,increament,0.6,100.0,standard,5.0,3.0,1.0,
1165,0.0,increament,0.84,140.0,oddball,7.0,3.0,1.0,0.5944506998639554
1166,0.0,increament,0.6,100.0,standard,5.0,3.0,1.0,
1167,0.0,increament,0.6,100.0,standard,5.0,3.0,1.0,
1168,0.0,increament,0.6,100.0,standard,5.0,3.0,1.0,
1169,0.0,increament,0.6,100.0,standard,5.0,3.0,1.0,
1170,0.0,decreament,0.6,100.0,standard,1.0,3.0,1.0,
1171,0.0,decreament,0.6,100.0,standard,1.0,3.0,1.0,
1172,0.0,decreament,0.6,100.0,standard,1.0,3.0,1.0,
1173,0.0,decreament,0.6,100.0,standard,1.0,3.0,1.0,
1174,0.0,decreament,0.6,100.0,standard,1.0,3.0,1.0,
1175,0.0,decreament,0.6,100.0,standard,1.0,3.0,1.0,
1176,0.0,decreament,0.6,100.0,standard,1.0,3.0,1.0,
1177,0.0,decreament,0.6,100.0,standard,1.0,3.0,1.0,
1178,0.0,decreament,0.6,100.0,standard,1.0,3.0,1.0,
1179,0.0,decreament,0.48,80.0,oddball,4.0,3.0,1.0,0.6446184997912496
1180,0.0,decreament,0.6,100.0,standard,1.0,3.0,1.0,
1181,0.0,decreament,0.6,100.0,standard,1.0,3.0,1.0,
1182,0.0,decreament,0.6,100.0,standard,1.0,3.0,1.0,
1183,0.0,decreament,0.6,100.0,standard,1.0,3.0,1.0,
1184,0.0,decreament,0.6,100.0,standard,1.0,3.0,1.0,
1185,0.0,decreament,0.6,100.0,standard,1.0,3.0,1.0,
1186,0.0,decreament,0.6,100.0,standard,1.0,3.0,1.0,
1187,0.0,decreament,0.6,100.0,standard,1.0,3.0,1.0,
1188,0.0,decreament,0.6,100.0,standard,1.0,3.0,1.0,
1189,0.0,decreament,0.6,100.0,standard,1.0,3.0,1.0,
1190,0.0,decreament,0.36,60.0,oddball,3.0,3.0,1.0,1.157171699916944
1191,0.0,decreament,0.6,100.0,standard,1.0,3.0,1.0,
1192,0.0,decreament,0.6,100.0,standard,1.0,3.0,1.0,
1193,0.0,decreament,0.6,100.0,standard,1.0,3.0,1.0,
1194,0.0,decreament,0.6,100.0,standard,1.0,3.0,1.0,
1195,0.0,decreament,0.6,100.0,standard,1.0,3.0,1.0,
1196,0.0,decreament,0.6,100.0,standard,1.0,3.0,1.0,
1197,0.0,decreament,0.6,100.0,standard,1.0,3.0,1.0,
1198,0.0,decreament,0.6,100.0,standard,1.0,3.0,0.0,0.6405730999540538
1199,0.0,decreament,0.24,40.0,oddball,2.0,3.0,1.0,0.5732040998991579
