,grating_freq,direction,duration,scaling,stim_type,trigger,blocks.thisN,resp.corr,resp.rt
0,20.0,increament,0.6,100.0,standard,45.0,0.0,1.0,
1,20.0,increament,0.6,100.0,standard,45.0,0.0,1.0,
2,20.0,increament,0.6,100.0,standard,45.0,0.0,1.0,
3,20.0,increament,0.6,100.0,standard,45.0,0.0,1.0,
4,20.0,increament,0.6,100.0,standard,45.0,0.0,1.0,
5,20.0,increament,0.72,120.0,oddball,46.0,0.0,1.0,0.3685878999531269
6,20.0,increament,0.6,100.0,standard,45.0,0.0,1.0,
7,20.0,increament,0.6,100.0,standard,45.0,0.0,1.0,
8,20.0,increament,0.6,100.0,standard,45.0,0.0,1.0,
9,20.0,increament,0.6,100.0,standard,45.0,0.0,1.0,
10,20.0,increament,0.6,100.0,standard,45.0,0.0,1.0,
11,20.0,increament,0.84,140.0,oddball,47.0,0.0,1.0,0.469759099651128
12,20.0,increament,0.6,100.0,standard,45.0,0.0,1.0,
13,20.0,increament,0.6,100.0,standard,45.0,0.0,1.0,
14,20.0,increament,0.6,100.0,standard,45.0,0.0,1.0,
15,20.0,increament,0.6,100.0,standard,45.0,0.0,1.0,
16,20.0,increament,0.6,100.0,standard,45.0,0.0,1.0,
17,20.0,increament,0.6,100.0,standard,45.0,0.0,1.0,
18,20.0,increament,0.6,100.0,standard,45.0,0.0,1.0,
19,20.0,increament,0.6,100.0,standard,45.0,0.0,1.0,
20,20.0,increament,0.6,100.0,standard,45.0,0.0,1.0,
21,20.0,increament,0.6,100.0,standard,45.0,0.0,1.0,
22,20.0,increament,0.6,100.0,standard,45.0,0.0,1.0,
23,20.0,increament,0.6,100.0,standard,45.0,0.0,1.0,
24,20.0,increament,0.6,100.0,standard,45.0,0.0,1.0,
25,20.0,increament,0.6,100.0,standard,45.0,0.0,1.0,
26,20.0,increament,0.96,160.0,oddball,48.0,0.0,1.0,0.3441401994787156
27,20.0,increament,0.6,100.0,standard,45.0,0.0,1.0,
28,20.0,increament,0.6,100.0,standard,45.0,0.0,1.0,
29,20.0,increament,0.6,100.0,standard,45.0,0.0,1.0,
30,20.0,decreament,0.6,100.0,standard,41.0,0.0,1.0,
31,20.0,decreament,0.6,100.0,standard,41.0,0.0,1.0,
32,20.0,decreament,0.6,100.0,standard,41.0,0.0,1.0,
33,20.0,decreament,0.6,100.0,standard,41.0,0.0,1.0,
34,20.0,decreament,0.6,100.0,standard,41.0,0.0,1.0,
35,20.0,decreament,0.6,100.0,standard,41.0,0.0,1.0,
36,20.0,decreament,0.24,40.0,oddball,42.0,0.0,1.0,0.7150988997891545
37,20.0,decreament,0.6,100.0,standard,41.0,0.0,1.0,
38,20.0,decreament,0.6,100.0,standard,41.0,0.0,1.0,
39,20.0,decreament,0.6,100.0,standard,41.0,0.0,1.0,
40,20.0,decreament,0.6,100.0,standard,41.0,0.0,1.0,
41,20.0,decreament,0.6,100.0,standard,41.0,0.0,1.0,
42,20.0,decreament,0.6,100.0,standard,41.0,0.0,1.0,
43,20.0,decreament,0.6,100.0,standard,41.0,0.0,1.0,
44,20.0,decreament,0.6,100.0,standard,41.0,0.0,1.0,
45,20.0,decreament,0.6,100.0,standard,41.0,0.0,1.0,
46,20.0,decreament,0.36,60.0,oddball,43.0,0.0,1.0,0.8458666000515223
47,20.0,decreament,0.6,100.0,standard,41.0,0.0,1.0,
48,20.0,decreament,0.6,100.0,standard,41.0,0.0,1.0,
49,20.0,decreament,0.6,100.0,standard,41.0,0.0,1.0,
50,20.0,decreament,0.48,80.0,oddball,44.0,0.0,0.0,
51,20.0,decreament,0.6,100.0,standard,41.0,0.0,1.0,
52,20.0,decreament,0.6,100.0,standard,41.0,0.0,1.0,
53,20.0,decreament,0.6,100.0,standard,41.0,0.0,1.0,
54,20.0,decreament,0.6,100.0,standard,41.0,0.0,1.0,
55,20.0,decreament,0.6,100.0,standard,41.0,0.0,1.0,
56,20.0,decreament,0.6,100.0,standard,41.0,0.0,1.0,
57,20.0,decreament,0.6,100.0,standard,41.0,0.0,1.0,
58,20.0,decreament,0.6,100.0,standard,41.0,0.0,1.0,
59,20.0,decreament,0.6,100.0,standard,41.0,0.0,1.0,
60,20.0,increament,0.6,100.0,standard,45.0,0.0,1.0,
61,20.0,increament,0.6,100.0,standard,45.0,0.0,1.0,
62,20.0,increament,0.6,100.0,standard,45.0,0.0,1.0,
63,20.0,increament,0.6,100.0,standard,45.0,0.0,1.0,
64,20.0,increament,0.6,100.0,standard,45.0,0.0,1.0,
65,20.0,increament,0.84,140.0,oddball,47.0,0.0,1.0,0.7773082996718585
66,20.0,increament,0.6,100.0,standard,45.0,0.0,1.0,
67,20.0,increament,0.6,100.0,standard,45.0,0.0,1.0,
68,20.0,increament,0.6,100.0,standard,45.0,0.0,1.0,
69,20.0,increament,0.6,100.0,standard,45.0,0.0,1.0,
70,20.0,increament,0.6,100.0,standard,45.0,0.0,1.0,
71,20.0,increament,0.96,160.0,oddball,48.0,0.0,1.0,0.5994222997687757
72,20.0,increament,0.6,100.0,standard,45.0,0.0,1.0,
73,20.0,increament,0.6,100.0,standard,45.0,0.0,1.0,
74,20.0,increament,0.6,100.0,standard,45.0,0.0,1.0,
75,20.0,increament,0.6,100.0,standard,45.0,0.0,1.0,
76,20.0,increament,0.6,100.0,standard,45.0,0.0,1.0,
77,20.0,increament,0.72,120.0,oddball,46.0,0.0,0.0,
78,20.0,increament,0.6,100.0,standard,45.0,0.0,1.0,
79,20.0,increament,0.6,100.0,standard,45.0,0.0,1.0,
80,20.0,increament,0.6,100.0,standard,45.0,0.0,1.0,
81,20.0,increament,0.6,100.0,standard,45.0,0.0,1.0,
82,20.0,increament,0.6,100.0,standard,45.0,0.0,1.0,
83,20.0,increament,0.6,100.0,standard,45.0,0.0,1.0,
84,20.0,increament,0.6,100.0,standard,45.0,0.0,1.0,
85,20.0,increament,0.6,100.0,standard,45.0,0.0,1.0,
86,20.0,increament,0.6,100.0,standard,45.0,0.0,1.0,
87,20.0,increament,0.6,100.0,standard,45.0,0.0,1.0,
88,20.0,increament,0.6,100.0,standard,45.0,0.0,1.0,
89,20.0,increament,0.6,100.0,standard,45.0,0.0,1.0,
90,20.0,decreament,0.6,100.0,standard,41.0,0.0,1.0,
91,20.0,decreament,0.6,100.0,standard,41.0,0.0,1.0,
92,20.0,decreament,0.6,100.0,standard,41.0,0.0,1.0,
93,20.0,decreament,0.6,100.0,standard,41.0,0.0,1.0,
94,20.0,decreament,0.6,100.0,standard,41.0,0.0,1.0,
95,20.0,decreament,0.24,40.0,oddball,42.0,0.0,1.0,0.7681871000677347
96,20.0,decreament,0.6,100.0,standard,41.0,0.0,1.0,
97,20.0,decreament,0.6,100.0,standard,41.0,0.0,1.0,
98,20.0,decreament,0.6,100.0,standard,41.0,0.0,1.0,
99,20.0,decreament,0.6,100.0,standard,41.0,0.0,1.0,
100,20.0,decreament,0.6,100.0,standard,41.0,0.0,1.0,
101,20.0,decreament,0.6,100.0,standard,41.0,0.0,1.0,
102,20.0,decreament,0.6,100.0,standard,41.0,0.0,1.0,
103,20.0,decreament,0.6,100.0,standard,41.0,0.0,1.0,
104,20.0,decreament,0.6,100.0,standard,41.0,0.0,1.0,
105,20.0,decreament,0.6,100.0,standard,41.0,0.0,1.0,
106,20.0,decreament,0.6,100.0,standard,41.0,0.0,1.0,
107,20.0,decreament,0.36,60.0,oddball,43.0,0.0,1.0,1.0089922999031842
108,20.0,decreament,0.6,100.0,standard,41.0,0.0,1.0,
109,20.0,decreament,0.6,100.0,standard,41.0,0.0,1.0,
110,20.0,decreament,0.6,100.0,standard,41.0,0.0,1.0,
111,20.0,decreament,0.6,100.0,standard,41.0,0.0,1.0,
112,20.0,decreament,0.6,100.0,standard,41.0,0.0,1.0,
113,20.0,decreament,0.48,80.0,oddball,44.0,0.0,0.0,
114,20.0,decreament,0.6,100.0,standard,41.0,0.0,1.0,
115,20.0,decreament,0.6,100.0,standard,41.0,0.0,1.0,
116,20.0,decreament,0.6,100.0,standard,41.0,0.0,1.0,
117,20.0,decreament,0.6,100.0,standard,41.0,0.0,1.0,
118,20.0,decreament,0.6,100.0,standard,41.0,0.0,1.0,
119,20.0,decreament,0.6,100.0,standard,41.0,0.0,1.0,
120,20.0,increament,0.6,100.0,standard,45.0,0.0,1.0,
121,20.0,increament,0.6,100.0,standard,45.0,0.0,1.0,
122,20.0,increament,0.6,100.0,standard,45.0,0.0,1.0,
123,20.0,increament,0.6,100.0,standard,45.0,0.0,1.0,
124,20.0,increament,0.6,100.0,standard,45.0,0.0,1.0,
125,20.0,increament,0.6,100.0,standard,45.0,0.0,1.0,
126,20.0,increament,0.6,100.0,standard,45.0,0.0,1.0,
127,20.0,increament,0.6,100.0,standard,45.0,0.0,1.0,
128,20.0,increament,0.6,100.0,standard,45.0,0.0,1.0,
129,20.0,increament,0.6,100.0,standard,45.0,0.0,1.0,
130,20.0,increament,0.6,100.0,standard,45.0,0.0,1.0,
131,20.0,increament,0.6,100.0,standard,45.0,0.0,1.0,
132,20.0,increament,0.6,100.0,standard,45.0,0.0,1.0,
133,20.0,increament,0.84,140.0,oddball,47.0,0.0,0.0,
134,20.0,increament,0.6,100.0,standard,45.0,0.0,1.0,
135,20.0,increament,0.6,100.0,standard,45.0,0.0,1.0,
136,20.0,increament,0.6,100.0,standard,45.0,0.0,1.0,
137,20.0,increament,0.6,100.0,standard,45.0,0.0,1.0,
138,20.0,increament,0.96,160.0,oddball,48.0,0.0,1.0,0.6203222996555269
139,20.0,increament,0.6,100.0,standard,45.0,0.0,1.0,
140,20.0,increament,0.6,100.0,standard,45.0,0.0,1.0,
141,20.0,increament,0.6,100.0,standard,45.0,0.0,1.0,
142,20.0,increament,0.6,100.0,standard,45.0,0.0,1.0,
143,20.0,increament,0.6,100.0,standard,45.0,0.0,1.0,
144,20.0,increament,0.6,100.0,standard,45.0,0.0,1.0,
145,20.0,increament,0.6,100.0,standard,45.0,0.0,1.0,
146,20.0,increament,0.6,100.0,standard,45.0,0.0,1.0,
147,20.0,increament,0.72,120.0,oddball,46.0,0.0,0.0,
148,20.0,increament,0.6,100.0,standard,45.0,0.0,1.0,
149,20.0,increament,0.6,100.0,standard,45.0,0.0,1.0,
150,20.0,decreament,0.6,100.0,standard,41.0,0.0,1.0,
151,20.0,decreament,0.6,100.0,standard,41.0,0.0,1.0,
152,20.0,decreament,0.6,100.0,standard,41.0,0.0,1.0,
153,20.0,decreament,0.6,100.0,standard,41.0,0.0,1.0,
154,20.0,decreament,0.6,100.0,standard,41.0,0.0,1.0,
155,20.0,decreament,0.6,100.0,standard,41.0,0.0,1.0,
156,20.0,decreament,0.6,100.0,standard,41.0,0.0,1.0,
157,20.0,decreament,0.6,100.0,standard,41.0,0.0,1.0,
158,20.0,decreament,0.6,100.0,standard,41.0,0.0,1.0,
159,20.0,decreament,0.6,100.0,standard,41.0,0.0,1.0,
160,20.0,decreament,0.6,100.0,standard,41.0,0.0,1.0,
161,20.0,decreament,0.6,100.0,standard,41.0,0.0,1.0,
162,20.0,decreament,0.6,100.0,standard,41.0,0.0,1.0,
163,20.0,decreament,0.36,60.0,oddball,43.0,0.0,1.0,0.9946980997920036
164,20.0,decreament,0.6,100.0,standard,41.0,0.0,1.0,
165,20.0,decreament,0.6,100.0,standard,41.0,0.0,1.0,
166,20.0,decreament,0.6,100.0,standard,41.0,0.0,1.0,
167,20.0,decreament,0.6,100.0,standard,41.0,0.0,0.0,1.2946174000389874
168,20.0,decreament,0.48,80.0,oddball,44.0,0.0,0.0,
169,20.0,decreament,0.6,100.0,standard,41.0,0.0,1.0,
170,20.0,decreament,0.6,100.0,standard,41.0,0.0,1.0,
171,20.0,decreament,0.6,100.0,standard,41.0,0.0,1.0,
172,20.0,decreament,0.6,100.0,standard,41.0,0.0,1.0,
173,20.0,decreament,0.6,100.0,standard,41.0,0.0,1.0,
174,20.0,decreament,0.6,100.0,standard,41.0,0.0,1.0,
175,20.0,decreament,0.24,40.0,oddball,42.0,0.0,1.0,0.7305982001125813
176,20.0,decreament,0.6,100.0,standard,41.0,0.0,1.0,
177,20.0,decreament,0.6,100.0,standard,41.0,0.0,1.0,
178,20.0,decreament,0.6,100.0,standard,41.0,0.0,1.0,
179,20.0,decreament,0.6,100.0,standard,41.0,0.0,1.0,
180,20.0,increament,0.6,100.0,standard,45.0,0.0,1.0,
181,20.0,increament,0.6,100.0,standard,45.0,0.0,1.0,
182,20.0,increament,0.6,100.0,standard,45.0,0.0,1.0,
183,20.0,increament,0.6,100.0,standard,45.0,0.0,1.0,
184,20.0,increament,0.6,100.0,standard,45.0,0.0,1.0,
185,20.0,increament,0.6,100.0,standard,45.0,0.0,1.0,
186,20.0,increament,0.6,100.0,standard,45.0,0.0,1.0,
187,20.0,increament,0.6,100.0,standard,45.0,0.0,1.0,
188,20.0,increament,0.6,100.0,standard,45.0,0.0,1.0,
189,20.0,increament,0.6,100.0,standard,45.0,0.0,1.0,
190,20.0,increament,0.84,140.0,oddball,47.0,0.0,0.0,
191,20.0,increament,0.6,100.0,standard,45.0,0.0,1.0,
192,20.0,increament,0.6,100.0,standard,45.0,0.0,1.0,
193,20.0,increament,0.6,100.0,standard,45.0,0.0,1.0,
194,20.0,increament,0.72,120.0,oddball,46.0,0.0,0.0,
195,20.0,increament,0.6,100.0,standard,45.0,0.0,1.0,
196,20.0,increament,0.6,100.0,standard,45.0,0.0,1.0,
197,20.0,increament,0.6,100.0,standard,45.0,0.0,1.0,
198,20.0,increament,0.96,160.0,oddball,48.0,0.0,0.0,
199,20.0,increament,0.6,100.0,standard,45.0,0.0,1.0,
200,20.0,increament,0.6,100.0,standard,45.0,0.0,1.0,
201,20.0,increament,0.6,100.0,standard,45.0,0.0,1.0,
202,20.0,increament,0.6,100.0,standard,45.0,0.0,1.0,
203,20.0,increament,0.6,100.0,standard,45.0,0.0,1.0,
204,20.0,increament,0.6,100.0,standard,45.0,0.0,1.0,
205,20.0,increament,0.6,100.0,standard,45.0,0.0,1.0,
206,20.0,increament,0.6,100.0,standard,45.0,0.0,1.0,
207,20.0,increament,0.6,100.0,standard,45.0,0.0,1.0,
208,20.0,increament,0.6,100.0,standard,45.0,0.0,1.0,
209,20.0,increament,0.6,100.0,standard,45.0,0.0,1.0,
210,20.0,decreament,0.6,100.0,standard,41.0,0.0,1.0,
211,20.0,decreament,0.6,100.0,standard,41.0,0.0,1.0,
212,20.0,decreament,0.6,100.0,standard,41.0,0.0,1.0,
213,20.0,decreament,0.6,100.0,standard,41.0,0.0,1.0,
214,20.0,decreament,0.6,100.0,standard,41.0,0.0,1.0,
215,20.0,decreament,0.6,100.0,standard,41.0,0.0,1.0,
216,20.0,decreament,0.6,100.0,standard,41.0,0.0,1.0,
217,20.0,decreament,0.6,100.0,standard,41.0,0.0,1.0,
218,20.0,decreament,0.36,60.0,oddball,43.0,0.0,1.0,1.0146925998851657
219,20.0,decreament,0.6,100.0,standard,41.0,0.0,1.0,
220,20.0,decreament,0.6,100.0,standard,41.0,0.0,1.0,
221,20.0,decreament,0.6,100.0,standard,41.0,0.0,1.0,
222,20.0,decreament,0.6,100.0,standard,41.0,0.0,1.0,
223,20.0,decreament,0.6,100.0,standard,41.0,0.0,1.0,
224,20.0,decreament,0.6,100.0,standard,41.0,0.0,1.0,
225,20.0,decreament,0.6,100.0,standard,41.0,0.0,1.0,
226,20.0,decreament,0.6,100.0,standard,41.0,0.0,1.0,
227,20.0,decreament,0.6,100.0,standard,41.0,0.0,1.0,
228,20.0,decreament,0.6,100.0,standard,41.0,0.0,1.0,
229,20.0,decreament,0.48,80.0,oddball,44.0,0.0,0.0,
230,20.0,decreament,0.6,100.0,standard,41.0,0.0,1.0,
231,20.0,decreament,0.6,100.0,standard,41.0,0.0,1.0,
232,20.0,decreament,0.6,100.0,standard,41.0,0.0,1.0,
233,20.0,decreament,0.24,40.0,oddball,42.0,0.0,1.0,0.7414376996457577
234,20.0,decreament,0.6,100.0,standard,41.0,0.0,1.0,
235,20.0,decreament,0.6,100.0,standard,41.0,0.0,1.0,
236,20.0,decreament,0.6,100.0,standard,41.0,0.0,1.0,
237,20.0,decreament,0.6,100.0,standard,41.0,0.0,1.0,
238,20.0,decreament,0.6,100.0,standard,41.0,0.0,1.0,
239,20.0,decreament,0.6,100.0,standard,41.0,0.0,1.0,
240,20.0,increament,0.6,100.0,standard,45.0,0.0,1.0,
241,20.0,increament,0.6,100.0,standard,45.0,0.0,1.0,
242,20.0,increament,0.6,100.0,standard,45.0,0.0,1.0,
243,20.0,increament,0.6,100.0,standard,45.0,0.0,1.0,
244,20.0,increament,0.6,100.0,standard,45.0,0.0,1.0,
245,20.0,increament,0.6,100.0,standard,45.0,0.0,1.0,
246,20.0,increament,0.6,100.0,standard,45.0,0.0,1.0,
247,20.0,increament,0.6,100.0,standard,45.0,0.0,1.0,
248,20.0,increament,0.72,120.0,oddball,46.0,0.0,0.0,
249,20.0,increament,0.6,100.0,standard,45.0,0.0,1.0,
250,20.0,increament,0.6,100.0,standard,45.0,0.0,1.0,
251,20.0,increament,0.6,100.0,standard,45.0,0.0,1.0,
252,20.0,increament,0.6,100.0,standard,45.0,0.0,1.0,
253,20.0,increament,0.6,100.0,standard,45.0,0.0,1.0,
254,20.0,increament,0.84,140.0,oddball,47.0,0.0,0.0,
255,20.0,increament,0.6,100.0,standard,45.0,0.0,1.0,
256,20.0,increament,0.6,100.0,standard,45.0,0.0,1.0,
257,20.0,increament,0.6,100.0,standard,45.0,0.0,1.0,
258,20.0,increament,0.6,100.0,standard,45.0,0.0,1.0,
259,20.0,increament,0.6,100.0,standard,45.0,0.0,1.0,
260,20.0,increament,0.6,100.0,standard,45.0,0.0,1.0,
261,20.0,increament,0.6,100.0,standard,45.0,0.0,1.0,
262,20.0,increament,0.6,100.0,standard,45.0,0.0,1.0,
263,20.0,increament,0.96,160.0,oddball,48.0,0.0,1.0,0.8592638997361064
264,20.0,increament,0.6,100.0,standard,45.0,0.0,1.0,
265,20.0,increament,0.6,100.0,standard,45.0,0.0,1.0,
266,20.0,increament,0.6,100.0,standard,45.0,0.0,1.0,
267,20.0,increament,0.6,100.0,standard,45.0,0.0,1.0,
268,20.0,increament,0.6,100.0,standard,45.0,0.0,1.0,
269,20.0,increament,0.6,100.0,standard,45.0,0.0,1.0,
270,20.0,decreament,0.6,100.0,standard,41.0,0.0,1.0,
271,20.0,decreament,0.6,100.0,standard,41.0,0.0,1.0,
272,20.0,decreament,0.6,100.0,standard,41.0,0.0,1.0,
273,20.0,decreament,0.6,100.0,standard,41.0,0.0,1.0,
274,20.0,decreament,0.6,100.0,standard,41.0,0.0,1.0,
275,20.0,decreament,0.24,40.0,oddball,42.0,0.0,1.0,0.9122590995393692
276,20.0,decreament,0.6,100.0,standard,41.0,0.0,1.0,
277,20.0,decreament,0.6,100.0,standard,41.0,0.0,1.0,
278,20.0,decreament,0.6,100.0,standard,41.0,0.0,1.0,
279,20.0,decreament,0.6,100.0,standard,41.0,0.0,1.0,
280,20.0,decreament,0.48,80.0,oddball,44.0,0.0,0.0,
281,20.0,decreament,0.6,100.0,standard,41.0,0.0,1.0,
282,20.0,decreament,0.6,100.0,standard,41.0,0.0,1.0,
283,20.0,decreament,0.6,100.0,standard,41.0,0.0,1.0,
284,20.0,decreament,0.6,100.0,standard,41.0,0.0,1.0,
285,20.0,decreament,0.6,100.0,standard,41.0,0.0,1.0,
286,20.0,decreament,0.6,100.0,standard,41.0,0.0,1.0,
287,20.0,decreament,0.6,100.0,standard,41.0,0.0,1.0,
288,20.0,decreament,0.6,100.0,standard,41.0,0.0,1.0,
289,20.0,decreament,0.6,100.0,standard,41.0,0.0,1.0,
290,20.0,decreament,0.6,100.0,standard,41.0,0.0,1.0,
291,20.0,decreament,0.6,100.0,standard,41.0,0.0,1.0,
292,20.0,decreament,0.6,100.0,standard,41.0,0.0,1.0,
293,20.0,decreament,0.36,60.0,oddball,43.0,0.0,1.0,1.4612401998601854
294,20.0,decreament,0.6,100.0,standard,41.0,0.0,1.0,
295,20.0,decreament,0.6,100.0,standard,41.0,0.0,1.0,
296,20.0,decreament,0.6,100.0,standard,41.0,0.0,1.0,
297,20.0,decreament,0.6,100.0,standard,41.0,0.0,1.0,
298,20.0,decreament,0.6,100.0,standard,41.0,0.0,1.0,
299,20.0,decreament,0.6,100.0,standard,41.0,0.0,1.0,
300,5.0,increament,0.6,100.0,standard,15.0,1.0,1.0,
301,5.0,increament,0.6,100.0,standard,15.0,1.0,1.0,
302,5.0,increament,0.6,100.0,standard,15.0,1.0,1.0,
303,5.0,increament,0.6,100.0,standard,15.0,1.0,1.0,
304,5.0,increament,0.6,100.0,standard,15.0,1.0,1.0,
305,5.0,increament,0.6,100.0,standard,15.0,1.0,1.0,
306,5.0,increament,0.6,100.0,standard,15.0,1.0,1.0,
307,5.0,increament,0.6,100.0,standard,15.0,1.0,1.0,
308,5.0,increament,0.6,100.0,standard,15.0,1.0,1.0,
309,5.0,increament,0.6,100.0,standard,15.0,1.0,1.0,
310,5.0,increament,0.96,160.0,oddball,18.0,1.0,1.0,0.6107149994932115
311,5.0,increament,0.6,100.0,standard,15.0,1.0,1.0,
312,5.0,increament,0.6,100.0,standard,15.0,1.0,1.0,
313,5.0,increament,0.6,100.0,standard,15.0,1.0,1.0,
314,5.0,increament,0.84,140.0,oddball,17.0,1.0,0.0,
315,5.0,increament,0.6,100.0,standard,15.0,1.0,1.0,
316,5.0,increament,0.6,100.0,standard,15.0,1.0,1.0,
317,5.0,increament,0.6,100.0,standard,15.0,1.0,1.0,
318,5.0,increament,0.6,100.0,standard,15.0,1.0,1.0,
319,5.0,increament,0.6,100.0,standard,15.0,1.0,1.0,
320,5.0,increament,0.6,100.0,standard,15.0,1.0,1.0,
321,5.0,increament,0.6,100.0,standard,15.0,1.0,1.0,
322,5.0,increament,0.6,100.0,standard,15.0,1.0,1.0,
323,5.0,increament,0.72,120.0,oddball,16.0,1.0,0.0,
324,5.0,increament,0.6,100.0,standard,15.0,1.0,1.0,
325,5.0,increament,0.6,100.0,standard,15.0,1.0,1.0,
326,5.0,increament,0.6,100.0,standard,15.0,1.0,1.0,
327,5.0,increament,0.6,100.0,standard,15.0,1.0,1.0,
328,5.0,increament,0.6,100.0,standard,15.0,1.0,1.0,
329,5.0,increament,0.6,100.0,standard,15.0,1.0,1.0,
330,5.0,decreament,0.6,100.0,standard,11.0,1.0,1.0,
331,5.0,decreament,0.6,100.0,standard,11.0,1.0,1.0,
332,5.0,decreament,0.6,100.0,standard,11.0,1.0,1.0,
333,5.0,decreament,0.6,100.0,standard,11.0,1.0,1.0,
334,5.0,decreament,0.6,100.0,standard,11.0,1.0,1.0,
335,5.0,decreament,0.6,100.0,standard,11.0,1.0,1.0,
336,5.0,decreament,0.6,100.0,standard,11.0,1.0,1.0,
337,5.0,decreament,0.24,40.0,oddball,12.0,1.0,1.0,0.6174007998779416
338,5.0,decreament,0.6,100.0,standard,11.0,1.0,1.0,
339,5.0,decreament,0.6,100.0,standard,11.0,1.0,1.0,
340,5.0,decreament,0.6,100.0,standard,11.0,1.0,1.0,
341,5.0,decreament,0.6,100.0,standard,11.0,1.0,1.0,
342,5.0,decreament,0.6,100.0,standard,11.0,1.0,1.0,
343,5.0,decreament,0.6,100.0,standard,11.0,1.0,1.0,
344,5.0,decreament,0.36,60.0,oddball,13.0,1.0,1.0,0.7566354996524751
345,5.0,decreament,0.6,100.0,standard,11.0,1.0,1.0,
346,5.0,decreament,0.6,100.0,standard,11.0,1.0,1.0,
347,5.0,decreament,0.6,100.0,standard,11.0,1.0,1.0,
348,5.0,decreament,0.6,100.0,standard,11.0,1.0,1.0,
349,5.0,decreament,0.6,100.0,standard,11.0,1.0,1.0,
350,5.0,decreament,0.6,100.0,standard,11.0,1.0,1.0,
351,5.0,decreament,0.6,100.0,standard,11.0,1.0,1.0,
352,5.0,decreament,0.6,100.0,standard,11.0,1.0,1.0,
353,5.0,decreament,0.6,100.0,standard,11.0,1.0,1.0,
354,5.0,decreament,0.6,100.0,standard,11.0,1.0,1.0,
355,5.0,decreament,0.6,100.0,standard,11.0,1.0,1.0,
356,5.0,decreament,0.48,80.0,oddball,14.0,1.0,0.0,
357,5.0,decreament,0.6,100.0,standard,11.0,1.0,1.0,
358,5.0,decreament,0.6,100.0,standard,11.0,1.0,1.0,
359,5.0,decreament,0.6,100.0,standard,11.0,1.0,1.0,
360,5.0,increament,0.6,100.0,standard,15.0,1.0,1.0,
361,5.0,increament,0.6,100.0,standard,15.0,1.0,1.0,
362,5.0,increament,0.6,100.0,standard,15.0,1.0,1.0,
363,5.0,increament,0.6,100.0,standard,15.0,1.0,1.0,
364,5.0,increament,0.6,100.0,standard,15.0,1.0,1.0,
365,5.0,increament,0.96,160.0,oddball,18.0,1.0,1.0,0.6049199998378754
366,5.0,increament,0.6,100.0,standard,15.0,1.0,1.0,
367,5.0,increament,0.6,100.0,standard,15.0,1.0,1.0,
368,5.0,increament,0.6,100.0,standard,15.0,1.0,1.0,
369,5.0,increament,0.6,100.0,standard,15.0,1.0,1.0,
370,5.0,increament,0.6,100.0,standard,15.0,1.0,1.0,
371,5.0,increament,0.6,100.0,standard,15.0,1.0,1.0,
372,5.0,increament,0.6,100.0,standard,15.0,1.0,1.0,
373,5.0,increament,0.6,100.0,standard,15.0,1.0,1.0,
374,5.0,increament,0.6,100.0,standard,15.0,1.0,1.0,
375,5.0,increament,0.6,100.0,standard,15.0,1.0,1.0,
376,5.0,increament,0.6,100.0,standard,15.0,1.0,1.0,
377,5.0,increament,0.6,100.0,standard,15.0,1.0,1.0,
378,5.0,increament,0.84,140.0,oddball,17.0,1.0,1.0,0.7397604994475842
379,5.0,increament,0.6,100.0,standard,15.0,1.0,1.0,
380,5.0,increament,0.6,100.0,standard,15.0,1.0,1.0,
381,5.0,increament,0.6,100.0,standard,15.0,1.0,1.0,
382,5.0,increament,0.6,100.0,standard,15.0,1.0,1.0,
383,5.0,increament,0.6,100.0,standard,15.0,1.0,1.0,
384,5.0,increament,0.6,100.0,standard,15.0,1.0,1.0,
385,5.0,increament,0.6,100.0,standard,15.0,1.0,1.0,
386,5.0,increament,0.72,120.0,oddball,16.0,1.0,0.0,
387,5.0,increament,0.6,100.0,standard,15.0,1.0,1.0,
388,5.0,increament,0.6,100.0,standard,15.0,1.0,1.0,
389,5.0,increament,0.6,100.0,standard,15.0,1.0,1.0,
390,5.0,decreament,0.6,100.0,standard,11.0,1.0,1.0,
391,5.0,decreament,0.6,100.0,standard,11.0,1.0,1.0,
392,5.0,decreament,0.6,100.0,standard,11.0,1.0,1.0,
393,5.0,decreament,0.6,100.0,standard,11.0,1.0,1.0,
394,5.0,decreament,0.6,100.0,standard,11.0,1.0,1.0,
395,5.0,decreament,0.6,100.0,standard,11.0,1.0,1.0,
396,5.0,decreament,0.6,100.0,standard,11.0,1.0,1.0,
397,5.0,decreament,0.6,100.0,standard,11.0,1.0,1.0,
398,5.0,decreament,0.6,100.0,standard,11.0,1.0,1.0,
399,5.0,decreament,0.6,100.0,standard,11.0,1.0,1.0,
400,5.0,decreament,0.6,100.0,standard,11.0,1.0,1.0,
401,5.0,decreament,0.36,60.0,oddball,13.0,1.0,1.0,0.9609086997807026
402,5.0,decreament,0.6,100.0,standard,11.0,1.0,1.0,
403,5.0,decreament,0.6,100.0,standard,11.0,1.0,1.0,
404,5.0,decreament,0.6,100.0,standard,11.0,1.0,1.0,
405,5.0,decreament,0.6,100.0,standard,11.0,1.0,1.0,
406,5.0,decreament,0.48,80.0,oddball,14.0,1.0,0.0,
407,5.0,decreament,0.6,100.0,standard,11.0,1.0,1.0,
408,5.0,decreament,0.6,100.0,standard,11.0,1.0,1.0,
409,5.0,decreament,0.6,100.0,standard,11.0,1.0,1.0,
410,5.0,decreament,0.6,100.0,standard,11.0,1.0,1.0,
411,5.0,decreament,0.6,100.0,standard,11.0,1.0,1.0,
412,5.0,decreament,0.6,100.0,standard,11.0,1.0,1.0,
413,5.0,decreament,0.6,100.0,standard,11.0,1.0,1.0,
414,5.0,decreament,0.6,100.0,standard,11.0,1.0,1.0,
415,5.0,decreament,0.6,100.0,standard,11.0,1.0,1.0,
416,5.0,decreament,0.6,100.0,standard,11.0,1.0,1.0,
417,5.0,decreament,0.24,40.0,oddball,12.0,1.0,1.0,0.6102213999256492
418,5.0,decreament,0.6,100.0,standard,11.0,1.0,1.0,
419,5.0,decreament,0.6,100.0,standard,11.0,1.0,1.0,
420,5.0,increament,0.6,100.0,standard,15.0,1.0,1.0,
421,5.0,increament,0.6,100.0,standard,15.0,1.0,1.0,
422,5.0,increament,0.6,100.0,standard,15.0,1.0,1.0,
423,5.0,increament,0.6,100.0,standard,15.0,1.0,1.0,
424,5.0,increament,0.6,100.0,standard,15.0,1.0,1.0,
425,5.0,increament,0.72,120.0,oddball,16.0,1.0,0.0,
426,5.0,increament,0.6,100.0,standard,15.0,1.0,1.0,
427,5.0,increament,0.6,100.0,standard,15.0,1.0,1.0,
428,5.0,increament,0.6,100.0,standard,15.0,1.0,1.0,
429,5.0,increament,0.6,100.0,standard,15.0,1.0,1.0,
430,5.0,increament,0.6,100.0,standard,15.0,1.0,1.0,
431,5.0,increament,0.6,100.0,standard,15.0,1.0,1.0,
432,5.0,increament,0.84,140.0,oddball,17.0,1.0,0.0,
433,5.0,increament,0.6,100.0,standard,15.0,1.0,1.0,
434,5.0,increament,0.6,100.0,standard,15.0,1.0,1.0,
435,5.0,increament,0.6,100.0,standard,15.0,1.0,1.0,
436,5.0,increament,0.6,100.0,standard,15.0,1.0,1.0,
437,5.0,increament,0.6,100.0,standard,15.0,1.0,1.0,
438,5.0,increament,0.6,100.0,standard,15.0,1.0,1.0,
439,5.0,increament,0.6,100.0,standard,15.0,1.0,1.0,
440,5.0,increament,0.6,100.0,standard,15.0,1.0,1.0,
441,5.0,increament,0.6,100.0,standard,15.0,1.0,1.0,
442,5.0,increament,0.6,100.0,standard,15.0,1.0,1.0,
443,5.0,increament,0.6,100.0,standard,15.0,1.0,1.0,
444,5.0,increament,0.96,160.0,oddball,18.0,1.0,1.0,1.1327364998869598
445,5.0,increament,0.6,100.0,standard,15.0,1.0,1.0,
446,5.0,increament,0.6,100.0,standard,15.0,1.0,1.0,
447,5.0,increament,0.6,100.0,standard,15.0,1.0,1.0,
448,5.0,increament,0.6,100.0,standard,15.0,1.0,1.0,
449,5.0,increament,0.6,100.0,standard,15.0,1.0,1.0,
450,5.0,decreament,0.6,100.0,standard,11.0,1.0,1.0,
451,5.0,decreament,0.6,100.0,standard,11.0,1.0,1.0,
452,5.0,decreament,0.6,100.0,standard,11.0,1.0,1.0,
453,5.0,decreament,0.6,100.0,standard,11.0,1.0,1.0,
454,5.0,decreament,0.6,100.0,standard,11.0,1.0,1.0,
455,5.0,decreament,0.48,80.0,oddball,14.0,1.0,0.0,
456,5.0,decreament,0.6,100.0,standard,11.0,1.0,1.0,
457,5.0,decreament,0.6,100.0,standard,11.0,1.0,1.0,
458,5.0,decreament,0.6,100.0,standard,11.0,1.0,1.0,
459,5.0,decreament,0.6,100.0,standard,11.0,1.0,1.0,
460,5.0,decreament,0.24,40.0,oddball,12.0,1.0,1.0,0.5754742994904518
461,5.0,decreament,0.6,100.0,standard,11.0,1.0,1.0,
462,5.0,decreament,0.6,100.0,standard,11.0,1.0,1.0,
463,5.0,decreament,0.6,100.0,standard,11.0,1.0,1.0,
464,5.0,decreament,0.6,100.0,standard,11.0,1.0,1.0,
465,5.0,decreament,0.6,100.0,standard,11.0,1.0,1.0,
466,5.0,decreament,0.6,100.0,standard,11.0,1.0,1.0,
467,5.0,decreament,0.6,100.0,standard,11.0,1.0,1.0,
468,5.0,decreament,0.6,100.0,standard,11.0,1.0,1.0,
469,5.0,decreament,0.6,100.0,standard,11.0,1.0,1.0,
470,5.0,decreament,0.6,100.0,standard,11.0,1.0,1.0,
471,5.0,decreament,0.36,60.0,oddball,13.0,1.0,0.0,
472,5.0,decreament,0.6,100.0,standard,11.0,1.0,1.0,
473,5.0,decreament,0.6,100.0,standard,11.0,1.0,1.0,
474,5.0,decreament,0.6,100.0,standard,11.0,1.0,1.0,
475,5.0,decreament,0.6,100.0,standard,11.0,1.0,1.0,
476,5.0,decreament,0.6,100.0,standard,11.0,1.0,1.0,
477,5.0,decreament,0.6,100.0,standard,11.0,1.0,1.0,
478,5.0,decreament,0.6,100.0,standard,11.0,1.0,1.0,
479,5.0,decreament,0.6,100.0,standard,11.0,1.0,1.0,
480,5.0,increament,0.6,100.0,standard,15.0,1.0,1.0,
481,5.0,increament,0.6,100.0,standard,15.0,1.0,1.0,
482,5.0,increament,0.6,100.0,standard,15.0,1.0,1.0,
483,5.0,increament,0.6,100.0,standard,15.0,1.0,1.0,
484,5.0,increament,0.6,100.0,standard,15.0,1.0,1.0,
485,5.0,increament,0.6,100.0,standard,15.0,1.0,1.0,
486,5.0,increament,0.6,100.0,standard,15.0,1.0,1.0,
487,5.0,increament,0.6,100.0,standard,15.0,1.0,1.0,
488,5.0,increament,0.6,100.0,standard,15.0,1.0,1.0,
489,5.0,increament,0.6,100.0,standard,15.0,1.0,1.0,
490,5.0,increament,0.6,100.0,standard,15.0,1.0,1.0,
491,5.0,increament,0.6,100.0,standard,15.0,1.0,1.0,
492,5.0,increament,0.6,100.0,standard,15.0,1.0,1.0,
493,5.0,increament,0.72,120.0,oddball,16.0,1.0,0.0,
494,5.0,increament,0.6,100.0,standard,15.0,1.0,1.0,
495,5.0,increament,0.6,100.0,standard,15.0,1.0,1.0,
496,5.0,increament,0.6,100.0,standard,15.0,1.0,1.0,
497,5.0,increament,0.6,100.0,standard,15.0,1.0,1.0,
498,5.0,increament,0.84,140.0,oddball,17.0,1.0,0.0,
499,5.0,increament,0.6,100.0,standard,15.0,1.0,1.0,
500,5.0,increament,0.6,100.0,standard,15.0,1.0,1.0,
501,5.0,increament,0.6,100.0,standard,15.0,1.0,1.0,
502,5.0,increament,0.6,100.0,standard,15.0,1.0,1.0,
503,5.0,increament,0.6,100.0,standard,15.0,1.0,1.0,
504,5.0,increament,0.6,100.0,standard,15.0,1.0,1.0,
505,5.0,increament,0.6,100.0,standard,15.0,1.0,1.0,
506,5.0,increament,0.6,100.0,standard,15.0,1.0,1.0,
507,5.0,increament,0.6,100.0,standard,15.0,1.0,1.0,
508,5.0,increament,0.96,160.0,oddball,18.0,1.0,1.0,0.552490399684757
509,5.0,increament,0.6,100.0,standard,15.0,1.0,1.0,
510,5.0,decreament,0.6,100.0,standard,11.0,1.0,1.0,
511,5.0,decreament,0.6,100.0,standard,11.0,1.0,1.0,
512,5.0,decreament,0.6,100.0,standard,11.0,1.0,1.0,
513,5.0,decreament,0.6,100.0,standard,11.0,1.0,1.0,
514,5.0,decreament,0.6,100.0,standard,11.0,1.0,1.0,
515,5.0,decreament,0.24,40.0,oddball,12.0,1.0,1.0,0.5965694994665682
516,5.0,decreament,0.6,100.0,standard,11.0,1.0,1.0,
517,5.0,decreament,0.6,100.0,standard,11.0,1.0,1.0,
518,5.0,decreament,0.6,100.0,standard,11.0,1.0,1.0,
519,5.0,decreament,0.6,100.0,standard,11.0,1.0,1.0,
520,5.0,decreament,0.6,100.0,standard,11.0,1.0,1.0,
521,5.0,decreament,0.6,100.0,standard,11.0,1.0,1.0,
522,5.0,decreament,0.6,100.0,standard,11.0,1.0,1.0,
523,5.0,decreament,0.6,100.0,standard,11.0,1.0,1.0,
524,5.0,decreament,0.6,100.0,standard,11.0,1.0,1.0,
525,5.0,decreament,0.36,60.0,oddball,13.0,1.0,1.0,0.9023413993418216
526,5.0,decreament,0.6,100.0,standard,11.0,1.0,1.0,
527,5.0,decreament,0.6,100.0,standard,11.0,1.0,1.0,
528,5.0,decreament,0.6,100.0,standard,11.0,1.0,1.0,
529,5.0,decreament,0.6,100.0,standard,11.0,1.0,1.0,
530,5.0,decreament,0.6,100.0,standard,11.0,1.0,1.0,
531,5.0,decreament,0.6,100.0,standard,11.0,1.0,1.0,
532,5.0,decreament,0.6,100.0,standard,11.0,1.0,1.0,
533,5.0,decreament,0.6,100.0,standard,11.0,1.0,1.0,
534,5.0,decreament,0.6,100.0,standard,11.0,1.0,1.0,
535,5.0,decreament,0.6,100.0,standard,11.0,1.0,1.0,
536,5.0,decreament,0.6,100.0,standard,11.0,1.0,1.0,
537,5.0,decreament,0.6,100.0,standard,11.0,1.0,1.0,
538,5.0,decreament,0.48,80.0,oddball,14.0,1.0,0.0,
539,5.0,decreament,0.6,100.0,standard,11.0,1.0,1.0,
540,5.0,increament,0.6,100.0,standard,15.0,1.0,1.0,
541,5.0,increament,0.6,100.0,standard,15.0,1.0,1.0,
542,5.0,increament,0.6,100.0,standard,15.0,1.0,1.0,
543,5.0,increament,0.6,100.0,standard,15.0,1.0,1.0,
544,5.0,increament,0.6,100.0,standard,15.0,1.0,1.0,
545,5.0,increament,0.6,100.0,standard,15.0,1.0,1.0,
546,5.0,increament,0.6,100.0,standard,15.0,1.0,1.0,
547,5.0,increament,0.6,100.0,standard,15.0,1.0,1.0,
548,5.0,increament,0.6,100.0,standard,15.0,1.0,1.0,
549,5.0,increament,0.6,100.0,standard,15.0,1.0,1.0,
550,5.0,increament,0.6,100.0,standard,15.0,1.0,1.0,
551,5.0,increament,0.72,120.0,oddball,16.0,1.0,0.0,
552,5.0,increament,0.6,100.0,standard,15.0,1.0,1.0,
553,5.0,increament,0.6,100.0,standard,15.0,1.0,1.0,
554,5.0,increament,0.6,100.0,standard,15.0,1.0,1.0,
555,5.0,increament,0.6,100.0,standard,15.0,1.0,1.0,
556,5.0,increament,0.6,100.0,standard,15.0,1.0,1.0,
557,5.0,increament,0.6,100.0,standard,15.0,1.0,1.0,
558,5.0,increament,0.6,100.0,standard,15.0,1.0,1.0,
559,5.0,increament,0.6,100.0,standard,15.0,1.0,1.0,
560,5.0,increament,0.6,100.0,standard,15.0,1.0,1.0,
561,5.0,increament,0.6,100.0,standard,15.0,1.0,1.0,
562,5.0,increament,0.6,100.0,standard,15.0,1.0,1.0,
563,5.0,increament,0.96,160.0,oddball,18.0,1.0,1.0,0.558441299945116
564,5.0,increament,0.6,100.0,standard,15.0,1.0,1.0,
565,5.0,increament,0.6,100.0,standard,15.0,1.0,1.0,
566,5.0,increament,0.6,100.0,standard,15.0,1.0,1.0,
567,5.0,increament,0.6,100.0,standard,15.0,1.0,1.0,
568,5.0,increament,0.84,140.0,oddball,17.0,1.0,0.0,
569,5.0,increament,0.6,100.0,standard,15.0,1.0,1.0,
570,5.0,decreament,0.6,100.0,standard,11.0,1.0,1.0,
571,5.0,decreament,0.6,100.0,standard,11.0,1.0,1.0,
572,5.0,decreament,0.6,100.0,standard,11.0,1.0,1.0,
573,5.0,decreament,0.6,100.0,standard,11.0,1.0,1.0,
574,5.0,decreament,0.6,100.0,standard,11.0,1.0,1.0,
575,5.0,decreament,0.6,100.0,standard,11.0,1.0,1.0,
576,5.0,decreament,0.6,100.0,standard,11.0,1.0,1.0,
577,5.0,decreament,0.6,100.0,standard,11.0,1.0,1.0,
578,5.0,decreament,0.6,100.0,standard,11.0,1.0,1.0,
579,5.0,decreament,0.6,100.0,standard,11.0,1.0,1.0,
580,5.0,decreament,0.6,100.0,standard,11.0,1.0,1.0,
581,5.0,decreament,0.6,100.0,standard,11.0,1.0,1.0,
582,5.0,decreament,0.6,100.0,standard,11.0,1.0,1.0,
583,5.0,decreament,0.6,100.0,standard,11.0,1.0,1.0,
584,5.0,decreament,0.24,40.0,oddball,12.0,1.0,1.0,0.5622820998542011
585,5.0,decreament,0.6,100.0,standard,11.0,1.0,1.0,
586,5.0,decreament,0.6,100.0,standard,11.0,1.0,1.0,
587,5.0,decreament,0.6,100.0,standard,11.0,1.0,1.0,
588,5.0,decreament,0.6,100.0,standard,11.0,1.0,1.0,
589,5.0,decreament,0.6,100.0,standard,11.0,1.0,1.0,
590,5.0,decreament,0.6,100.0,standard,11.0,1.0,1.0,
591,5.0,decreament,0.6,100.0,standard,11.0,1.0,1.0,
592,5.0,decreament,0.6,100.0,standard,11.0,1.0,1.0,
593,5.0,decreament,0.6,100.0,standard,11.0,1.0,1.0,
594,5.0,decreament,0.6,100.0,standard,11.0,1.0,1.0,
595,5.0,decreament,0.48,80.0,oddball,14.0,1.0,0.0,
596,5.0,decreament,0.6,100.0,standard,11.0,1.0,1.0,
597,5.0,decreament,0.6,100.0,standard,11.0,1.0,1.0,
598,5.0,decreament,0.6,100.0,standard,11.0,1.0,1.0,
599,5.0,decreament,0.36,60.0,oddball,13.0,1.0,0.0,
600,10.0,increament,0.6,100.0,standard,25.0,2.0,1.0,
601,10.0,increament,0.6,100.0,standard,25.0,2.0,1.0,
602,10.0,increament,0.6,100.0,standard,25.0,2.0,1.0,
603,10.0,increament,0.6,100.0,standard,25.0,2.0,1.0,
604,10.0,increament,0.6,100.0,standard,25.0,2.0,1.0,
605,10.0,increament,0.6,100.0,standard,25.0,2.0,1.0,
606,10.0,increament,0.6,100.0,standard,25.0,2.0,1.0,
607,10.0,increament,0.6,100.0,standard,25.0,2.0,1.0,
608,10.0,increament,0.6,100.0,standard,25.0,2.0,1.0,
609,10.0,increament,0.6,100.0,standard,25.0,2.0,1.0,
610,10.0,increament,0.6,100.0,standard,25.0,2.0,1.0,
611,10.0,increament,0.6,100.0,standard,25.0,2.0,1.0,
612,10.0,increament,0.6,100.0,standard,25.0,2.0,1.0,
613,10.0,increament,0.96,160.0,oddball,28.0,2.0,1.0,0.3774267002008855
614,10.0,increament,0.6,100.0,standard,25.0,2.0,1.0,
615,10.0,increament,0.6,100.0,standard,25.0,2.0,1.0,
616,10.0,increament,0.6,100.0,standard,25.0,2.0,1.0,
617,10.0,increament,0.6,100.0,standard,25.0,2.0,1.0,
618,10.0,increament,0.6,100.0,standard,25.0,2.0,1.0,
619,10.0,increament,0.6,100.0,standard,25.0,2.0,1.0,
620,10.0,increament,0.72,120.0,oddball,26.0,2.0,0.0,
621,10.0,increament,0.6,100.0,standard,25.0,2.0,1.0,
622,10.0,increament,0.6,100.0,standard,25.0,2.0,1.0,
623,10.0,increament,0.6,100.0,standard,25.0,2.0,1.0,
624,10.0,increament,0.84,140.0,oddball,27.0,2.0,0.0,
625,10.0,increament,0.6,100.0,standard,25.0,2.0,1.0,
626,10.0,increament,0.6,100.0,standard,25.0,2.0,1.0,
627,10.0,increament,0.6,100.0,standard,25.0,2.0,1.0,
628,10.0,increament,0.6,100.0,standard,25.0,2.0,1.0,
629,10.0,increament,0.6,100.0,standard,25.0,2.0,1.0,
630,10.0,decreament,0.6,100.0,standard,21.0,2.0,1.0,
631,10.0,decreament,0.6,100.0,standard,21.0,2.0,1.0,
632,10.0,decreament,0.6,100.0,standard,21.0,2.0,1.0,
633,10.0,decreament,0.6,100.0,standard,21.0,2.0,1.0,
634,10.0,decreament,0.6,100.0,standard,21.0,2.0,1.0,
635,10.0,decreament,0.6,100.0,standard,21.0,2.0,1.0,
636,10.0,decreament,0.6,100.0,standard,21.0,2.0,1.0,
637,10.0,decreament,0.6,100.0,standard,21.0,2.0,1.0,
638,10.0,decreament,0.48,80.0,oddball,24.0,2.0,0.0,
639,10.0,decreament,0.6,100.0,standard,21.0,2.0,1.0,
640,10.0,decreament,0.6,100.0,standard,21.0,2.0,1.0,
641,10.0,decreament,0.6,100.0,standard,21.0,2.0,1.0,
642,10.0,decreament,0.6,100.0,standard,21.0,2.0,1.0,
643,10.0,decreament,0.36,60.0,oddball,23.0,2.0,1.0,1.01512479968369
644,10.0,decreament,0.6,100.0,standard,21.0,2.0,1.0,
645,10.0,decreament,0.6,100.0,standard,21.0,2.0,1.0,
646,10.0,decreament,0.6,100.0,standard,21.0,2.0,1.0,
647,10.0,decreament,0.6,100.0,standard,21.0,2.0,1.0,
648,10.0,decreament,0.6,100.0,standard,21.0,2.0,1.0,
649,10.0,decreament,0.6,100.0,standard,21.0,2.0,1.0,
650,10.0,decreament,0.6,100.0,standard,21.0,2.0,1.0,
651,10.0,decreament,0.24,40.0,oddball,22.0,2.0,1.0,0.9328047996386886
652,10.0,decreament,0.6,100.0,standard,21.0,2.0,1.0,
653,10.0,decreament,0.6,100.0,standard,21.0,2.0,1.0,
654,10.0,decreament,0.6,100.0,standard,21.0,2.0,1.0,
655,10.0,decreament,0.6,100.0,standard,21.0,2.0,1.0,
656,10.0,decreament,0.6,100.0,standard,21.0,2.0,1.0,
657,10.0,decreament,0.6,100.0,standard,21.0,2.0,1.0,
658,10.0,decreament,0.6,100.0,standard,21.0,2.0,1.0,
659,10.0,decreament,0.6,100.0,standard,21.0,2.0,1.0,
660,10.0,increament,0.6,100.0,standard,25.0,2.0,1.0,
661,10.0,increament,0.6,100.0,standard,25.0,2.0,1.0,
662,10.0,increament,0.6,100.0,standard,25.0,2.0,1.0,
663,10.0,increament,0.6,100.0,standard,25.0,2.0,1.0,
664,10.0,increament,0.6,100.0,standard,25.0,2.0,1.0,
665,10.0,increament,0.6,100.0,standard,25.0,2.0,1.0,
666,10.0,increament,0.6,100.0,standard,25.0,2.0,1.0,
667,10.0,increament,0.84,140.0,oddball,27.0,2.0,0.0,
668,10.0,increament,0.6,100.0,standard,25.0,2.0,1.0,
669,10.0,increament,0.6,100.0,standard,25.0,2.0,1.0,
670,10.0,increament,0.6,100.0,standard,25.0,2.0,1.0,
671,10.0,increament,0.6,100.0,standard,25.0,2.0,1.0,
672,10.0,increament,0.6,100.0,standard,25.0,2.0,1.0,
673,10.0,increament,0.72,120.0,oddball,26.0,2.0,1.0,0.9718404999002814
674,10.0,increament,0.6,100.0,standard,25.0,2.0,1.0,
675,10.0,increament,0.6,100.0,standard,25.0,2.0,1.0,
676,10.0,increament,0.6,100.0,standard,25.0,2.0,1.0,
677,10.0,increament,0.6,100.0,standard,25.0,2.0,1.0,
678,10.0,increament,0.6,100.0,standard,25.0,2.0,1.0,
679,10.0,increament,0.6,100.0,standard,25.0,2.0,1.0,
680,10.0,increament,0.6,100.0,standard,25.0,2.0,1.0,
681,10.0,increament,0.6,100.0,standard,25.0,2.0,1.0,
682,10.0,increament,0.6,100.0,standard,25.0,2.0,1.0,
683,10.0,increament,0.6,100.0,standard,25.0,2.0,1.0,
684,10.0,increament,0.96,160.0,oddball,28.0,2.0,1.0,0.7852255995385349
685,10.0,increament,0.6,100.0,standard,25.0,2.0,1.0,
686,10.0,increament,0.6,100.0,standard,25.0,2.0,1.0,
687,10.0,increament,0.6,100.0,standard,25.0,2.0,1.0,
688,10.0,increament,0.6,100.0,standard,25.0,2.0,1.0,
689,10.0,increament,0.6,100.0,standard,25.0,2.0,1.0,
690,10.0,decreament,0.6,100.0,standard,21.0,2.0,1.0,
691,10.0,decreament,0.6,100.0,standard,21.0,2.0,1.0,
692,10.0,decreament,0.6,100.0,standard,21.0,2.0,1.0,
693,10.0,decreament,0.6,100.0,standard,21.0,2.0,1.0,
694,10.0,decreament,0.6,100.0,standard,21.0,2.0,1.0,
695,10.0,decreament,0.36,60.0,oddball,23.0,2.0,0.0,
696,10.0,decreament,0.6,100.0,standard,21.0,2.0,1.0,
697,10.0,decreament,0.6,100.0,standard,21.0,2.0,1.0,
698,10.0,decreament,0.6,100.0,standard,21.0,2.0,1.0,
699,10.0,decreament,0.6,100.0,standard,21.0,2.0,1.0,
700,10.0,decreament,0.6,100.0,standard,21.0,2.0,1.0,
701,10.0,decreament,0.6,100.0,standard,21.0,2.0,1.0,
702,10.0,decreament,0.6,100.0,standard,21.0,2.0,1.0,
703,10.0,decreament,0.6,100.0,standard,21.0,2.0,1.0,
704,10.0,decreament,0.6,100.0,standard,21.0,2.0,1.0,
705,10.0,decreament,0.6,100.0,standard,21.0,2.0,1.0,
706,10.0,decreament,0.6,100.0,standard,21.0,2.0,1.0,
707,10.0,decreament,0.6,100.0,standard,21.0,2.0,1.0,
708,10.0,decreament,0.6,100.0,standard,21.0,2.0,1.0,
709,10.0,decreament,0.24,40.0,oddball,22.0,2.0,1.0,0.6345937997102737
710,10.0,decreament,0.6,100.0,standard,21.0,2.0,1.0,
711,10.0,decreament,0.6,100.0,standard,21.0,2.0,1.0,
712,10.0,decreament,0.6,100.0,standard,21.0,2.0,1.0,
713,10.0,decreament,0.6,100.0,standard,21.0,2.0,1.0,
714,10.0,decreament,0.6,100.0,standard,21.0,2.0,1.0,
715,10.0,decreament,0.6,100.0,standard,21.0,2.0,1.0,
716,10.0,decreament,0.6,100.0,standard,21.0,2.0,1.0,
717,10.0,decreament,0.48,80.0,oddball,24.0,2.0,0.0,
718,10.0,decreament,0.6,100.0,standard,21.0,2.0,1.0,
719,10.0,decreament,0.6,100.0,standard,21.0,2.0,1.0,
720,10.0,increament,0.6,100.0,standard,25.0,2.0,1.0,
721,10.0,increament,0.6,100.0,standard,25.0,2.0,1.0,
722,10.0,increament,0.6,100.0,standard,25.0,2.0,1.0,
723,10.0,increament,0.6,100.0,standard,25.0,2.0,1.0,
724,10.0,increament,0.6,100.0,standard,25.0,2.0,1.0,
725,10.0,increament,0.6,100.0,standard,25.0,2.0,1.0,
726,10.0,increament,0.6,100.0,standard,25.0,2.0,1.0,
727,10.0,increament,0.6,100.0,standard,25.0,2.0,1.0,
728,10.0,increament,0.6,100.0,standard,25.0,2.0,1.0,
729,10.0,increament,0.6,100.0,standard,25.0,2.0,1.0,
730,10.0,increament,0.6,100.0,standard,25.0,2.0,1.0,
731,10.0,increament,0.6,100.0,standard,25.0,2.0,1.0,
732,10.0,increament,0.6,100.0,standard,25.0,2.0,1.0,
733,10.0,increament,0.6,100.0,standard,25.0,2.0,1.0,
734,10.0,increament,0.6,100.0,standard,25.0,2.0,1.0,
735,10.0,increament,0.96,160.0,oddball,28.0,2.0,1.0,0.881316399667412
736,10.0,increament,0.6,100.0,standard,25.0,2.0,1.0,
737,10.0,increament,0.6,100.0,standard,25.0,2.0,1.0,
738,10.0,increament,0.6,100.0,standard,25.0,2.0,1.0,
739,10.0,increament,0.84,140.0,oddball,27.0,2.0,0.0,
740,10.0,increament,0.6,100.0,standard,25.0,2.0,1.0,
741,10.0,increament,0.6,100.0,standard,25.0,2.0,1.0,
742,10.0,increament,0.6,100.0,standard,25.0,2.0,1.0,
743,10.0,increament,0.6,100.0,standard,25.0,2.0,1.0,
744,10.0,increament,0.6,100.0,standard,25.0,2.0,1.0,
745,10.0,increament,0.6,100.0,standard,25.0,2.0,1.0,
746,10.0,increament,0.6,100.0,standard,25.0,2.0,1.0,
747,10.0,increament,0.72,120.0,oddball,26.0,2.0,0.0,
748,10.0,increament,0.6,100.0,standard,25.0,2.0,1.0,
749,10.0,increament,0.6,100.0,standard,25.0,2.0,1.0,
750,10.0,decreament,0.6,100.0,standard,21.0,2.0,1.0,
751,10.0,decreament,0.6,100.0,standard,21.0,2.0,1.0,
752,10.0,decreament,0.6,100.0,standard,21.0,2.0,1.0,
753,10.0,decreament,0.6,100.0,standard,21.0,2.0,1.0,
754,10.0,decreament,0.6,100.0,standard,21.0,2.0,1.0,
755,10.0,decreament,0.6,100.0,standard,21.0,2.0,1.0,
756,10.0,decreament,0.6,100.0,standard,21.0,2.0,1.0,
757,10.0,decreament,0.6,100.0,standard,21.0,2.0,1.0,
758,10.0,decreament,0.6,100.0,standard,21.0,2.0,1.0,
759,10.0,decreament,0.36,60.0,oddball,23.0,2.0,0.0,
760,10.0,decreament,0.6,100.0,standard,21.0,2.0,1.0,
761,10.0,decreament,0.6,100.0,standard,21.0,2.0,1.0,
762,10.0,decreament,0.6,100.0,standard,21.0,2.0,1.0,
763,10.0,decreament,0.6,100.0,standard,21.0,2.0,1.0,
764,10.0,decreament,0.6,100.0,standard,21.0,2.0,1.0,
765,10.0,decreament,0.6,100.0,standard,21.0,2.0,1.0,
766,10.0,decreament,0.6,100.0,standard,21.0,2.0,1.0,
767,10.0,decreament,0.24,40.0,oddball,22.0,2.0,1.0,0.7978987996466458
768,10.0,decreament,0.6,100.0,standard,21.0,2.0,1.0,
769,10.0,decreament,0.6,100.0,standard,21.0,2.0,1.0,
770,10.0,decreament,0.6,100.0,standard,21.0,2.0,1.0,
771,10.0,decreament,0.6,100.0,standard,21.0,2.0,1.0,
772,10.0,decreament,0.6,100.0,standard,21.0,2.0,1.0,
773,10.0,decreament,0.6,100.0,standard,21.0,2.0,1.0,
774,10.0,decreament,0.6,100.0,standard,21.0,2.0,1.0,
775,10.0,decreament,0.6,100.0,standard,21.0,2.0,1.0,
776,10.0,decreament,0.48,80.0,oddball,24.0,2.0,0.0,
777,10.0,decreament,0.6,100.0,standard,21.0,2.0,1.0,
778,10.0,decreament,0.6,100.0,standard,21.0,2.0,1.0,
779,10.0,decreament,0.6,100.0,standard,21.0,2.0,1.0,
780,10.0,increament,0.6,100.0,standard,25.0,2.0,1.0,
781,10.0,increament,0.6,100.0,standard,25.0,2.0,1.0,
782,10.0,increament,0.6,100.0,standard,25.0,2.0,1.0,
783,10.0,increament,0.6,100.0,standard,25.0,2.0,1.0,
784,10.0,increament,0.6,100.0,standard,25.0,2.0,1.0,
785,10.0,increament,0.6,100.0,standard,25.0,2.0,1.0,
786,10.0,increament,0.6,100.0,standard,25.0,2.0,1.0,
787,10.0,increament,0.6,100.0,standard,25.0,2.0,1.0,
788,10.0,increament,0.6,100.0,standard,25.0,2.0,1.0,
789,10.0,increament,0.6,100.0,standard,25.0,2.0,1.0,
790,10.0,increament,0.72,120.0,oddball,26.0,2.0,0.0,
791,10.0,increament,0.6,100.0,standard,25.0,2.0,1.0,
792,10.0,increament,0.6,100.0,standard,25.0,2.0,1.0,
793,10.0,increament,0.6,100.0,standard,25.0,2.0,1.0,
794,10.0,increament,0.6,100.0,standard,25.0,2.0,1.0,
795,10.0,increament,0.96,160.0,oddball,28.0,2.0,1.0,0.5520758996717632
796,10.0,increament,0.6,100.0,standard,25.0,2.0,1.0,
797,10.0,increament,0.6,100.0,standard,25.0,2.0,1.0,
798,10.0,increament,0.6,100.0,standard,25.0,2.0,1.0,
799,10.0,increament,0.6,100.0,standard,25.0,2.0,1.0,
800,10.0,increament,0.6,100.0,standard,25.0,2.0,1.0,
801,10.0,increament,0.6,100.0,standard,25.0,2.0,1.0,
802,10.0,increament,0.6,100.0,standard,25.0,2.0,1.0,
803,10.0,increament,0.84,140.0,oddball,27.0,2.0,0.0,
804,10.0,increament,0.6,100.0,standard,25.0,2.0,1.0,
805,10.0,increament,0.6,100.0,standard,25.0,2.0,1.0,
806,10.0,increament,0.6,100.0,standard,25.0,2.0,1.0,
807,10.0,increament,0.6,100.0,standard,25.0,2.0,1.0,
808,10.0,increament,0.6,100.0,standard,25.0,2.0,1.0,
809,10.0,increament,0.6,100.0,standard,25.0,2.0,1.0,
810,10.0,decreament,0.6,100.0,standard,21.0,2.0,1.0,
811,10.0,decreament,0.6,100.0,standard,21.0,2.0,1.0,
812,10.0,decreament,0.6,100.0,standard,21.0,2.0,1.0,
813,10.0,decreament,0.6,100.0,standard,21.0,2.0,1.0,
814,10.0,decreament,0.6,100.0,standard,21.0,2.0,1.0,
815,10.0,decreament,0.48,80.0,oddball,24.0,2.0,1.0,1.220289499964565
816,10.0,decreament,0.6,100.0,standard,21.0,2.0,1.0,
817,10.0,decreament,0.6,100.0,standard,21.0,2.0,1.0,
818,10.0,decreament,0.6,100.0,standard,21.0,2.0,1.0,
819,10.0,decreament,0.6,100.0,standard,21.0,2.0,1.0,
820,10.0,decreament,0.6,100.0,standard,21.0,2.0,1.0,
821,10.0,decreament,0.6,100.0,standard,21.0,2.0,1.0,
822,10.0,decreament,0.6,100.0,standard,21.0,2.0,1.0,
823,10.0,decreament,0.6,100.0,standard,21.0,2.0,1.0,
824,10.0,decreament,0.6,100.0,standard,21.0,2.0,1.0,
825,10.0,decreament,0.6,100.0,standard,21.0,2.0,1.0,
826,10.0,decreament,0.6,100.0,standard,21.0,2.0,1.0,
827,10.0,decreament,0.6,100.0,standard,21.0,2.0,1.0,
828,10.0,decreament,0.6,100.0,standard,21.0,2.0,1.0,
829,10.0,decreament,0.24,40.0,oddball,22.0,2.0,1.0,0.5547473998740315
830,10.0,decreament,0.6,100.0,standard,21.0,2.0,1.0,
831,10.0,decreament,0.6,100.0,standard,21.0,2.0,1.0,
832,10.0,decreament,0.6,100.0,standard,21.0,2.0,1.0,
833,10.0,decreament,0.6,100.0,standard,21.0,2.0,0.0,0.5596695998683572
834,10.0,decreament,0.6,100.0,standard,21.0,2.0,1.0,
835,10.0,decreament,0.6,100.0,standard,21.0,2.0,1.0,
836,10.0,decreament,0.36,60.0,oddball,23.0,2.0,0.0,
837,10.0,decreament,0.6,100.0,standard,21.0,2.0,1.0,
838,10.0,decreament,0.6,100.0,standard,21.0,2.0,1.0,
839,10.0,decreament,0.6,100.0,standard,21.0,2.0,1.0,
840,10.0,increament,0.6,100.0,standard,25.0,2.0,1.0,
841,10.0,increament,0.6,100.0,standard,25.0,2.0,1.0,
842,10.0,increament,0.6,100.0,standard,25.0,2.0,1.0,
843,10.0,increament,0.6,100.0,standard,25.0,2.0,1.0,
844,10.0,increament,0.6,100.0,standard,25.0,2.0,1.0,
845,10.0,increament,0.6,100.0,standard,25.0,2.0,1.0,
846,10.0,increament,0.84,140.0,oddball,27.0,2.0,0.0,
847,10.0,increament,0.6,100.0,standard,25.0,2.0,1.0,
848,10.0,increament,0.6,100.0,standard,25.0,2.0,1.0,
849,10.0,increament,0.6,100.0,standard,25.0,2.0,1.0,
850,10.0,increament,0.6,100.0,standard,25.0,2.0,1.0,
851,10.0,increament,0.72,120.0,oddball,26.0,2.0,0.0,
852,10.0,increament,0.6,100.0,standard,25.0,2.0,1.0,
853,10.0,increament,0.6,100.0,standard,25.0,2.0,1.0,
854,10.0,increament,0.6,100.0,standard,25.0,2.0,1.0,
855,10.0,increament,0.6,100.0,standard,25.0,2.0,1.0,
856,10.0,increament,0.6,100.0,standard,25.0,2.0,1.0,
857,10.0,increament,0.6,100.0,standard,25.0,2.0,1.0,
858,10.0,increament,0.6,100.0,standard,25.0,2.0,1.0,
859,10.0,increament,0.6,100.0,standard,25.0,2.0,1.0,
860,10.0,increament,0.96,160.0,oddball,28.0,2.0,1.0,0.5100495996885002
861,10.0,increament,0.6,100.0,standard,25.0,2.0,1.0,
862,10.0,increament,0.6,100.0,standard,25.0,2.0,1.0,
863,10.0,increament,0.6,100.0,standard,25.0,2.0,1.0,
864,10.0,increament,0.6,100.0,standard,25.0,2.0,1.0,
865,10.0,increament,0.6,100.0,standard,25.0,2.0,1.0,
866,10.0,increament,0.6,100.0,standard,25.0,2.0,1.0,
867,10.0,increament,0.6,100.0,standard,25.0,2.0,1.0,
868,10.0,increament,0.6,100.0,standard,25.0,2.0,1.0,
869,10.0,increament,0.6,100.0,standard,25.0,2.0,1.0,
870,10.0,decreament,0.6,100.0,standard,21.0,2.0,1.0,
871,10.0,decreament,0.6,100.0,standard,21.0,2.0,1.0,
872,10.0,decreament,0.6,100.0,standard,21.0,2.0,1.0,
873,10.0,decreament,0.6,100.0,standard,21.0,2.0,1.0,
874,10.0,decreament,0.6,100.0,standard,21.0,2.0,1.0,
875,10.0,decreament,0.6,100.0,standard,21.0,2.0,1.0,
876,10.0,decreament,0.6,100.0,standard,21.0,2.0,1.0,
877,10.0,decreament,0.48,80.0,oddball,24.0,2.0,0.0,
878,10.0,decreament,0.6,100.0,standard,21.0,2.0,1.0,
879,10.0,decreament,0.6,100.0,standard,21.0,2.0,1.0,
880,10.0,decreament,0.6,100.0,standard,21.0,2.0,1.0,
881,10.0,decreament,0.6,100.0,standard,21.0,2.0,1.0,
882,10.0,decreament,0.6,100.0,standard,21.0,2.0,1.0,
883,10.0,decreament,0.6,100.0,standard,21.0,2.0,1.0,
884,10.0,decreament,0.6,100.0,standard,21.0,2.0,1.0,
885,10.0,decreament,0.24,40.0,oddball,22.0,2.0,1.0,0.5353097999468446
886,10.0,decreament,0.6,100.0,standard,21.0,2.0,1.0,
887,10.0,decreament,0.6,100.0,standard,21.0,2.0,1.0,
888,10.0,decreament,0.6,100.0,standard,21.0,2.0,1.0,
889,10.0,decreament,0.6,100.0,standard,21.0,2.0,1.0,
890,10.0,decreament,0.6,100.0,standard,21.0,2.0,1.0,
891,10.0,decreament,0.6,100.0,standard,21.0,2.0,1.0,
892,10.0,decreament,0.6,100.0,standard,21.0,2.0,1.0,
893,10.0,decreament,0.6,100.0,standard,21.0,2.0,1.0,
894,10.0,decreament,0.6,100.0,standard,21.0,2.0,1.0,
895,10.0,decreament,0.6,100.0,standard,21.0,2.0,1.0,
896,10.0,decreament,0.6,100.0,standard,21.0,2.0,1.0,
897,10.0,decreament,0.36,60.0,oddball,23.0,2.0,1.0,0.974434900097549
898,10.0,decreament,0.6,100.0,standard,21.0,2.0,1.0,
899,10.0,decreament,0.6,100.0,standard,21.0,2.0,1.0,
900,0.0,increament,0.6,100.0,standard,5.0,3.0,1.0,
901,0.0,increament,0.6,100.0,standard,5.0,3.0,1.0,
902,0.0,increament,0.6,100.0,standard,5.0,3.0,1.0,
903,0.0,increament,0.6,100.0,standard,5.0,3.0,1.0,
904,0.0,increament,0.6,100.0,standard,5.0,3.0,1.0,
905,0.0,increament,0.6,100.0,standard,5.0,3.0,1.0,
906,0.0,increament,0.84,140.0,oddball,7.0,3.0,1.0,0.4249036000110209
907,0.0,increament,0.6,100.0,standard,5.0,3.0,1.0,
908,0.0,increament,0.6,100.0,standard,5.0,3.0,1.0,
909,0.0,increament,0.6,100.0,standard,5.0,3.0,1.0,
910,0.0,increament,0.6,100.0,standard,5.0,3.0,1.0,
911,0.0,increament,0.6,100.0,standard,5.0,3.0,1.0,
912,0.0,increament,0.6,100.0,standard,5.0,3.0,1.0,
913,0.0,increament,0.6,100.0,standard,5.0,3.0,1.0,
914,0.0,increament,0.6,100.0,standard,5.0,3.0,1.0,
915,0.0,increament,0.6,100.0,standard,5.0,3.0,1.0,
916,0.0,increament,0.6,100.0,standard,5.0,3.0,1.0,
917,0.0,increament,0.6,100.0,standard,5.0,3.0,1.0,
918,0.0,increament,0.72,120.0,oddball,6.0,3.0,0.0,
919,0.0,increament,0.6,100.0,standard,5.0,3.0,1.0,
920,0.0,increament,0.6,100.0,standard,5.0,3.0,1.0,
921,0.0,increament,0.6,100.0,standard,5.0,3.0,1.0,
922,0.0,increament,0.6,100.0,standard,5.0,3.0,1.0,
923,0.0,increament,0.6,100.0,standard,5.0,3.0,1.0,
924,0.0,increament,0.6,100.0,standard,5.0,3.0,1.0,
925,0.0,increament,0.6,100.0,standard,5.0,3.0,1.0,
926,0.0,increament,0.6,100.0,standard,5.0,3.0,1.0,
927,0.0,increament,0.6,100.0,standard,5.0,3.0,1.0,
928,0.0,increament,0.96,160.0,oddball,8.0,3.0,0.0,
929,0.0,increament,0.6,100.0,standard,5.0,3.0,1.0,
930,0.0,decreament,0.6,100.0,standard,1.0,3.0,1.0,
931,0.0,decreament,0.6,100.0,standard,1.0,3.0,1.0,
932,0.0,decreament,0.6,100.0,standard,1.0,3.0,1.0,
933,0.0,decreament,0.6,100.0,standard,1.0,3.0,1.0,
934,0.0,decreament,0.6,100.0,standard,1.0,3.0,1.0,
935,0.0,decreament,0.6,100.0,standard,1.0,3.0,1.0,
936,0.0,decreament,0.6,100.0,standard,1.0,3.0,1.0,
937,0.0,decreament,0.36,60.0,oddball,3.0,3.0,1.0,0.6387936999090016
938,0.0,decreament,0.6,100.0,standard,1.0,3.0,1.0,
939,0.0,decreament,0.6,100.0,standard,1.0,3.0,1.0,
940,0.0,decreament,0.6,100.0,standard,1.0,3.0,1.0,
941,0.0,decreament,0.6,100.0,standard,1.0,3.0,1.0,
942,0.0,decreament,0.6,100.0,standard,1.0,3.0,1.0,
943,0.0,decreament,0.6,100.0,standard,1.0,3.0,1.0,
944,0.0,decreament,0.6,100.0,standard,1.0,3.0,1.0,
945,0.0,decreament,0.6,100.0,standard,1.0,3.0,1.0,
946,0.0,decreament,0.6,100.0,standard,1.0,3.0,1.0,
947,0.0,decreament,0.48,80.0,oddball,4.0,3.0,0.0,
948,0.0,decreament,0.6,100.0,standard,1.0,3.0,1.0,
949,0.0,decreament,0.6,100.0,standard,1.0,3.0,1.0,
950,0.0,decreament,0.6,100.0,standard,1.0,3.0,1.0,
951,0.0,decreament,0.6,100.0,standard,1.0,3.0,1.0,
952,0.0,decreament,0.6,100.0,standard,1.0,3.0,1.0,
953,0.0,decreament,0.6,100.0,standard,1.0,3.0,1.0,
954,0.0,decreament,0.6,100.0,standard,1.0,3.0,1.0,
955,0.0,decreament,0.6,100.0,standard,1.0,3.0,1.0,
956,0.0,decreament,0.6,100.0,standard,1.0,3.0,1.0,
957,0.0,decreament,0.24,40.0,oddball,2.0,3.0,1.0,0.7823445997200906
958,0.0,decreament,0.6,100.0,standard,1.0,3.0,1.0,
959,0.0,decreament,0.6,100.0,standard,1.0,3.0,1.0,
960,0.0,increament,0.6,100.0,standard,5.0,3.0,1.0,
961,0.0,increament,0.6,100.0,standard,5.0,3.0,1.0,
962,0.0,increament,0.6,100.0,standard,5.0,3.0,1.0,
963,0.0,increament,0.6,100.0,standard,5.0,3.0,1.0,
964,0.0,increament,0.6,100.0,standard,5.0,3.0,1.0,
965,0.0,increament,0.84,140.0,oddball,7.0,3.0,0.0,
966,0.0,increament,0.6,100.0,standard,5.0,3.0,1.0,
967,0.0,increament,0.6,100.0,standard,5.0,3.0,1.0,
968,0.0,increament,0.6,100.0,standard,5.0,3.0,1.0,
969,0.0,increament,0.6,100.0,standard,5.0,3.0,1.0,
970,0.0,increament,0.6,100.0,standard,5.0,3.0,1.0,
971,0.0,increament,0.6,100.0,standard,5.0,3.0,1.0,
972,0.0,increament,0.6,100.0,standard,5.0,3.0,1.0,
973,0.0,increament,0.6,100.0,standard,5.0,3.0,1.0,
974,0.0,increament,0.6,100.0,standard,5.0,3.0,1.0,
975,0.0,increament,0.6,100.0,standard,5.0,3.0,1.0,
976,0.0,increament,0.6,100.0,standard,5.0,3.0,1.0,
977,0.0,increament,0.72,120.0,oddball,6.0,3.0,0.0,
978,0.0,increament,0.6,100.0,standard,5.0,3.0,1.0,
979,0.0,increament,0.6,100.0,standard,5.0,3.0,1.0,
980,0.0,increament,0.6,100.0,standard,5.0,3.0,1.0,
981,0.0,increament,0.6,100.0,standard,5.0,3.0,1.0,
982,0.0,increament,0.6,100.0,standard,5.0,3.0,1.0,
983,0.0,increament,0.6,100.0,standard,5.0,3.0,1.0,
984,0.0,increament,0.6,100.0,standard,5.0,3.0,1.0,
985,0.0,increament,0.96,160.0,oddball,8.0,3.0,1.0,0.5914265997707844
986,0.0,increament,0.6,100.0,standard,5.0,3.0,1.0,
987,0.0,increament,0.6,100.0,standard,5.0,3.0,1.0,
988,0.0,increament,0.6,100.0,standard,5.0,3.0,1.0,
989,0.0,increament,0.6,100.0,standard,5.0,3.0,1.0,
990,0.0,decreament,0.6,100.0,standard,1.0,3.0,1.0,
991,0.0,decreament,0.6,100.0,standard,1.0,3.0,1.0,
992,0.0,decreament,0.6,100.0,standard,1.0,3.0,1.0,
993,0.0,decreament,0.6,100.0,standard,1.0,3.0,1.0,
994,0.0,decreament,0.6,100.0,standard,1.0,3.0,1.0,
995,0.0,decreament,0.6,100.0,standard,1.0,3.0,1.0,
996,0.0,decreament,0.6,100.0,standard,1.0,3.0,1.0,
997,0.0,decreament,0.6,100.0,standard,1.0,3.0,1.0,
998,0.0,decreament,0.36,60.0,oddball,3.0,3.0,1.0,0.7569506000727415
999,0.0,decreament,0.6,100.0,standard,1.0,3.0,1.0,
1000,0.0,decreament,0.6,100.0,standard,1.0,3.0,1.0,
1001,0.0,decreament,0.6,100.0,standard,1.0,3.0,1.0,
1002,0.0,decreament,0.6,100.0,standard,1.0,3.0,1.0,
1003,0.0,decreament,0.6,100.0,standard,1.0,3.0,1.0,
1004,0.0,decreament,0.6,100.0,standard,1.0,3.0,1.0,
1005,0.0,decreament,0.24,40.0,oddball,2.0,3.0,1.0,0.5484540001489222
1006,0.0,decreament,0.6,100.0,standard,1.0,3.0,1.0,
1007,0.0,decreament,0.6,100.0,standard,1.0,3.0,1.0,
1008,0.0,decreament,0.6,100.0,standard,1.0,3.0,1.0,
1009,0.0,decreament,0.6,100.0,standard,1.0,3.0,1.0,
1010,0.0,decreament,0.6,100.0,standard,1.0,3.0,1.0,
1011,0.0,decreament,0.6,100.0,standard,1.0,3.0,1.0,
1012,0.0,decreament,0.6,100.0,standard,1.0,3.0,1.0,
1013,0.0,decreament,0.6,100.0,standard,1.0,3.0,1.0,
1014,0.0,decreament,0.6,100.0,standard,1.0,3.0,1.0,
1015,0.0,decreament,0.6,100.0,standard,1.0,3.0,1.0,
1016,0.0,decreament,0.6,100.0,standard,1.0,3.0,1.0,
1017,0.0,decreament,0.6,100.0,standard,1.0,3.0,1.0,
1018,0.0,decreament,0.48,80.0,oddball,4.0,3.0,0.0,
1019,0.0,decreament,0.6,100.0,standard,1.0,3.0,1.0,
1020,0.0,increament,0.6,100.0,standard,5.0,3.0,1.0,
1021,0.0,increament,0.6,100.0,standard,5.0,3.0,1.0,
1022,0.0,increament,0.6,100.0,standard,5.0,3.0,1.0,
1023,0.0,increament,0.6,100.0,standard,5.0,3.0,1.0,
1024,0.0,increament,0.6,100.0,standard,5.0,3.0,1.0,
1025,0.0,increament,0.6,100.0,standard,5.0,3.0,1.0,
1026,0.0,increament,0.6,100.0,standard,5.0,3.0,1.0,
1027,0.0,increament,0.6,100.0,standard,5.0,3.0,1.0,
1028,0.0,increament,0.6,100.0,standard,5.0,3.0,1.0,
1029,0.0,increament,0.72,120.0,oddball,6.0,3.0,0.0,
1030,0.0,increament,0.6,100.0,standard,5.0,3.0,1.0,
1031,0.0,increament,0.6,100.0,standard,5.0,3.0,1.0,
1032,0.0,increament,0.6,100.0,standard,5.0,3.0,1.0,
1033,0.0,increament,0.6,100.0,standard,5.0,3.0,1.0,
1034,0.0,increament,0.6,100.0,standard,5.0,3.0,1.0,
1035,0.0,increament,0.6,100.0,standard,5.0,3.0,1.0,
1036,0.0,increament,0.6,100.0,standard,5.0,3.0,1.0,
1037,0.0,increament,0.6,100.0,standard,5.0,3.0,1.0,
1038,0.0,increament,0.6,100.0,standard,5.0,3.0,1.0,
1039,0.0,increament,0.6,100.0,standard,5.0,3.0,1.0,
1040,0.0,increament,0.6,100.0,standard,5.0,3.0,1.0,
1041,0.0,increament,0.6,100.0,standard,5.0,3.0,1.0,
1042,0.0,increament,0.6,100.0,standard,5.0,3.0,1.0,
1043,0.0,increament,0.6,100.0,standard,5.0,3.0,1.0,
1044,0.0,increament,0.84,140.0,oddball,7.0,3.0,1.0,0.7822478995658457
1045,0.0,increament,0.6,100.0,standard,5.0,3.0,1.0,
1046,0.0,increament,0.6,100.0,standard,5.0,3.0,1.0,
1047,0.0,increament,0.6,100.0,standard,5.0,3.0,1.0,
1048,0.0,increament,0.6,100.0,standard,5.0,3.0,1.0,
1049,0.0,increament,0.96,160.0,oddball,8.0,3.0,1.0,0.6591899995692074
1050,0.0,decreament,0.6,100.0,standard,1.0,3.0,1.0,
1051,0.0,decreament,0.6,100.0,standard,1.0,3.0,1.0,
1052,0.0,decreament,0.6,100.0,standard,1.0,3.0,1.0,
1053,0.0,decreament,0.6,100.0,standard,1.0,3.0,1.0,
1054,0.0,decreament,0.6,100.0,standard,1.0,3.0,1.0,
1055,0.0,decreament,0.6,100.0,standard,1.0,3.0,1.0,
1056,0.0,decreament,0.48,80.0,oddball,4.0,3.0,0.0,
1057,0.0,decreament,0.6,100.0,standard,1.0,3.0,1.0,
1058,0.0,decreament,0.6,100.0,standard,1.0,3.0,1.0,
1059,0.0,decreament,0.6,100.0,standard,1.0,3.0,1.0,
1060,0.0,decreament,0.6,100.0,standard,1.0,3.0,1.0,
1061,0.0,decreament,0.6,100.0,standard,1.0,3.0,1.0,
1062,0.0,decreament,0.6,100.0,standard,1.0,3.0,1.0,
1063,0.0,decreament,0.6,100.0,standard,1.0,3.0,1.0,
1064,0.0,decreament,0.6,100.0,standard,1.0,3.0,1.0,
1065,0.0,decreament,0.6,100.0,standard,1.0,3.0,1.0,
1066,0.0,decreament,0.6,100.0,standard,1.0,3.0,1.0,
1067,0.0,decreament,0.6,100.0,standard,1.0,3.0,1.0,
1068,0.0,decreament,0.6,100.0,standard,1.0,3.0,1.0,
1069,0.0,decreament,0.24,40.0,oddball,2.0,3.0,1.0,0.6530351000837982
1070,0.0,decreament,0.6,100.0,standard,1.0,3.0,1.0,
1071,0.0,decreament,0.6,100.0,standard,1.0,3.0,1.0,
1072,0.0,decreament,0.6,100.0,standard,1.0,3.0,1.0,
1073,0.0,decreament,0.6,100.0,standard,1.0,3.0,1.0,
1074,0.0,decreament,0.6,100.0,standard,1.0,3.0,1.0,
1075,0.0,decreament,0.6,100.0,standard,1.0,3.0,1.0,
1076,0.0,decreament,0.6,100.0,standard,1.0,3.0,1.0,
1077,0.0,decreament,0.6,100.0,standard,1.0,3.0,1.0,
1078,0.0,decreament,0.36,60.0,oddball,3.0,3.0,0.0,
1079,0.0,decreament,0.6,100.0,standard,1.0,3.0,1.0,
1080,0.0,increament,0.6,100.0,standard,5.0,3.0,1.0,
1081,0.0,increament,0.6,100.0,standard,5.0,3.0,1.0,
1082,0.0,increament,0.6,100.0,standard,5.0,3.0,1.0,
1083,0.0,increament,0.6,100.0,standard,5.0,3.0,1.0,
1084,0.0,increament,0.6,100.0,standard,5.0,3.0,1.0,
1085,0.0,increament,0.6,100.0,standard,5.0,3.0,1.0,
1086,0.0,increament,0.6,100.0,standard,5.0,3.0,1.0,
1087,0.0,increament,0.6,100.0,standard,5.0,3.0,1.0,
1088,0.0,increament,0.6,100.0,standard,5.0,3.0,1.0,
1089,0.0,increament,0.6,100.0,standard,5.0,3.0,1.0,
1090,0.0,increament,0.84,140.0,oddball,7.0,3.0,0.0,
1091,0.0,increament,0.6,100.0,standard,5.0,3.0,1.0,
1092,0.0,increament,0.6,100.0,standard,5.0,3.0,1.0,
1093,0.0,increament,0.6,100.0,standard,5.0,3.0,1.0,
1094,0.0,increament,0.6,100.0,standard,5.0,3.0,1.0,
1095,0.0,increament,0.96,160.0,oddball,8.0,3.0,0.0,
1096,0.0,increament,0.6,100.0,standard,5.0,3.0,1.0,
1097,0.0,increament,0.6,100.0,standard,5.0,3.0,1.0,
1098,0.0,increament,0.6,100.0,standard,5.0,3.0,1.0,
1099,0.0,increament,0.6,100.0,standard,5.0,3.0,1.0,
1100,0.0,increament,0.6,100.0,standard,5.0,3.0,1.0,
1101,0.0,increament,0.6,100.0,standard,5.0,3.0,1.0,
1102,0.0,increament,0.72,120.0,oddball,6.0,3.0,0.0,
1103,0.0,increament,0.6,100.0,standard,5.0,3.0,1.0,
1104,0.0,increament,0.6,100.0,standard,5.0,3.0,1.0,
1105,0.0,increament,0.6,100.0,standard,5.0,3.0,1.0,
1106,0.0,increament,0.6,100.0,standard,5.0,3.0,1.0,
1107,0.0,increament,0.6,100.0,standard,5.0,3.0,1.0,
1108,0.0,increament,0.6,100.0,standard,5.0,3.0,1.0,
1109,0.0,increament,0.6,100.0,standard,5.0,3.0,1.0,
1110,0.0,decreament,0.6,100.0,standard,1.0,3.0,1.0,
1111,0.0,decreament,0.6,100.0,standard,1.0,3.0,1.0,
1112,0.0,decreament,0.6,100.0,standard,1.0,3.0,1.0,
1113,0.0,decreament,0.6,100.0,standard,1.0,3.0,1.0,
1114,0.0,decreament,0.6,100.0,standard,1.0,3.0,1.0,
1115,0.0,decreament,0.6,100.0,standard,1.0,3.0,1.0,
1116,0.0,decreament,0.6,100.0,standard,1.0,3.0,1.0,
1117,0.0,decreament,0.6,100.0,standard,1.0,3.0,1.0,
1118,0.0,decreament,0.6,100.0,standard,1.0,3.0,1.0,
1119,0.0,decreament,0.6,100.0,standard,1.0,3.0,1.0,
1120,0.0,decreament,0.48,80.0,oddball,4.0,3.0,0.0,
1121,0.0,decreament,0.6,100.0,standard,1.0,3.0,1.0,
1122,0.0,decreament,0.6,100.0,standard,1.0,3.0,1.0,
1123,0.0,decreament,0.6,100.0,standard,1.0,3.0,1.0,
1124,0.0,decreament,0.6,100.0,standard,1.0,3.0,1.0,
1125,0.0,decreament,0.6,100.0,standard,1.0,3.0,1.0,
1126,0.0,decreament,0.6,100.0,standard,1.0,3.0,1.0,
1127,0.0,decreament,0.6,100.0,standard,1.0,3.0,1.0,
1128,0.0,decreament,0.6,100.0,standard,1.0,3.0,1.0,
1129,0.0,decreament,0.6,100.0,standard,1.0,3.0,1.0,
1130,0.0,decreament,0.6,100.0,standard,1.0,3.0,1.0,
1131,0.0,decreament,0.6,100.0,standard,1.0,3.0,1.0,
1132,0.0,decreament,0.6,100.0,standard,1.0,3.0,1.0,
1133,0.0,decreament,0.6,100.0,standard,1.0,3.0,1.0,
1134,0.0,decreament,0.36,60.0,oddball,3.0,3.0,0.0,
1135,0.0,decreament,0.6,100.0,standard,1.0,3.0,1.0,
1136,0.0,decreament,0.6,100.0,standard,1.0,3.0,1.0,
1137,0.0,decreament,0.6,100.0,standard,1.0,3.0,1.0,
1138,0.0,decreament,0.6,100.0,standard,1.0,3.0,1.0,
1139,0.0,decreament,0.24,40.0,oddball,2.0,3.0,1.0,0.9792517996393144
1140,0.0,increament,0.6,100.0,standard,5.0,3.0,1.0,
1141,0.0,increament,0.6,100.0,standard,5.0,3.0,1.0,
1142,0.0,increament,0.6,100.0,standard,5.0,3.0,1.0,
1143,0.0,increament,0.6,100.0,standard,5.0,3.0,1.0,
1144,0.0,increament,0.6,100.0,standard,5.0,3.0,1.0,
1145,0.0,increament,0.6,100.0,standard,5.0,3.0,1.0,
1146,0.0,increament,0.6,100.0,standard,5.0,3.0,1.0,
1147,0.0,increament,0.6,100.0,standard,5.0,3.0,1.0,
1148,0.0,increament,0.6,100.0,standard,5.0,3.0,1.0,
1149,0.0,increament,0.6,100.0,standard,5.0,3.0,1.0,
1150,0.0,increament,0.72,120.0,oddball,6.0,3.0,0.0,
1151,0.0,increament,0.6,100.0,standard,5.0,3.0,1.0,
1152,0.0,increament,0.6,100.0,standard,5.0,3.0,1.0,
1153,0.0,increament,0.6,100.0,standard,5.0,3.0,1.0,
1154,0.0,increament,0.6,100.0,standard,5.0,3.0,1.0,
1155,0.0,increament,0.6,100.0,standard,5.0,3.0,1.0,
1156,0.0,increament,0.6,100.0,standard,5.0,3.0,1.0,
1157,0.0,increament,0.6,100.0,standard,5.0,3.0,1.0,
1158,0.0,increament,0.6,100.0,standard,5.0,3.0,1.0,
1159,0.0,increament,0.96,160.0,oddball,8.0,3.0,0.0,
1160,0.0,increament,0.6,100.0,standard,5.0,3.0,1.0,
1161,0.0,increament,0.6,100.0,standard,5.0,3.0,1.0,
1162,0.0,increament,0.6,100.0,standard,5.0,3.0,1.0,
1163,0.0,increament,0.6,100.0,standard,5.0,3.0,1.0,
1164,0.0,increament,0.6,100.0,standard,5.0,3.0,1.0,
1165,0.0,increament,0.6,100.0,standard,5.0,3.0,1.0,
1166,0.0,increament,0.6,100.0,standard,5.0,3.0,1.0,
1167,0.0,increament,0.84,140.0,oddball,7.0,3.0,0.0,
1168,0.0,increament,0.6,100.0,standard,5.0,3.0,1.0,
1169,0.0,increament,0.6,100.0,standard,5.0,3.0,1.0,
1170,0.0,decreament,0.6,100.0,standard,1.0,3.0,1.0,
1171,0.0,decreament,0.6,100.0,standard,1.0,3.0,1.0,
1172,0.0,decreament,0.6,100.0,standard,1.0,3.0,1.0,
1173,0.0,decreament,0.6,100.0,standard,1.0,3.0,1.0,
1174,0.0,decreament,0.6,100.0,standard,1.0,3.0,1.0,
1175,0.0,decreament,0.6,100.0,standard,1.0,3.0,1.0,
1176,0.0,decreament,0.36,60.0,oddball,3.0,3.0,1.0,0.8845985000953078
1177,0.0,decreament,0.6,100.0,standard,1.0,3.0,1.0,
1178,0.0,decreament,0.6,100.0,standard,1.0,3.0,1.0,
1179,0.0,decreament,0.6,100.0,standard,1.0,3.0,1.0,
1180,0.0,decreament,0.6,100.0,standard,1.0,3.0,1.0,
1181,0.0,decreament,0.6,100.0,standard,1.0,3.0,1.0,
1182,0.0,decreament,0.6,100.0,standard,1.0,3.0,1.0,
1183,0.0,decreament,0.6,100.0,standard,1.0,3.0,1.0,
1184,0.0,decreament,0.6,100.0,standard,1.0,3.0,1.0,
1185,0.0,decreament,0.6,100.0,standard,1.0,3.0,1.0,
1186,0.0,decreament,0.6,100.0,standard,1.0,3.0,1.0,
1187,0.0,decreament,0.6,100.0,standard,1.0,3.0,1.0,
1188,0.0,decreament,0.6,100.0,standard,1.0,3.0,1.0,
1189,0.0,decreament,0.6,100.0,standard,1.0,3.0,1.0,
1190,0.0,decreament,0.6,100.0,standard,1.0,3.0,0.0,0.7015532995574176
1191,0.0,decreament,0.6,100.0,standard,1.0,3.0,1.0,
1192,0.0,decreament,0.6,100.0,standard,1.0,3.0,1.0,
1193,0.0,decreament,0.24,40.0,oddball,2.0,3.0,1.0,0.6195125998929143
1194,0.0,decreament,0.6,100.0,standard,1.0,3.0,1.0,
1195,0.0,decreament,0.6,100.0,standard,1.0,3.0,1.0,
1196,0.0,decreament,0.6,100.0,standard,1.0,3.0,1.0,
1197,0.0,decreament,0.6,100.0,standard,1.0,3.0,1.0,
1198,0.0,decreament,0.48,80.0,oddball,4.0,3.0,0.0,
1199,0.0,decreament,0.6,100.0,standard,1.0,3.0,1.0,
