grating_freq,blocks_prac.thisRepN,blocks_prac.thisTrialN,blocks_prac.thisN,blocks_prac.thisIndex,blocks.thisRepN,blocks.thisTrialN,blocks.thisN,blocks.thisIndex,repeat_freq.thisRepN,repeat_freq.thisTrialN,repeat_freq.thisN,repeat_freq.thisIndex,trials.thisRepN,trials.thisTrialN,trials.thisN,trials.thisIndex,break_loop.thisRepN,break_loop.thisTrialN,break_loop.thisN,break_loop.thisIndex,rest_loop.thisRepN,rest_loop.thisTrialN,rest_loop.thisN,rest_loop.thisIndex,instruct_prac_text.started,instruct_prac_text.stopped,b_instruct_text_2_.started,b_instruct_text_2_.stopped,prac_done_text.started,prac_done_text.stopped,instruct_text.started,instruct_text.stopped,fixation.started,fixation.stopped,grating.started,grating.stopped,blank.started,blank.stopped,resp.keys,resp.corr,resp.started,resp.stopped,direction,duration,trigger,stim_type,corr_ans,scaling,resp.rt,rest_text.started,rest_text.stopped,text_2.started,text_2.stopped,thx_txt.started,thx_txt.stopped,gender,age,participant,language,main_hand,nBlock_prac,file_suffix,date,expName,psychopyVersion,frameRate,
5,,,,,0,0,0,1,0,0,0,0,0,0,0,0,,,,,,,,,65.42794340004912,None,81.7589434000547,None,87.1164328000159,None,159.54338360001566,None,164.4565500000026,None,165.195941700018,165.80697220005095,165.74022210005205,167.74124270002358,None,1,0.6112332500633784,2.612282350077294,decreament,0.6,11,standard,None,100,,,,,,,,m,23,201,en,r,0,raw,2022-05-03_11h14.46.709,oddball,2022.1.2,59.9631466486753,
5,,,,,0,0,0,1,0,0,0,0,1,0,1,0,,,,,,,,,,,,,,,,,167.75784490001388,None,168.35843260004185,168.95830440003192,168.9416588000022,170.94218340003863,None,1,0.6119671499473043,2.612433649948798,decreament,0.6,11,standard,None,100,,,,,,,,m,23,201,en,r,0,raw,2022-05-03_11h14.46.709,oddball,2022.1.2,59.9631466486753,
5,,,,,0,0,0,1,0,0,0,0,2,0,2,0,,,,,,,,,,,,,,,,,170.95885620004265,None,171.70885670004645,172.3095138000208,172.29297530004987,174.29353470000206,None,1,0.6146007500356063,2.615094050008338,decreament,0.6,11,standard,None,100,,,,,,,,m,23,201,en,r,0,raw,2022-05-03_11h14.46.709,oddball,2022.1.2,59.9631466486753,
5,,,,,0,0,0,1,0,0,0,0,3,0,3,0,,,,,,,,,,,,,,,,,174.3102025000262,None,174.91088890004903,175.51058410003316,175.493983100052,177.4947745000245,None,1,0.6132974500069395,2.614143349986989,decreament,0.6,11,standard,None,100,,,,,,,,m,23,201,en,r,0,raw,2022-05-03_11h14.46.709,oddball,2022.1.2,59.9631466486753,
5,,,,,0,0,0,1,0,0,0,0,4,0,4,0,,,,,,,,,,,,,,,,,177.5116572000552,None,178.16169269999955,178.7619726000121,178.74520730000222,180.74640030000592,None,1,0.6133930500363931,2.6146756500238553,decreament,0.6,11,standard,None,100,,,,,,,,m,23,201,en,r,0,raw,2022-05-03_11h14.46.709,oddball,2022.1.2,59.9631466486753,
5,,,,,0,0,0,1,0,0,0,0,5,0,5,0,,,,,,,,,,,,,,,,,180.7624864000245,None,181.32972320000408,181.9299255000078,181.91355170001043,183.91417990002083,None,1,0.6122375500272028,2.612521250033751,decreament,0.6,11,standard,None,100,,,,,,,,m,23,201,en,r,0,raw,2022-05-03_11h14.46.709,oddball,2022.1.2,59.9631466486753,
5,,,,,0,0,0,1,0,0,0,0,6,0,6,0,,,,,,,,,,,,,,,,,183.93043300003046,None,184.5142659000121,184.99767550005345,184.96433970000362,186.96520410000812,None,0,0.48013875004835427,2.4810151500278153,decreament,0.48,14,oddball,j,80,,,,,,,,m,23,201,en,r,0,raw,2022-05-03_11h14.46.709,oddball,2022.1.2,59.9631466486753,
5,,,,,0,0,0,1,0,0,0,0,7,0,7,0,,,,,,,,,,,,,,,,,186.9814620000543,None,187.54885770002147,188.1486877000425,188.1323473000084,190.13293140003225,None,1,0.6114029500167817,2.611984150018543,decreament,0.6,11,standard,None,100,,,,,,,,m,23,201,en,r,0,raw,2022-05-03_11h14.46.709,oddball,2022.1.2,59.9631466486753,
5,,,,,0,0,0,1,0,0,0,0,8,0,8,0,,,,,,,,,,,,,,,,,190.14961410005344,None,190.8833579000202,191.48323440004606,191.46665550000034,193.46724120003637,None,1,0.6092417500331067,2.6097924500354566,decreament,0.6,11,standard,None,100,,,,,,,,m,23,201,en,r,0,raw,2022-05-03_11h14.46.709,oddball,2022.1.2,59.9631466486753,
5,,,,,0,0,0,1,0,0,0,0,9,0,9,0,,,,,,,,,,,,,,,,,193.48383860004833,None,194.1852413000306,194.78446280001663,194.76792990003014,196.7686169000226,None,1,0.6121144500211813,2.6128005500067957,decreament,0.6,11,standard,None,100,,,,,,,,m,23,201,en,r,0,raw,2022-05-03_11h14.46.709,oddball,2022.1.2,59.9631466486753,
5,,,,,0,0,0,1,0,0,0,0,10,0,10,0,,,,,,,,,,,,,,,,,196.78588140005013,None,197.45275930000935,198.05293160001747,198.0361063000164,200.03680430003442,None,1,0.6132648499915376,2.6139684499939904,decreament,0.6,11,standard,None,100,,,,,,,,m,23,201,en,r,0,raw,2022-05-03_11h14.46.709,oddball,2022.1.2,59.9631466486753,
5,,,,,0,0,0,1,0,0,0,0,11,0,11,0,,,,,,,,,,,,,,,,,200.05333470000187,None,200.68683210003655,201.28693360002944,201.2704495000071,203.27124640002148,None,1,0.6135663500754163,2.6144104500417598,decreament,0.6,11,standard,None,100,,,,,,,,m,23,201,en,r,0,raw,2022-05-03_11h14.46.709,oddball,2022.1.2,59.9631466486753,
5,,,,,0,0,0,1,0,0,0,0,12,0,12,0,,,,,,,,,,,,,,,,,203.28771330002928,None,203.90465710003627,204.50534520001383,204.48825520003447,206.48947490000864,None,1,0.6131244499702007,2.614367750007659,decreament,0.6,11,standard,None,100,,,,,,,,m,23,201,en,r,0,raw,2022-05-03_11h14.46.709,oddball,2022.1.2,59.9631466486753,
5,,,,,0,0,0,1,0,0,0,0,13,0,13,0,,,,,,,,,,,,,,,,,206.5056788000511,None,207.22259710001526,207.8225784000242,207.8060347000137,209.80684750003275,None,1,0.6107053500600159,2.6115195500315167,decreament,0.6,11,standard,None,100,,,,,,,,m,23,201,en,r,0,raw,2022-05-03_11h14.46.709,oddball,2022.1.2,59.9631466486753,
5,,,,,0,0,0,1,0,0,0,0,14,0,14,0,,,,,,,,,,,,,,,,,209.82366540003568,None,210.3576560000074,210.95763600000646,210.94082990003517,212.94134170003235,j,0,0.6125787499477156,2.6130708499695174,decreament,0.6,11,standard,None,100,0.5908391000120901,,,,,,,m,23,201,en,r,0,raw,2022-05-03_11h14.46.709,oddball,2022.1.2,59.9631466486753,
5,,,,,0,0,0,1,0,0,0,0,15,0,15,0,,,,,,,,,,,,,,,,,212.95821190002607,None,213.558278600045,214.15860920003615,214.14194900001166,216.14273280004272,None,1,0.6149420500150882,2.6156968499999493,decreament,0.6,11,standard,None,100,,,,,,,,m,23,201,en,r,0,raw,2022-05-03_11h14.46.709,oddball,2022.1.2,59.9631466486753,
5,,,,,0,0,0,1,0,0,0,0,16,0,16,0,,,,,,,,,,,,,,,,,216.15919730003225,None,216.75945710000815,217.35976500000106,217.34339540003566,219.3437950000516,None,1,0.6145095499814488,2.6149130500270985,decreament,0.6,11,standard,None,100,,,,,,,,m,23,201,en,r,0,raw,2022-05-03_11h14.46.709,oddball,2022.1.2,59.9631466486753,
5,,,,,0,0,0,1,0,0,0,0,17,0,17,0,,,,,,,,,,,,,,,,,219.36115570005495,None,220.0775475000264,220.6778433000436,220.66122629999882,222.66201850003563,None,1,0.6144539500819519,2.615212750097271,decreament,0.6,11,standard,None,100,,,,,,,,m,23,201,en,r,0,raw,2022-05-03_11h14.46.709,oddball,2022.1.2,59.9631466486753,
5,,,,,0,0,0,1,0,0,0,0,18,0,18,0,,,,,,,,,,,,,,,,,222.67854770005215,None,223.3290859000408,223.92882110003848,223.91213870001957,225.9133158000186,None,1,0.60863445000723,2.6098768500378355,decreament,0.6,11,standard,None,100,,,,,,,,m,23,201,en,r,0,raw,2022-05-03_11h14.46.709,oddball,2022.1.2,59.9631466486753,
5,,,,,0,0,0,1,0,0,0,0,19,0,19,0,,,,,,,,,,,,,,,,,225.9300311000552,None,226.6133374000201,227.21326300001238,227.19700370001374,229.19757260003826,None,1,0.6133999500307254,2.613982550043147,decreament,0.6,11,standard,None,100,,,,,,,,m,23,201,en,r,0,raw,2022-05-03_11h14.46.709,oddball,2022.1.2,59.9631466486753,
5,,,,,0,0,0,1,0,0,0,0,20,0,20,0,,,,,,,,,,,,,,,,,229.21437940001488,None,229.84788150002714,230.44802460004576,230.43153770000208,232.43232280004304,None,1,0.6135874500032514,2.6143898500013165,decreament,0.6,11,standard,None,100,,,,,,,,m,23,201,en,r,0,raw,2022-05-03_11h14.46.709,oddball,2022.1.2,59.9631466486753,
5,,,,,0,0,0,1,0,0,0,0,21,0,21,0,,,,,,,,,,,,,,,,,232.44880950002698,None,233.06561460002558,233.66588770004455,233.64936180005316,235.65019590000156,None,1,0.6139641500194557,2.614848450059071,decreament,0.6,11,standard,None,100,,,,,,,,m,23,201,en,r,0,raw,2022-05-03_11h14.46.709,oddball,2022.1.2,59.9631466486753,
5,,,,,0,0,0,1,0,0,0,0,22,0,22,0,,,,,,,,,,,,,,,,,235.6670816000551,None,236.2675732000498,236.5167981000268,236.48363640002208,238.4843401000253,j,1,0.24730074999388307,2.248024649976287,decreament,0.24,12,oddball,j,40,0.4961337999557145,,,,,,,m,23,201,en,r,0,raw,2022-05-03_11h14.46.709,oddball,2022.1.2,59.9631466486753,
5,,,,,0,0,0,1,0,0,0,0,23,0,23,0,,,,,,,,,,,,,,,,,238.5011462000548,None,239.13483390002511,239.73484440002358,239.71873200003756,241.7189963000128,None,1,0.6116760500590317,2.611849350039847,decreament,0.6,11,standard,None,100,,,,,,,,m,23,201,en,r,0,raw,2022-05-03_11h14.46.709,oddball,2022.1.2,59.9631466486753,
5,,,,,0,0,0,1,0,0,0,0,24,0,24,0,,,,,,,,,,,,,,,,,241.736147800053,None,242.31929150002543,242.91931660001865,242.9026933000423,244.90355370001635,None,1,0.6146175500471145,2.6154831500607543,decreament,0.6,11,standard,None,100,,,,,,,,m,23,201,en,r,0,raw,2022-05-03_11h14.46.709,oddball,2022.1.2,59.9631466486753,
5,,,,,0,0,0,1,0,0,0,0,25,0,25,0,,,,,,,,,,,,,,,,,244.9202409000136,None,245.48702760000015,246.0873835000093,246.07111710001482,248.07160630001454,None,1,0.6140966500388458,2.6145930500351824,decreament,0.6,11,standard,None,100,,,,,,,,m,23,201,en,r,0,raw,2022-05-03_11h14.46.709,oddball,2022.1.2,59.9631466486753,
5,,,,,0,0,0,1,0,0,0,0,26,0,26,0,,,,,,,,,,,,,,,,,248.0881170000066,None,248.75493220001226,249.35522590001347,249.3386210000026,251.33924810000462,None,1,0.6115836499957368,2.612213350017555,decreament,0.6,11,standard,None,100,,,,,,,,m,23,201,en,r,0,raw,2022-05-03_11h14.46.709,oddball,2022.1.2,59.9631466486753,
5,,,,,0,0,0,1,0,0,0,0,27,0,27,0,,,,,,,,,,,,,,,,,251.356111400004,None,251.98980860004667,252.35622670000885,252.32314250001218,254.32390590000432,j,1,0.3640629500732757,2.364862750051543,decreament,0.36,13,oddball,j,60,0.48857450002105907,,,,,,,m,23,201,en,r,0,raw,2022-05-03_11h14.46.709,oddball,2022.1.2,59.9631466486753,
5,,,,,0,0,0,1,0,0,0,0,28,0,28,0,,,,,,,,,,,,,,,,,254.3405933000031,None,255.10778340004617,255.70717629999854,255.69058630004292,257.69166900002165,None,1,0.612300850043539,2.6134316500392742,decreament,0.6,11,standard,None,100,,,,,,,,m,23,201,en,r,0,raw,2022-05-03_11h14.46.709,oddball,2022.1.2,59.9631466486753,
5,,,,,0,0,0,1,0,0,0,0,29,0,29,0,,,,,,,,,,,,,,,,,257.7083564000204,None,258.39213320001727,258.9920840000268,258.9757181000314,260.97639010002604,None,1,0.6134619499789551,2.6141884499811567,decreament,0.6,11,standard,None,100,,,,,,,,m,23,201,en,r,0,raw,2022-05-03_11h14.46.709,oddball,2022.1.2,59.9631466486753,
5,,,,,0,0,0,1,1,0,1,0,0,0,0,0,,,,,,,,,,,,,,,272.4461088000098,None,278.1994180000038,None,278.94995989999734,279.5502167000086,279.5333679000032,281.53427440003725,None,1,0.6132951499894261,2.6142500499845482,increament,0.6,15,standard,None,100,,260.99301660002675,None,,,,,m,23,201,en,r,0,raw,2022-05-03_11h14.46.709,oddball,2022.1.2,59.9631466486753,
5,,,,,0,0,0,1,1,0,1,0,1,0,1,0,,,,,,,,,,,,,,,,,281.5508912000223,None,282.21772380004404,282.8185625000042,282.8017973000533,284.8018019000301,None,1,0.6140910499962047,2.6141315500135534,increament,0.6,15,standard,None,100,,,,,,,,m,23,201,en,r,0,raw,2022-05-03_11h14.46.709,oddball,2022.1.2,59.9631466486753,
5,,,,,0,0,0,1,1,0,1,0,2,0,2,0,,,,,,,,,,,,,,,,,284.81895790004637,None,285.4193848000141,286.019551400037,286.00270490004914,288.0033119000145,None,1,0.611016649985686,2.6116239500115626,increament,0.6,15,standard,None,100,,,,,,,,m,23,201,en,r,0,raw,2022-05-03_11h14.46.709,oddball,2022.1.2,59.9631466486753,
5,,,,,0,0,0,1,1,0,1,0,3,0,3,0,,,,,,,,,,,,,,,,,288.01999010000145,None,288.65376020001713,289.25356950005516,289.237447600055,291.23779810004635,None,1,0.6138227499905042,2.61415964999469,increament,0.6,15,standard,None,100,,,,,,,,m,23,201,en,r,0,raw,2022-05-03_11h14.46.709,oddball,2022.1.2,59.9631466486753,
5,,,,,0,0,0,1,1,0,1,0,4,0,4,0,,,,,,,,,,,,,,,,,291.25471230002586,None,291.77128790004645,292.3713372000493,292.3547762000235,294.3552092000027,None,1,0.6142180499737151,2.6146315499790944,increament,0.6,15,standard,None,100,,,,,,,,m,23,201,en,r,0,raw,2022-05-03_11h14.46.709,oddball,2022.1.2,59.9631466486753,
5,,,,,0,0,0,1,1,0,1,0,5,0,5,0,,,,,,,,,,,,,,,,,294.37204690004,None,295.0227245000424,295.62260670005344,295.6061970000155,297.6072310000309,None,1,0.6116330500226468,2.6127756499918178,increament,0.6,15,standard,None,100,,,,,,,,m,23,201,en,r,0,raw,2022-05-03_11h14.46.709,oddball,2022.1.2,59.9631466486753,
5,,,,,0,0,0,1,1,0,1,0,6,0,6,0,,,,,,,,,,,,,,,,,297.6234389000456,None,298.19042350002564,298.7907675000024,298.7740008000401,300.77449920005165,None,1,0.6136563500040211,2.6141209499910474,increament,0.6,15,standard,None,100,,,,,,,,m,23,201,en,r,0,raw,2022-05-03_11h14.46.709,oddball,2022.1.2,59.9631466486753,
5,,,,,0,0,0,1,1,0,1,0,7,0,7,0,,,,,,,,,,,,,,,,,300.7917250000173,None,301.39152290002676,301.99187670001993,301.9751387000433,303.9756353000412,None,1,0.6146299500251189,2.615025050006807,increament,0.6,15,standard,None,100,,,,,,,,m,23,201,en,r,0,raw,2022-05-03_11h14.46.709,oddball,2022.1.2,59.9631466486753,
5,,,,,0,0,0,1,1,0,1,0,8,0,8,0,,,,,,,,,,,,,,,,,303.992429200036,None,304.54261240002234,305.14351900003385,305.12707640003646,307.12711440003477,None,1,0.615230750059709,2.6149767500464804,increament,0.6,15,standard,None,100,,,,,,,,m,23,201,en,r,0,raw,2022-05-03_11h14.46.709,oddball,2022.1.2,59.9631466486753,
5,,,,,0,0,0,1,1,0,1,0,9,0,9,0,,,,,,,,,,,,,,,,,307.14374740002677,None,307.9276588000357,308.5277393000433,308.5114750000066,310.51173780002864,None,1,0.6134485499933362,2.613672650011722,increament,0.6,15,standard,None,100,,,,,,,,m,23,201,en,r,0,raw,2022-05-03_11h14.46.709,oddball,2022.1.2,59.9631466486753,
5,,,,,0,0,0,1,1,0,1,0,10,0,10,0,,,,,,,,,,,,,,,,,310.52853640000103,None,311.1955650000018,311.79560530005256,311.7791042000172,313.78018570004497,None,1,0.6133649499970488,2.6144347499939613,increament,0.6,15,standard,None,100,,,,,,,,m,23,201,en,r,0,raw,2022-05-03_11h14.46.709,oddball,2022.1.2,59.9631466486753,
5,,,,,0,0,0,1,1,0,1,0,11,0,11,0,,,,,,,,,,,,,,,,,313.7975202000234,None,314.5129185000551,315.11375070002396,315.097395400051,317.09765170002356,None,1,0.6155766500160098,2.6157421500538476,increament,0.6,15,standard,None,100,,,,,,,,m,23,201,en,r,0,raw,2022-05-03_11h14.46.709,oddball,2022.1.2,59.9631466486753,
5,,,,,0,0,0,1,1,0,1,0,12,0,12,0,,,,,,,,,,,,,,,,,317.11425030004466,None,317.8310535000055,318.4313992000534,318.4148258000496,320.41595210001105,None,1,0.6150040499633178,2.61624604993267,increament,0.6,15,standard,None,100,,,,,,,,m,23,201,en,r,0,raw,2022-05-03_11h14.46.709,oddball,2022.1.2,59.9631466486753,
5,,,,,0,0,0,1,1,0,1,0,13,0,13,0,,,,,,,,,,,,,,,,,320.4348427000223,None,320.9989682000014,321.5996125000529,321.58271730004344,323.5833422000287,None,1,0.6143355500535108,2.6149375500390306,increament,0.6,15,standard,None,100,,,,,,,,m,23,201,en,r,0,raw,2022-05-03_11h14.46.709,oddball,2022.1.2,59.9631466486753,
5,,,,,0,0,0,1,1,0,1,0,14,0,14,0,,,,,,,,,,,,,,,,,323.60013960005017,None,324.2007106000092,324.80038860003697,324.7838598000235,326.7846818000544,None,1,0.6110342500032857,2.611918950045947,increament,0.6,15,standard,None,100,,,,,,,,m,23,201,en,r,0,raw,2022-05-03_11h14.46.709,oddball,2022.1.2,59.9631466486753,
5,,,,,0,0,0,1,1,0,1,0,15,0,15,0,,,,,,,,,,,,,,,,,326.80143670004327,None,327.31801100005396,328.16842530004214,328.13513010001043,330.1358314000536,j,1,0.8477161499904469,2.848453550017439,increament,0.84,17,oddball,j,140,0.41179429995827377,,,,,,,m,23,201,en,r,0,raw,2022-05-03_11h14.46.709,oddball,2022.1.2,59.9631466486753,
5,,,,,0,0,0,1,1,0,1,0,16,0,16,0,,,,,,,,,,,,,,,,,330.1526149000274,None,330.80330350005534,331.4029155000462,331.3861949000275,333.38690540002426,None,1,0.6106353499926627,2.611336950038094,increament,0.6,15,standard,None,100,,,,,,,,m,23,201,en,r,0,raw,2022-05-03_11h14.46.709,oddball,2022.1.2,59.9631466486753,
5,,,,,0,0,0,1,1,0,1,0,17,0,17,0,,,,,,,,,,,,,,,,,333.40368640003726,None,334.07066040002974,334.67112770001404,334.65428590000374,None,None,1,0.599465949984733,2.5996095499722287,increament,0.6,15,standard,None,100,,,,,,,,m,23,201,en,r,0,raw,2022-05-03_11h14.46.709,oddball,2022.1.2,59.9631466486753,
5,,,,,0,0,0,1,1,0,1,0,18,0,18,0,,,,,,,,,,,,,,,,,336.6555220000446,None,337.3385414000368,337.93904399999883,337.9222003000323,339.92342520004604,None,1,0.6119019500329159,2.613178150029853,increament,0.6,15,standard,None,100,,,,,,,,m,23,201,en,r,0,raw,2022-05-03_11h14.46.709,oddball,2022.1.2,59.9631466486753,
5,,,,,0,0,0,1,1,0,1,0,19,0,19,0,,,,,,,,,,,,,,,,,339.94219339999836,None,340.5898050000542,341.18990500003565,341.17330590001075,343.17416799999774,None,1,0.6149156499304809,2.615772249933798,increament,0.6,15,standard,None,100,,,,,,,,m,23,201,en,r,0,raw,2022-05-03_11h14.46.709,oddball,2022.1.2,59.9631466486753,
5,,,,,0,0,0,1,1,0,1,0,20,0,20,0,,,,,,,,,,,,,,,,,343.19093390001217,None,343.9079366000369,344.64137620001566,344.6079080000054,346.60896020004293,None,0,0.7301403500023298,2.731197350018192,increament,0.72,16,oddball,j,120,,,,,,,,m,23,201,en,r,0,raw,2022-05-03_11h14.46.709,oddball,2022.1.2,59.9631466486753,
5,,,,,0,0,0,1,1,0,1,0,21,0,21,0,,,,,,,,,,,,,,,,,346.62637970002834,None,347.39278030005516,347.992464400013,347.97617790004006,349.9770148000098,None,1,0.6110366500215605,2.611944050062448,increament,0.6,15,standard,None,100,,,,,,,,m,23,201,en,r,0,raw,2022-05-03_11h14.46.709,oddball,2022.1.2,59.9631466486753,
5,,,,,0,0,0,1,1,0,1,0,22,0,22,0,,,,,,,,,,,,,,,,,349.99376740003936,None,350.5268405000097,351.12708370003384,351.11075570003595,353.11145450000186,None,1,0.6139890500344336,2.6146668500150554,increament,0.6,15,standard,None,100,,,,,,,,m,23,201,en,r,0,raw,2022-05-03_11h14.46.709,oddball,2022.1.2,59.9631466486753,
5,,,,,0,0,0,1,1,0,1,0,23,0,23,0,,,,,,,,,,,,,,,,,353.1280649000546,None,353.7779953000136,354.3785331000108,354.3624003000441,356.36243670003023,None,1,0.6154466500156559,2.6153755499981344,increament,0.6,15,standard,None,100,,,,,,,,m,23,201,en,r,0,raw,2022-05-03_11h14.46.709,oddball,2022.1.2,59.9631466486753,
5,,,,,0,0,0,1,1,0,1,0,24,0,24,0,,,,,,,,,,,,,,,,,356.37889420002466,None,357.04601770004956,357.6463450000156,357.6296309000463,359.63075140002184,None,1,0.6133671500138007,2.61456715001259,increament,0.6,15,standard,None,100,,,,,,,,m,23,201,en,r,0,raw,2022-05-03_11h14.46.709,oddball,2022.1.2,59.9631466486753,
5,,,,,0,0,0,1,1,0,1,0,25,0,25,0,,,,,,,,,,,,,,,,,359.6470929000061,None,360.3475126000121,360.9477049999987,360.93086690001655,362.9315951000317,None,1,0.6133563500479795,2.6140811500372365,increament,0.6,15,standard,None,100,,,,,,,,m,23,201,en,r,0,raw,2022-05-03_11h14.46.709,oddball,2022.1.2,59.9631466486753,
5,,,,,0,0,0,1,1,0,1,0,26,0,26,0,,,,,,,,,,,,,,,,,362.94846210000105,None,363.5824445000035,364.5490819000406,364.5155181000009,366.5162728000432,j,1,0.9625176500412636,2.9632677500485443,increament,0.96,18,oddball,j,160,0.40735990001121536,,,,,,,m,23,201,en,r,0,raw,2022-05-03_11h14.46.709,oddball,2022.1.2,59.9631466486753,
5,,,,,0,0,0,1,1,0,1,0,27,0,27,0,,,,,,,,,,,,,,,,,366.5327794000041,None,367.11696360004134,367.71685810002964,367.70001420000335,369.7008238999988,None,1,0.6108229500241578,2.611705349991098,increament,0.6,15,standard,None,100,,,,,,,,m,23,201,en,r,0,raw,2022-05-03_11h14.46.709,oddball,2022.1.2,59.9631466486753,
5,,,,,0,0,0,1,1,0,1,0,28,0,28,0,,,,,,,,,,,,,,,,,369.717742000008,None,370.36736130004283,370.96813900000416,370.95149020000827,None,None,1,0.5991338500170968,2.6006235500099137,increament,0.6,15,standard,None,100,,,,,,,,m,23,201,en,r,0,raw,2022-05-03_11h14.46.709,oddball,2022.1.2,59.9631466486753,
5,,,,,0,0,0,1,1,0,1,0,29,0,29,0,,,,,,,,,,,,,,,,,372.95273080002517,None,373.58571390004363,374.1863575000316,374.1694257000345,376.1701760000433,None,1,0.6136247500544414,2.6143636500346474,increament,0.6,15,standard,None,100,,,,,,,,m,23,201,en,r,0,raw,2022-05-03_11h14.46.709,oddball,2022.1.2,59.9631466486753,
5,,,,,0,0,0,1,2,0,2,0,0,0,0,0,,,,,,,,,,,,,,,383.2259146000142,None,386.17371699999785,None,386.8246751000406,387.4241371000535,387.4073962000548,389.408133000019,None,1,0.6100064500351436,2.6107268500491045,decreament,0.6,11,standard,None,100,,376.1870134000201,None,,,,,m,23,201,en,r,0,raw,2022-05-03_11h14.46.709,oddball,2022.1.2,59.9631466486753,
5,,,,,0,0,0,1,2,0,2,0,1,0,1,0,,,,,,,,,,,,,,,,,389.4247609000304,None,390.17521990003297,390.7756872000173,390.7588691000128,392.75951320002787,None,1,0.6144216500106268,2.6149079500464723,decreament,0.6,11,standard,None,100,,,,,,,,m,23,201,en,r,0,raw,2022-05-03_11h14.46.709,oddball,2022.1.2,59.9631466486753,
5,,,,,0,0,0,1,2,0,2,0,2,0,2,0,,,,,,,,,,,,,,,,,392.7764439000166,None,393.32641010003863,393.9267921000137,393.910101400048,395.91054030001396,None,1,0.6133728500572033,2.613763250061311,decreament,0.6,11,standard,None,100,,,,,,,,m,23,201,en,r,0,raw,2022-05-03_11h14.46.709,oddball,2022.1.2,59.9631466486753,
5,,,,,0,0,0,1,2,0,2,0,3,0,3,0,,,,,,,,,,,,,,,,,395.927238400036,None,396.6277785000275,397.2280236000079,397.21179010003107,399.2119776000036,None,1,0.6136146500357427,2.6137327500036918,decreament,0.6,11,standard,None,100,,,,,,,,m,23,201,en,r,0,raw,2022-05-03_11h14.46.709,oddball,2022.1.2,59.9631466486753,
5,,,,,0,0,0,1,2,0,2,0,4,0,4,0,,,,,,,,,,,,,,,,,399.2288639000035,None,399.7622217000462,400.36236700002337,400.3460896000033,402.34655600000406,None,1,0.613438650034368,2.613901150005404,decreament,0.6,11,standard,None,100,,,,,,,,m,23,201,en,r,0,raw,2022-05-03_11h14.46.709,oddball,2022.1.2,59.9631466486753,
5,,,,,0,0,0,1,2,0,2,0,5,0,5,0,,,,,,,,,,,,,,,,,402.36324230005266,None,403.1471954000299,403.74728790001245,403.730855300033,405.7311277000117,None,1,0.6124577500158921,2.6126621500006877,decreament,0.6,11,standard,None,100,,,,,,,,m,23,201,en,r,0,raw,2022-05-03_11h14.46.709,oddball,2022.1.2,59.9631466486753,
5,,,,,0,0,0,1,2,0,2,0,6,0,6,0,,,,,,,,,,,,,,,,,405.7479568000417,None,406.3982401000103,406.998421300028,406.9820711000357,408.9822786000441,None,1,0.6121942500467412,2.6123236500425264,decreament,0.6,11,standard,None,100,,,,,,,,m,23,201,en,r,0,raw,2022-05-03_11h14.46.709,oddball,2022.1.2,59.9631466486753,
5,,,,,0,0,0,1,2,0,2,0,7,0,7,0,,,,,,,,,,,,,,,,,408.99886170000536,None,409.6659059000085,410.2663921000203,410.2499935000087,412.25061590003315,None,1,0.6102067501051351,2.6107969500590116,decreament,0.6,11,standard,None,100,,,,,,,,m,23,201,en,r,0,raw,2022-05-03_11h14.46.709,oddball,2022.1.2,59.9631466486753,
5,,,,,0,0,0,1,2,0,2,0,8,0,8,0,,,,,,,,,,,,,,,,,412.2671223000507,None,412.88370910001686,413.4841266000294,413.4676168000442,415.46809120004764,None,1,0.6142822499969043,2.6147662500152364,decreament,0.6,11,standard,None,100,,,,,,,,m,23,201,en,r,0,raw,2022-05-03_11h14.46.709,oddball,2022.1.2,59.9631466486753,
5,,,,,0,0,0,1,2,0,2,0,9,0,9,0,,,,,,,,,,,,,,,,,415.4848254000535,None,416.23538080003345,416.8352167000412,416.8188057000516,418.8195813000202,None,1,0.6112115500145592,2.612053350021597,decreament,0.6,11,standard,None,100,,,,,,,,m,23,201,en,r,0,raw,2022-05-03_11h14.46.709,oddball,2022.1.2,59.9631466486753,
5,,,,,0,0,0,1,2,0,2,0,10,0,10,0,,,,,,,,,,,,,,,,,418.83625720004784,None,419.5036564000184,420.10290750005515,420.08649930002866,422.0872689000098,None,1,0.6127503500902094,2.613487850059755,decreament,0.6,11,standard,None,100,,,,,,,,m,23,201,en,r,0,raw,2022-05-03_11h14.46.709,oddball,2022.1.2,59.9631466486753,
5,,,,,0,0,0,1,2,0,2,0,11,0,11,0,,,,,,,,,,,,,,,,,422.10413520003203,None,422.6707785000326,423.27103720000014,423.2544442000217,425.2550408000243,None,1,0.6137851499952376,2.614392549963668,decreament,0.6,11,standard,None,100,,,,,,,,m,23,201,en,r,0,raw,2022-05-03_11h14.46.709,oddball,2022.1.2,59.9631466486753,
5,,,,,0,0,0,1,2,0,2,0,12,0,12,0,,,,,,,,,,,,,,,,,425.2719175000093,None,425.938933300029,426.4221347999992,426.3890046000015,428.38950380001916,j,1,0.4800858500530012,2.4804845500621013,decreament,0.48,14,oddball,j,80,0.549258999992162,,,,,,,m,23,201,en,r,0,raw,2022-05-03_11h14.46.709,oddball,2022.1.2,59.9631466486753,
5,,,,,0,0,0,1,2,0,2,0,13,0,13,0,,,,,,,,,,,,,,,,,428.40631690004375,None,429.0234719000291,429.6235843000468,429.60692910000216,431.60765620000893,None,1,0.6135981500265189,2.614353850018233,decreament,0.6,11,standard,None,100,,,,,,,,m,23,201,en,r,0,raw,2022-05-03_11h14.46.709,oddball,2022.1.2,59.9631466486753,
5,,,,,0,0,0,1,2,0,2,0,14,0,14,0,,,,,,,,,,,,,,,,,431.6243480000412,None,432.29109830001835,432.89122300001327,432.874971000012,434.87524230004055,None,1,0.6143739499966614,2.6146073499694467,decreament,0.6,11,standard,None,100,,,,,,,,m,23,201,en,r,0,raw,2022-05-03_11h14.46.709,oddball,2022.1.2,59.9631466486753,
5,,,,,0,0,0,1,2,0,2,0,15,0,15,0,,,,,,,,,,,,,,,,,434.89203360001557,None,435.575701200054,436.1763934000046,436.1596538000158,438.16013130004285,None,1,0.6141225500032306,2.6145738500053994,decreament,0.6,11,standard,None,100,,,,,,,,m,23,201,en,r,0,raw,2022-05-03_11h14.46.709,oddball,2022.1.2,59.9631466486753,
5,,,,,0,0,0,1,2,0,2,0,16,0,16,0,,,,,,,,,,,,,,,,,438.17690320004476,None,438.9603826000239,439.2104910000344,439.1771517000161,441.1779209000524,j,1,0.24732265004422516,2.248073850059882,decreament,0.24,12,oddball,j,40,0.634594900009688,,,,,,,m,23,201,en,r,0,raw,2022-05-03_11h14.46.709,oddball,2022.1.2,59.9631466486753,
5,,,,,0,0,0,1,2,0,2,0,17,0,17,0,,,,,,,,,,,,,,,,,441.19446940004127,None,441.9614122000057,442.56153220002307,442.5451195000205,444.54587750002975,None,1,0.6102296500466764,2.6109712500474416,decreament,0.6,11,standard,None,100,,,,,,,,m,23,201,en,r,0,raw,2022-05-03_11h14.46.709,oddball,2022.1.2,59.9631466486753,
5,,,,,0,0,0,1,2,0,2,0,18,0,18,0,,,,,,,,,,,,,,,,,444.5625145000522,None,445.346562300052,445.94630670000333,445.92960900004255,447.9306195000536,None,1,0.612220150011126,2.6133119500009343,decreament,0.6,11,standard,None,100,,,,,,,,m,23,201,en,r,0,raw,2022-05-03_11h14.46.709,oddball,2022.1.2,59.9631466486753,
5,,,,,0,0,0,1,2,0,2,0,19,0,19,0,,,,,,,,,,,,,,,,,447.9481645000051,None,448.61399990000064,449.2143498000223,449.197666400054,451.1984263000195,None,1,0.6138591500348412,2.6145390500314534,decreament,0.6,11,standard,None,100,,,,,,,,m,23,201,en,r,0,raw,2022-05-03_11h14.46.709,oddball,2022.1.2,59.9631466486753,
5,,,,,0,0,0,1,2,0,2,0,20,0,20,0,,,,,,,,,,,,,,,,,451.2151889000088,None,452.0152620000299,452.6157105000457,452.5990573000163,454.5996114000445,None,1,0.6142152500688098,2.614715950039681,decreament,0.6,11,standard,None,100,,,,,,,,m,23,201,en,r,0,raw,2022-05-03_11h14.46.709,oddball,2022.1.2,59.9631466486753,
5,,,,,0,0,0,1,2,0,2,0,21,0,21,0,,,,,,,,,,,,,,,,,454.61646260001,None,455.149860000005,455.75045880000107,455.73367430001963,457.73408120003296,None,1,0.6132640500436537,2.613611050066538,decreament,0.6,11,standard,None,100,,,,,,,,m,23,201,en,r,0,raw,2022-05-03_11h14.46.709,oddball,2022.1.2,59.9631466486753,
5,,,,,0,0,0,1,2,0,2,0,22,0,22,0,,,,,,,,,,,,,,,,,457.75081100000534,None,458.53438770002685,459.1345399999991,459.1183463000343,461.1186887000222,None,1,0.6146226500277407,2.614980350015685,decreament,0.6,11,standard,None,100,,,,,,,,m,23,201,en,r,0,raw,2022-05-03_11h14.46.709,oddball,2022.1.2,59.9631466486753,
5,,,,,0,0,0,1,2,0,2,0,23,0,23,0,,,,,,,,,,,,,,,,,461.13580530002946,None,461.8690887000412,462.46919230005005,462.4531027000048,464.45334040001035,None,1,0.6124404500587843,2.612568350043148,decreament,0.6,11,standard,None,100,,,,,,,,m,23,201,en,r,0,raw,2022-05-03_11h14.46.709,oddball,2022.1.2,59.9631466486753,
5,,,,,0,0,0,1,2,0,2,0,24,0,24,0,,,,,,,,,,,,,,,,,464.4700988000259,None,465.0871468000114,465.68745980004314,465.670708700025,467.67152090003947,None,1,0.6139062499860302,2.6147274500108324,decreament,0.6,11,standard,None,100,,,,,,,,m,23,201,en,r,0,raw,2022-05-03_11h14.46.709,oddball,2022.1.2,59.9631466486753,
5,,,,,0,0,0,1,2,0,2,0,25,0,25,0,,,,,,,,,,,,,,,,,467.6880710000405,None,468.3713408000185,468.9716294000391,468.95523890003096,470.9558417000226,None,1,0.6143898500595242,2.6149765500449575,decreament,0.6,11,standard,None,100,,,,,,,,m,23,201,en,r,0,raw,2022-05-03_11h14.46.709,oddball,2022.1.2,59.9631466486753,
5,,,,,0,0,0,1,2,0,2,0,26,0,26,0,,,,,,,,,,,,,,,,,470.9727038000128,None,471.5060689000529,471.8729731000494,471.8395113000297,473.8405198000255,j,1,0.36365504999412224,2.3647308500367217,decreament,0.36,13,oddball,j,60,0.5625030999653973,,,,,,,m,23,201,en,r,0,raw,2022-05-03_11h14.46.709,oddball,2022.1.2,59.9631466486753,
5,,,,,0,0,0,1,2,0,2,0,27,0,27,0,,,,,,,,,,,,,,,,,473.85700570000336,None,474.3904310000362,474.99075350002386,474.9745282000513,476.97523380001076,None,1,0.6148927499889396,2.6156519500073045,decreament,0.6,11,standard,None,100,,,,,,,,m,23,201,en,r,0,raw,2022-05-03_11h14.46.709,oddball,2022.1.2,59.9631466486753,
5,,,,,0,0,0,1,2,0,2,0,28,0,28,0,,,,,,,,,,,,,,,,,476.9916991000064,None,477.6249511000351,478.2254955000244,478.2087153000175,480.2105621000519,None,1,0.6140245499555022,2.6157907499582507,decreament,0.6,11,standard,None,100,,,,,,,,m,23,201,en,r,0,raw,2022-05-03_11h14.46.709,oddball,2022.1.2,59.9631466486753,
5,,,,,0,0,0,1,2,0,2,0,29,0,29,0,,,,,,,,,,,,,,,,,480.22581700002775,None,480.9432295000297,481.5434865000425,481.5267699000542,483.5275344000547,None,1,0.6111716500599869,2.6119690500199795,decreament,0.6,11,standard,None,100,,,,,,,,m,23,201,en,r,0,raw,2022-05-03_11h14.46.709,oddball,2022.1.2,59.9631466486753,
5,,,,,0,0,0,1,3,0,3,0,0,0,0,0,,,,,,,,,,,,,,,497.23366030002944,None,500.3504310999997,None,501.11747090000426,501.7175404000445,501.7011967000435,503.7016951000551,None,1,0.6129556500236504,2.6134230499737896,increament,0.6,15,standard,None,100,,483.5441294000484,None,,,,,m,23,201,en,r,0,raw,2022-05-03_11h14.46.709,oddball,2022.1.2,59.9631466486753,
5,,,,,0,0,0,1,3,0,3,0,1,0,1,0,,,,,,,,,,,,,,,,,503.7186217000126,None,504.38518590002786,504.98549960000673,504.96889320004266,506.96989629999734,None,1,0.613838349992875,2.6148987500346266,increament,0.6,15,standard,None,100,,,,,,,,m,23,201,en,r,0,raw,2022-05-03_11h14.46.709,oddball,2022.1.2,59.9631466486753,
5,,,,,0,0,0,1,3,0,3,0,2,0,2,0,,,,,,,,,,,,,,,,,506.98610239999834,None,507.6864116000361,508.2868041000329,508.2704153000377,510.27088530000765,None,1,0.6143884499906562,2.614817449997645,increament,0.6,15,standard,None,100,,,,,,,,m,23,201,en,r,0,raw,2022-05-03_11h14.46.709,oddball,2022.1.2,59.9631466486753,
5,,,,,0,0,0,1,3,0,3,0,3,0,3,0,,,,,,,,,,,,,,,,,510.28745910001453,None,510.9877682000515,511.58782920002704,511.5714432000532,513.5719724000082,None,1,0.6107889499980956,2.6112997499876656,increament,0.6,15,standard,None,100,,,,,,,,m,23,201,en,r,0,raw,2022-05-03_11h14.46.709,oddball,2022.1.2,59.9631466486753,
5,,,,,0,0,0,1,3,0,3,0,4,0,4,0,,,,,,,,,,,,,,,,,513.5889007000369,None,514.3558646000456,514.9557195000234,514.9391094000312,516.9401721000322,None,1,0.6127947500208393,2.6139068500488065,increament,0.6,15,standard,None,100,,,,,,,,m,23,201,en,r,0,raw,2022-05-03_11h14.46.709,oddball,2022.1.2,59.9631466486753,
5,,,,,0,0,0,1,3,0,3,0,5,0,5,0,,,,,,,,,,,,,,,,,516.9565569999977,None,517.6068070000038,518.2070394000039,518.1903230000171,520.1909548000549,None,1,0.6130057499976829,2.6136212500277907,increament,0.6,15,standard,None,100,,,,,,,,m,23,201,en,r,0,raw,2022-05-03_11h14.46.709,oddball,2022.1.2,59.9631466486753,
5,,,,,0,0,0,1,3,0,3,0,6,0,6,0,,,,,,,,,,,,,,,,,520.2078982000239,None,520.9746648000437,521.5749308000086,521.558376400033,523.559234400047,None,1,0.6138442500378005,2.6147414500592276,increament,0.6,15,standard,None,100,,,,,,,,m,23,201,en,r,0,raw,2022-05-03_11h14.46.709,oddball,2022.1.2,59.9631466486753,
5,,,,,0,0,0,1,3,0,3,0,7,0,7,0,,,,,,,,,,,,,,,,,523.575806900044,None,524.2758837000001,524.8763633000199,524.8596013000351,526.8602304000524,None,1,0.6107050499995239,2.6112753500347026,increament,0.6,15,standard,None,100,,,,,,,,m,23,201,en,r,0,raw,2022-05-03_11h14.46.709,oddball,2022.1.2,59.9631466486753,
5,,,,,0,0,0,1,3,0,3,0,8,0,8,0,,,,,,,,,,,,,,,,,526.8769568999996,None,527.4608587000403,528.0608658000128,528.0439765000483,530.0449705000501,None,1,0.6131511500570923,2.6141801500343718,increament,0.6,15,standard,None,100,,,,,,,,m,23,201,en,r,0,raw,2022-05-03_11h14.46.709,oddball,2022.1.2,59.9631466486753,
5,,,,,0,0,0,1,3,0,3,0,9,0,9,0,,,,,,,,,,,,,,,,,530.0618146000197,None,530.745057800028,531.345539300004,531.3287845000159,533.3296337000211,None,1,0.6139013500069268,2.6147099500522017,increament,0.6,15,standard,None,100,,,,,,,,m,23,201,en,r,0,raw,2022-05-03_11h14.46.709,oddball,2022.1.2,59.9631466486753,
5,,,,,0,0,0,1,3,0,3,0,10,0,10,0,,,,,,,,,,,,,,,,,533.3462615000317,None,533.9461988999974,534.6799634000054,534.6467549000517,536.6477811000077,None,0,0.7310149500262924,2.732077550026588,increament,0.72,16,oddball,j,120,,,,,,,,m,23,201,en,r,0,raw,2022-05-03_11h14.46.709,oddball,2022.1.2,59.9631466486753,
5,,,,,0,0,0,1,3,0,3,0,11,0,11,0,,,,,,,,,,,,,,,,,536.6650514000212,None,537.2642372000264,537.8649669000297,537.8484623000259,539.848907000036,None,1,0.6116354500409216,2.6120783500373363,increament,0.6,15,standard,None,100,,,,,,,,m,23,201,en,r,0,raw,2022-05-03_11h14.46.709,oddball,2022.1.2,59.9631466486753,
5,,,,,0,0,0,1,3,0,3,0,12,0,12,0,,,,,,,,,,,,,,,,,539.8664552000118,None,540.5325729000033,541.1326274000457,541.1159722000011,543.1166847000131,None,1,0.612484650046099,2.6131974500603974,increament,0.6,15,standard,None,100,,,,,,,,m,23,201,en,r,0,raw,2022-05-03_11h14.46.709,oddball,2022.1.2,59.9631466486753,
5,,,,,0,0,0,1,3,0,3,0,13,0,13,0,,,,,,,,,,,,,,,,,543.1331306000357,None,543.8335525000002,544.4339477000176,544.4170923000202,546.4177150000469,None,1,0.61231785005657,2.612898750056047,increament,0.6,15,standard,None,100,,,,,,,,m,23,201,en,r,0,raw,2022-05-03_11h14.46.709,oddball,2022.1.2,59.9631466486753,
5,,,,,0,0,0,1,3,0,3,0,14,0,14,0,,,,,,,,,,,,,,,,,546.434330100019,None,547.1014215000323,547.7013769000187,547.6851753000519,549.6858400000492,None,1,0.6137024500640109,2.614389150054194,increament,0.6,15,standard,None,100,,,,,,,,m,23,201,en,r,0,raw,2022-05-03_11h14.46.709,oddball,2022.1.2,59.9631466486753,
5,,,,,0,0,0,1,3,0,3,0,15,0,15,0,,,,,,,,,,,,,,,,,549.7023873000289,None,550.4525475000264,551.0527433000389,551.0360698000295,553.0368080000044,None,1,0.6140056500444189,2.614736650022678,increament,0.6,15,standard,None,100,,,,,,,,m,23,201,en,r,0,raw,2022-05-03_11h14.46.709,oddball,2022.1.2,59.9631466486753,
5,,,,,0,0,0,1,3,0,3,0,16,0,16,0,,,,,,,,,,,,,,,,,553.0537984000403,None,553.637392500008,554.4874644000083,554.4543397000525,556.4546411000192,None,0,0.8449973499518819,2.8452299499767832,increament,0.84,17,oddball,j,140,,,,,,,,m,23,201,en,r,0,raw,2022-05-03_11h14.46.709,oddball,2022.1.2,59.9631466486753,
5,,,,,0,0,0,1,3,0,3,0,17,0,17,0,,,,,,,,,,,,,,,,,556.471424300049,None,557.1884524000343,557.7887167000445,557.7724310000194,559.7730973000289,None,1,0.6151915500522591,2.615815850032959,increament,0.6,15,standard,None,100,,,,,,,,m,23,201,en,r,0,raw,2022-05-03_11h14.46.709,oddball,2022.1.2,59.9631466486753,
5,,,,,0,0,0,1,3,0,3,0,18,0,18,0,,,,,,,,,,,,,,,,,559.7895449000061,None,560.4731268000323,561.0734957000241,561.0569728999981,563.0576149000553,None,1,0.6127906499896199,2.613432849990204,increament,0.6,15,standard,None,100,,,,,,,,m,23,201,en,r,0,raw,2022-05-03_11h14.46.709,oddball,2022.1.2,59.9631466486753,
5,,,,,0,0,0,1,3,0,3,0,19,0,19,0,,,,,,,,,,,,,,,,,563.074107900029,None,563.6076269000187,564.2076371000148,564.1908977000276,566.1921810000204,None,1,0.6124696499900892,2.613868749991525,increament,0.6,15,standard,None,100,,,,,,,,m,23,201,en,r,0,raw,2022-05-03_11h14.46.709,oddball,2022.1.2,59.9631466486753,
5,,,,,0,0,0,1,3,0,3,0,20,0,20,0,,,,,,,,,,,,,,,,,566.2086125000496,None,566.9756846000091,567.9427240000223,567.9094790000236,569.9104478000081,j,1,0.9632651500287466,2.964238250046037,increament,0.96,18,oddball,j,160,0.5719099000561982,,,,,,,m,23,201,en,r,0,raw,2022-05-03_11h14.46.709,oddball,2022.1.2,59.9631466486753,
5,,,,,0,0,0,1,3,0,3,0,21,0,21,0,,,,,,,,,,,,,,,,,569.9269050000003,None,570.4599292000057,571.0603379000095,571.0437356000184,573.0446921000257,None,1,0.6150989499874413,2.616090850031469,increament,0.6,15,standard,None,100,,,,,,,,m,23,201,en,r,0,raw,2022-05-03_11h14.46.709,oddball,2022.1.2,59.9631466486753,
5,,,,,0,0,0,1,3,0,3,0,22,0,22,0,,,,,,,,,,,,,,,,,573.0612182000186,None,573.7281772000133,574.3281988000381,574.3116115000448,576.3124456000514,None,1,0.6133742500678636,2.6142394500784576,increament,0.6,15,standard,None,100,,,,,,,,m,23,201,en,r,0,raw,2022-05-03_11h14.46.709,oddball,2022.1.2,59.9631466486753,
5,,,,,0,0,0,1,3,0,3,0,23,0,23,0,,,,,,,,,,,,,,,,,576.3290602000197,None,577.0460093000438,577.6467725000111,577.6298956000246,579.6305390000343,None,1,0.6120291500119492,2.612609850068111,increament,0.6,15,standard,None,100,,,,,,,,m,23,201,en,r,0,raw,2022-05-03_11h14.46.709,oddball,2022.1.2,59.9631466486753,
5,,,,,0,0,0,1,3,0,3,0,24,0,24,0,,,,,,,,,,,,,,,,,579.6470824000426,None,580.2974170000525,580.8974649000447,580.8808572000125,582.8815347000491,None,1,0.6142046500463039,2.614858450018801,increament,0.6,15,standard,None,100,,,,,,,,m,23,201,en,r,0,raw,2022-05-03_11h14.46.709,oddball,2022.1.2,59.9631466486753,
5,,,,,0,0,0,1,3,0,3,0,25,0,25,0,,,,,,,,,,,,,,,,,582.8982171000098,None,583.4489504000521,584.0487956000143,584.0320665000472,586.0329610000481,None,1,0.6120838500210084,2.612970150017645,increament,0.6,15,standard,None,100,,,,,,,,m,23,201,en,r,0,raw,2022-05-03_11h14.46.709,oddball,2022.1.2,59.9631466486753,
5,,,,,0,0,0,1,3,0,3,0,26,0,26,0,,,,,,,,,,,,,,,,,586.0494453000138,None,586.6498635000316,587.2500091000111,587.2333067000145,589.234101900016,None,1,0.6129608500050381,2.6136853500502184,increament,0.6,15,standard,None,100,,,,,,,,m,23,201,en,r,0,raw,2022-05-03_11h14.46.709,oddball,2022.1.2,59.9631466486753,
5,,,,,0,0,0,1,3,0,3,0,27,0,27,0,,,,,,,,,,,,,,,,,589.250689700013,None,589.9174851000425,590.5179103999981,590.5009889000212,592.502226600016,None,1,0.6146593500161543,2.616002850001678,increament,0.6,15,standard,None,100,,,,,,,,m,23,201,en,r,0,raw,2022-05-03_11h14.46.709,oddball,2022.1.2,59.9631466486753,
5,,,,,0,0,0,1,3,0,3,0,28,0,28,0,,,,,,,,,,,,,,,,,592.5185520000523,None,593.2527004000149,593.85202510003,593.8359414000297,595.8362405000371,None,1,0.6110875500016846,2.6113931500003673,increament,0.6,15,standard,None,100,,,,,,,,m,23,201,en,r,0,raw,2022-05-03_11h14.46.709,oddball,2022.1.2,59.9631466486753,
5,,,,,0,0,0,1,3,0,3,0,29,0,29,0,,,,,,,,,,,,,,,,,595.8533664999995,None,596.5204652000102,597.1204509000527,597.1035649999976,599.1044070000062,None,1,0.611122050031554,2.611992350022774,increament,0.6,15,standard,None,100,,,,,,,,m,23,201,en,r,0,raw,2022-05-03_11h14.46.709,oddball,2022.1.2,59.9631466486753,
5,,,,,0,0,0,1,4,0,4,0,0,0,0,0,,,,,,,,,,,,,,,619.2283342000446,None,630.7162865000428,None,631.333871400042,631.9332895000116,631.9167870000238,633.9175064000301,None,1,0.6120512500056066,2.612774349981919,decreament,0.6,11,standard,None,100,,599.1220021000481,None,,,,,m,23,201,en,r,0,raw,2022-05-03_11h14.46.709,oddball,2022.1.2,59.9631466486753,
5,,,,,0,0,0,1,4,0,4,0,1,0,1,0,,,,,,,,,,,,,,,,,633.9344502000022,None,634.5680531000253,635.1678614999983,635.1511310000205,637.1521563000279,None,1,0.6134197500068694,2.6144528500153683,decreament,0.6,11,standard,None,100,,,,,,,,m,23,201,en,r,0,raw,2022-05-03_11h14.46.709,oddball,2022.1.2,59.9631466486753,
5,,,,,0,0,0,1,4,0,4,0,2,0,2,0,,,,,,,,,,,,,,,,,637.168746600044,None,637.8356784000061,638.4358788000536,638.4189842000487,640.4200630999985,None,1,0.6104759500012733,2.6115959500311874,decreament,0.6,11,standard,None,100,,,,,,,,m,23,201,en,r,0,raw,2022-05-03_11h14.46.709,oddball,2022.1.2,59.9631466486753,
5,,,,,0,0,0,1,4,0,4,0,3,0,3,0,,,,,,,,,,,,,,,,,640.4366758000106,None,641.0202737000072,641.6203404000262,641.6044797000359,643.6045301000122,None,1,0.6144493499887176,2.6144403500366025,decreament,0.6,11,standard,None,100,,,,,,,,m,23,201,en,r,0,raw,2022-05-03_11h14.46.709,oddball,2022.1.2,59.9631466486753,
5,,,,,0,0,0,1,4,0,4,0,4,0,4,0,,,,,,,,,,,,,,,,,643.6213905000477,None,644.338320400042,644.9382924000383,644.9219493000419,646.922345900035,None,1,0.6137002499890514,2.6140989499981515,decreament,0.6,11,standard,None,100,,,,,,,,m,23,201,en,r,0,raw,2022-05-03_11h14.46.709,oddball,2022.1.2,59.9631466486753,
5,,,,,0,0,0,1,4,0,4,0,5,0,5,0,,,,,,,,,,,,,,,,,646.9392863000394,None,647.6893031000509,648.289854600036,648.2731553000049,650.2737693000236,None,1,0.6141993500641547,2.6147784500499256,decreament,0.6,11,standard,None,100,,,,,,,,m,23,201,en,r,0,raw,2022-05-03_11h14.46.709,oddball,2022.1.2,59.9631466486753,
5,,,,,0,0,0,1,4,0,4,0,6,0,6,0,,,,,,,,,,,,,,,,,650.2903647000203,None,650.8241978000151,651.4241837000009,651.4075324000441,653.4082683000015,j,0,0.6108267499948852,2.611606349993963,decreament,0.6,11,standard,None,100,0.6495686999987811,,,,,,,m,23,201,en,r,0,raw,2022-05-03_11h14.46.709,oddball,2022.1.2,59.9631466486753,
5,,,,,0,0,0,1,4,0,4,0,7,0,7,0,,,,,,,,,,,,,,,,,653.4247940000496,None,654.0918392000021,654.692401200009,654.6754078000085,656.6761727000121,None,1,0.6112147500389256,2.611949249985628,decreament,0.6,11,standard,None,100,,,,,,,,m,23,201,en,r,0,raw,2022-05-03_11h14.46.709,oddball,2022.1.2,59.9631466486753,
5,,,,,0,0,0,1,4,0,4,0,8,0,8,0,,,,,,,,,,,,,,,,,656.6930555000436,None,657.2433524000226,657.8435572000453,657.8269856000552,659.8272595000453,None,1,0.6140149499988183,2.614275150001049,decreament,0.6,11,standard,None,100,,,,,,,,m,23,201,en,r,0,raw,2022-05-03_11h14.46.709,oddball,2022.1.2,59.9631466486753,
5,,,,,0,0,0,1,4,0,4,0,9,0,9,0,,,,,,,,,,,,,,,,,659.844185599999,None,660.4276102000149,661.0278039000113,661.0110311000026,663.0120362000307,None,1,0.6132560499827377,2.61434415000258,decreament,0.6,11,standard,None,100,,,,,,,,m,23,201,en,r,0,raw,2022-05-03_11h14.46.709,oddball,2022.1.2,59.9631466486753,
5,,,,,0,0,0,1,4,0,4,0,10,0,10,0,,,,,,,,,,,,,,,,,663.0297512000543,None,663.729187400022,664.3293819000246,664.3127564000315,666.3133279000176,None,1,0.6140348499757238,2.614609849988483,decreament,0.6,11,standard,None,100,,,,,,,,m,23,201,en,r,0,raw,2022-05-03_11h14.46.709,oddball,2022.1.2,59.9631466486753,
5,,,,,0,0,0,1,4,0,4,0,11,0,11,0,,,,,,,,,,,,,,,,,666.3300380000146,None,666.9633233000059,667.5635073000449,667.5469479000312,669.5480293,None,1,0.6144108499865979,2.6155633500311524,decreament,0.6,11,standard,None,100,,,,,,,,m,23,201,en,r,0,raw,2022-05-03_11h14.46.709,oddball,2022.1.2,59.9631466486753,
5,,,,,0,0,0,1,4,0,4,0,12,0,12,0,,,,,,,,,,,,,,,,,669.5653515000013,None,670.2480347000528,670.8480149000534,670.8318998000468,672.8328314000391,None,1,0.61418815003708,2.615155650069937,decreament,0.6,11,standard,None,100,,,,,,,,m,23,201,en,r,0,raw,2022-05-03_11h14.46.709,oddball,2022.1.2,59.9631466486753,
5,,,,,0,0,0,1,4,0,4,0,13,0,13,0,,,,,,,,,,,,,,,,,672.8488747000229,None,673.5158336000168,674.1161229000427,674.0994535000063,676.1000376000302,None,1,0.6139405500143766,2.6145166500355117,decreament,0.6,11,standard,None,100,,,,,,,,m,23,201,en,r,0,raw,2022-05-03_11h14.46.709,oddball,2022.1.2,59.9631466486753,
5,,,,,0,0,0,1,4,0,4,0,14,0,14,0,,,,,,,,,,,,,,,,,676.1168803000473,None,676.7507169000455,677.3506636000238,677.3338851000299,679.3348145000055,j,0,0.6121462500304915,2.6131015500286594,decreament,0.6,11,standard,None,100,0.4513852999662049,,,,,,,m,23,201,en,r,0,raw,2022-05-03_11h14.46.709,oddball,2022.1.2,59.9631466486753,
5,,,,,0,0,0,1,4,0,4,0,15,0,15,0,,,,,,,,,,,,,,,,,679.3514798000106,None,680.0683726000134,680.6685257000499,680.6520143000525,682.6526310000336,None,1,0.6111221500323154,2.61175074998755,decreament,0.6,11,standard,None,100,,,,,,,,m,23,201,en,r,0,raw,2022-05-03_11h14.46.709,oddball,2022.1.2,59.9631466486753,
5,,,,,0,0,0,1,4,0,4,0,16,0,16,0,,,,,,,,,,,,,,,,,682.669440800033,None,683.3865193000529,683.9865148000536,683.9702060000272,685.9704819000326,None,1,0.6123229500371963,2.6125586500857025,decreament,0.6,11,standard,None,100,,,,,,,,m,23,201,en,r,0,raw,2022-05-03_11h14.46.709,oddball,2022.1.2,59.9631466486753,
5,,,,,0,0,0,1,4,0,4,0,17,0,17,0,,,,,,,,,,,,,,,,,685.987070400035,None,686.6545208000462,687.2544546000427,687.2378166000126,689.238825700013,None,1,0.6111202500178479,2.612236750021111,decreament,0.6,11,standard,None,100,,,,,,,,m,23,201,en,r,0,raw,2022-05-03_11h14.46.709,oddball,2022.1.2,59.9631466486753,
5,,,,,0,0,0,1,4,0,4,0,18,0,18,0,,,,,,,,,,,,,,,,,689.255542400002,None,689.9055004000547,690.5054820000078,690.4888083000551,692.4895307000261,None,1,0.6132579499972053,2.6139772500027902,decreament,0.6,11,standard,None,100,,,,,,,,m,23,201,en,r,0,raw,2022-05-03_11h14.46.709,oddball,2022.1.2,59.9631466486753,
5,,,,,0,0,0,1,4,0,4,0,19,0,19,0,,,,,,,,,,,,,,,,,692.5063349000411,None,693.0738646000391,693.6737800000119,693.657491800026,695.6581431000377,None,1,0.6116362500470132,2.612279950059019,decreament,0.6,11,standard,None,100,,,,,,,,m,23,201,en,r,0,raw,2022-05-03_11h14.46.709,oddball,2022.1.2,59.9631466486753,
5,,,,,0,0,0,1,4,0,4,0,20,0,20,0,,,,,,,,,,,,,,,,,695.6742433000472,None,696.3079331000336,696.9080231000553,696.8914491000469,698.8925020000315,j,0,0.6096302500227466,2.6107491500442848,decreament,0.6,11,standard,None,100,0.5018230000277981,,,,,,,m,23,201,en,r,0,raw,2022-05-03_11h14.46.709,oddball,2022.1.2,59.9631466486753,
5,,,,,0,0,0,1,4,0,4,0,21,0,21,0,,,,,,,,,,,,,,,,,698.9086739000049,None,699.5593546000309,700.0425840000389,700.0259160000132,702.0268232000526,j,1,0.4949903499800712,2.495896550011821,decreament,0.48,14,oddball,j,80,0.7276595000294037,,,,,,,m,23,201,en,r,0,raw,2022-05-03_11h14.46.709,oddball,2022.1.2,59.9631466486753,
5,,,,,0,0,0,1,4,0,4,0,22,0,22,0,,,,,,,,,,,,,,,,,702.0432170000277,None,702.6935736000305,703.2938463000464,703.2771601999993,705.2779619000503,None,1,0.6134737500688061,2.614306750067044,decreament,0.6,11,standard,None,100,,,,,,,,m,23,201,en,r,0,raw,2022-05-03_11h14.46.709,oddball,2022.1.2,59.9631466486753,
5,,,,,0,0,0,1,4,0,4,0,23,0,23,0,,,,,,,,,,,,,,,,,705.2944191000424,None,705.8281563000055,706.4284482000512,706.4118118000333,708.4123898000107,None,1,0.6136000499827787,2.6141617500106804,decreament,0.6,11,standard,None,100,,,,,,,,m,23,201,en,r,0,raw,2022-05-03_11h14.46.709,oddball,2022.1.2,59.9631466486753,
5,,,,,0,0,0,1,4,0,4,0,24,0,24,0,,,,,,,,,,,,,,,,,708.4290564000257,None,708.9796274000546,709.5796100000152,709.5627810000442,711.5639491000329,None,1,0.6108850500313565,2.6121394500369206,decreament,0.6,11,standard,None,100,,,,,,,,m,23,201,en,r,0,raw,2022-05-03_11h14.46.709,oddball,2022.1.2,59.9631466486753,
5,,,,,0,0,0,1,4,0,4,0,25,0,25,0,,,,,,,,,,,,,,,,,711.5820934000076,None,712.2472192000132,712.4974856000044,712.4641368000302,714.4645933000138,j,1,0.24702845001593232,2.247434750024695,decreament,0.24,12,oddball,j,40,0.6648533999687061,,,,,,,m,23,201,en,r,0,raw,2022-05-03_11h14.46.709,oddball,2022.1.2,59.9631466486753,
5,,,,,0,0,0,1,4,0,4,0,26,0,26,0,,,,,,,,,,,,,,,,,714.4811205000151,None,715.0480847000144,715.6485020000255,715.6321623999975,717.632429600053,None,1,0.6116204501013272,2.6118045501061715,decreament,0.6,11,standard,None,100,,,,,,,,m,23,201,en,r,0,raw,2022-05-03_11h14.46.709,oddball,2022.1.2,59.9631466486753,
5,,,,,0,0,0,1,4,0,4,0,27,0,27,0,,,,,,,,,,,,,,,,,717.6494587000343,None,718.3830047000083,718.9829268000321,718.9664180000545,720.9676569000003,None,1,0.6134343500598334,2.6147510500159115,decreament,0.6,11,standard,None,100,,,,,,,,m,23,201,en,r,0,raw,2022-05-03_11h14.46.709,oddball,2022.1.2,59.9631466486753,
5,,,,,0,0,0,1,4,0,4,0,28,0,28,0,,,,,,,,,,,,,,,,,720.984672700055,None,721.667528800026,722.2679048000136,722.2513018000172,724.2520660000155,None,1,0.6123059500241652,2.6130559500306845,decreament,0.6,11,standard,None,100,,,,,,,,m,23,201,en,r,0,raw,2022-05-03_11h14.46.709,oddball,2022.1.2,59.9631466486753,
5,,,,,0,0,0,1,4,0,4,0,29,0,29,0,,,,,,,,,,,,,,,,,724.2694023000076,None,724.8689202000387,725.235304300033,725.2020936000044,727.2027301000198,j,1,0.36101655004313216,2.361614650057163,decreament,0.36,13,oddball,j,60,0.44762280001305044,,,,,,,m,23,201,en,r,0,raw,2022-05-03_11h14.46.709,oddball,2022.1.2,59.9631466486753,
5,,,,,0,0,0,1,5,0,5,0,0,0,0,0,,,,,,,,,,,,,,,737.3162524000509,None,749.9281065000105,None,750.5952359000221,751.1950921000098,751.1786322999978,753.1797218000283,None,1,0.6118199500488117,2.61302385001909,increament,0.6,15,standard,None,100,,727.2198540000245,None,,,,,m,23,201,en,r,0,raw,2022-05-03_11h14.46.709,oddball,2022.1.2,59.9631466486753,
5,,,,,0,0,0,1,5,0,5,0,1,0,1,0,,,,,,,,,,,,,,,,,753.196766100009,None,753.7796774000162,754.3797820000327,754.3632534000208,756.3638173000072,None,1,0.6129975500516593,2.613543250015937,increament,0.6,15,standard,None,100,,,,,,,,m,23,201,en,r,0,raw,2022-05-03_11h14.46.709,oddball,2022.1.2,59.9631466486753,
5,,,,,0,0,0,1,5,0,5,0,2,0,2,0,,,,,,,,,,,,,,,,,756.3807413000031,None,756.9474621000118,757.5476858000038,757.5312750000157,759.5319179000217,None,1,0.6147350500687025,2.6153802500339225,increament,0.6,15,standard,None,100,,,,,,,,m,23,201,en,r,0,raw,2022-05-03_11h14.46.709,oddball,2022.1.2,59.9631466486753,
5,,,,,0,0,0,1,5,0,5,0,3,0,3,0,,,,,,,,,,,,,,,,,759.5482797000441,None,760.2824445000151,760.8824284000439,760.8656437000027,762.8663931000046,None,1,0.6132933500339277,2.614051050040871,increament,0.6,15,standard,None,100,,,,,,,,m,23,201,en,r,0,raw,2022-05-03_11h14.46.709,oddball,2022.1.2,59.9631466486753,
5,,,,,0,0,0,1,5,0,5,0,4,0,4,0,,,,,,,,,,,,,,,,,762.8831921000383,None,763.5667776000337,764.1670164000243,764.1504803000134,766.1509312000126,None,1,0.6139154499978758,2.614282149996143,increament,0.6,15,standard,None,100,,,,,,,,m,23,201,en,r,0,raw,2022-05-03_11h14.46.709,oddball,2022.1.2,59.9631466486753,
5,,,,,0,0,0,1,5,0,5,0,5,0,5,0,,,,,,,,,,,,,,,,,766.1674813000136,None,766.8347775000148,767.4346484999987,767.4182936000288,769.4191145000514,None,1,0.6119222500710748,2.6128109500859864,increament,0.6,15,standard,None,100,,,,,,,,m,23,201,en,r,0,raw,2022-05-03_11h14.46.709,oddball,2022.1.2,59.9631466486753,
5,,,,,0,0,0,1,5,0,5,0,6,0,6,0,,,,,,,,,,,,,,,,,769.4368751000147,None,770.1358595000347,770.7362590000266,770.7192852000007,772.720386800007,None,1,0.6139361500390805,2.6151084500015713,increament,0.6,15,standard,None,100,,,,,,,,m,23,201,en,r,0,raw,2022-05-03_11h14.46.709,oddball,2022.1.2,59.9631466486753,
5,,,,,0,0,0,1,5,0,5,0,7,0,7,0,,,,,,,,,,,,,,,,,772.736791000003,None,773.3040364000481,773.9038887000061,773.8872267000261,775.8878585000057,None,1,0.6124174500000663,2.6130215500015765,increament,0.6,15,standard,None,100,,,,,,,,m,23,201,en,r,0,raw,2022-05-03_11h14.46.709,oddball,2022.1.2,59.9631466486753,
5,,,,,0,0,0,1,5,0,5,0,8,0,8,0,,,,,,,,,,,,,,,,,775.904800600023,None,776.6215442000539,777.2221862000297,777.2051951000467,779.2062966000522,None,1,0.6125477500609122,2.613733350066468,increament,0.6,15,standard,None,100,,,,,,,,m,23,201,en,r,0,raw,2022-05-03_11h14.46.709,oddball,2022.1.2,59.9631466486753,
5,,,,,0,0,0,1,5,0,5,0,9,0,9,0,,,,,,,,,,,,,,,,,779.222653600038,None,779.9060325000319,780.8731877000537,780.8401839000289,782.8407548000105,j,1,0.9646431500441395,2.96522895002272,increament,0.96,18,oddball,j,160,0.4972577000153251,,,,,,,m,23,201,en,r,0,raw,2022-05-03_11h14.46.709,oddball,2022.1.2,59.9631466486753,
5,,,,,0,0,0,1,5,0,5,0,10,0,10,0,,,,,,,,,,,,,,,,,782.8575475000544,None,783.5079924000311,784.1078740000376,784.0913022000459,786.091808600002,None,1,0.6126805500825867,2.6131835500709713,increament,0.6,15,standard,None,100,,,,,,,,m,23,201,en,r,0,raw,2022-05-03_11h14.46.709,oddball,2022.1.2,59.9631466486753,
5,,,,,0,0,0,1,5,0,5,0,11,0,11,0,,,,,,,,,,,,,,,,,786.1086083000409,None,786.7755906000384,787.375627100002,787.3593987000058,789.3601718000136,None,1,0.6141017500194721,2.6148358500213362,increament,0.6,15,standard,None,100,,,,,,,,m,23,201,en,r,0,raw,2022-05-03_11h14.46.709,oddball,2022.1.2,59.9631466486753,
5,,,,,0,0,0,1,5,0,5,0,12,0,12,0,,,,,,,,,,,,,,,,,789.3771717000054,None,789.9600308000227,790.5602935000206,790.5436143000261,792.5446133000078,None,1,0.6134000500314869,2.6144996500224806,increament,0.6,15,standard,None,100,,,,,,,,m,23,201,en,r,0,raw,2022-05-03_11h14.46.709,oddball,2022.1.2,59.9631466486753,
5,,,,,0,0,0,1,5,0,5,0,13,0,13,0,,,,,,,,,,,,,,,,,792.561133500014,None,793.3947345000342,793.9947812000173,793.9782428000472,795.9788564000046,None,1,0.6136087499908172,2.614215149951633,increament,0.6,15,standard,None,100,,,,,,,,m,23,201,en,r,0,raw,2022-05-03_11h14.46.709,oddball,2022.1.2,59.9631466486753,
5,,,,,0,0,0,1,5,0,5,0,14,0,14,0,,,,,,,,,,,,,,,,,795.9958368000225,None,796.7125868000439,797.3130893000052,797.2962095000548,799.2972123000072,None,1,0.614155649964232,2.615194949961733,increament,0.6,15,standard,None,100,,,,,,,,m,23,201,en,r,0,raw,2022-05-03_11h14.46.709,oddball,2022.1.2,59.9631466486753,
5,,,,,0,0,0,1,5,0,5,0,15,0,15,0,,,,,,,,,,,,,,,,,799.3143491000519,None,799.8805476000416,800.4806148000062,800.4640131000197,802.4646145000006,None,1,0.6113901500357315,2.611984150018543,increament,0.6,15,standard,None,100,,,,,,,,m,23,201,en,r,0,raw,2022-05-03_11h14.46.709,oddball,2022.1.2,59.9631466486753,
5,,,,,0,0,0,1,5,0,5,0,16,0,16,0,,,,,,,,,,,,,,,,,802.4815677000443,None,803.1482055000379,803.9986900000367,803.9652168000466,805.9660115000443,None,0,0.8468262500246055,2.8476223499746993,increament,0.84,17,oddball,j,140,,,,,,,,m,23,201,en,r,0,raw,2022-05-03_11h14.46.709,oddball,2022.1.2,59.9631466486753,
5,,,,,0,0,0,1,5,0,5,0,17,0,17,0,,,,,,,,,,,,,,,,,805.9826712000067,None,806.5996192000457,807.1996971000335,807.1831056000083,809.1841731000459,None,1,0.6128466500085779,2.6140072499983944,increament,0.6,15,standard,None,100,,,,,,,,m,23,201,en,r,0,raw,2022-05-03_11h14.46.709,oddball,2022.1.2,59.9631466486753,
5,,,,,0,0,0,1,5,0,5,0,18,0,18,0,,,,,,,,,,,,,,,,,809.2013443000033,None,809.7506022000453,810.3512851000414,810.3349202000536,812.335223400034,None,1,0.6153096499620005,2.615578649973031,increament,0.6,15,standard,None,100,,,,,,,,m,23,201,en,r,0,raw,2022-05-03_11h14.46.709,oddball,2022.1.2,59.9631466486753,
5,,,,,0,0,0,1,5,0,5,0,19,0,19,0,,,,,,,,,,,,,,,,,812.3540181000135,None,813.2189080000389,813.8191806000541,813.8029052000493,815.8030066000065,None,1,0.6131753500085324,2.6131796500412747,increament,0.6,15,standard,None,100,,,,,,,,m,23,201,en,r,0,raw,2022-05-03_11h14.46.709,oddball,2022.1.2,59.9631466486753,
5,,,,,0,0,0,1,5,0,5,0,20,0,20,0,,,,,,,,,,,,,,,,,815.8196323000011,None,816.636948600004,817.3703548000194,817.3369866000139,819.3378702000482,None,0,0.7285304500255734,2.7294379500090145,increament,0.72,16,oddball,j,120,,,,,,,,m,23,201,en,r,0,raw,2022-05-03_11h14.46.709,oddball,2022.1.2,59.9631466486753,
5,,,,,0,0,0,1,5,0,5,0,21,0,21,0,,,,,,,,,,,,,,,,,819.3544230000116,None,819.9546076000552,820.5550868000137,820.5386234000325,822.5389394000522,None,1,0.6157624499755912,2.6157918499666266,increament,0.6,15,standard,None,100,,,,,,,,m,23,201,en,r,0,raw,2022-05-03_11h14.46.709,oddball,2022.1.2,59.9631466486753,
5,,,,,0,0,0,1,5,0,5,0,22,0,22,0,,,,,,,,,,,,,,,,,822.5560986000346,None,823.3228752000141,823.9227299000486,823.9062100000447,825.907222800015,None,1,0.611109449993819,2.612142350000795,increament,0.6,15,standard,None,100,,,,,,,,m,23,201,en,r,0,raw,2022-05-03_11h14.46.709,oddball,2022.1.2,59.9631466486753,
5,,,,,0,0,0,1,5,0,5,0,23,0,23,0,,,,,,,,,,,,,,,,,825.9234561000485,None,826.5239904000191,827.1243239000323,827.1073956000037,829.1080361000495,None,1,0.6134920499753207,2.61411094997311,increament,0.6,15,standard,None,100,,,,,,,,m,23,201,en,r,0,raw,2022-05-03_11h14.46.709,oddball,2022.1.2,59.9631466486753,
5,,,,,0,0,0,1,5,0,5,0,24,0,24,0,,,,,,,,,,,,,,,,,829.124706600036,None,829.7415616000071,830.3415856000502,830.3249929000158,832.3261855000164,None,1,0.6137099500047043,2.614967150031589,increament,0.6,15,standard,None,100,,,,,,,,m,23,201,en,r,0,raw,2022-05-03_11h14.46.709,oddball,2022.1.2,59.9631466486753,
5,,,,,0,0,0,1,5,0,5,0,25,0,25,0,,,,,,,,,,,,,,,,,832.3426254000515,None,833.0428576000268,833.6433373000473,833.6268095000414,835.6273941000109,None,1,0.6144974500639364,2.6150622500572354,increament,0.6,15,standard,None,100,,,,,,,,m,23,201,en,r,0,raw,2022-05-03_11h14.46.709,oddball,2022.1.2,59.9631466486753,
5,,,,,0,0,0,1,5,0,5,0,26,0,26,0,,,,,,,,,,,,,,,,,835.6439756000182,None,836.3776910000015,836.9777453000424,836.9614196000039,838.9622692000121,None,1,0.6146644500549883,2.6157608500216156,increament,0.6,15,standard,None,100,,,,,,,,m,23,201,en,r,0,raw,2022-05-03_11h14.46.709,oddball,2022.1.2,59.9631466486753,
5,,,,,0,0,0,1,5,0,5,0,27,0,27,0,,,,,,,,,,,,,,,,,838.9786130000139,None,839.7289181000087,840.3292978000245,840.3125215000473,842.3131127000088,None,1,0.6138306500506587,2.6143892500549555,increament,0.6,15,standard,None,100,,,,,,,,m,23,201,en,r,0,raw,2022-05-03_11h14.46.709,oddball,2022.1.2,59.9631466486753,
5,,,,,0,0,0,1,5,0,5,0,28,0,28,0,,,,,,,,,,,,,,,,,842.3298652000376,None,842.9633555000182,843.5637962000328,843.5476027000113,845.5477963000303,None,1,0.6145751500152983,2.6147049500141293,increament,0.6,15,standard,None,100,,,,,,,,m,23,201,en,r,0,raw,2022-05-03_11h14.46.709,oddball,2022.1.2,59.9631466486753,
5,,,,,0,0,0,1,5,0,5,0,29,0,29,0,,,,,,,,,,,,,,,,,845.5646162000485,None,846.2477598000551,846.8483975999989,846.831886400003,848.8326856000349,None,1,0.6151964500895701,2.6160256501170807,increament,0.6,15,standard,None,100,,,,,,,,m,23,201,en,r,0,raw,2022-05-03_11h14.46.709,oddball,2022.1.2,59.9631466486753,
5,,,,,0,0,0,1,6,0,6,0,0,0,0,0,,,,,,,,,,,,,,,871.5095987000386,None,880.344397900044,None,880.9278006000095,881.528303500032,881.5116280000075,883.5121230000514,None,1,0.6115553500130773,2.6120452500181273,decreament,0.6,11,standard,None,100,,848.8493802000303,None,,,,,m,23,201,en,r,0,raw,2022-05-03_11h14.46.709,oddball,2022.1.2,59.9631466486753,
5,,,,,0,0,0,1,6,0,6,0,1,0,1,0,,,,,,,,,,,,,,,,,883.5288935000426,None,884.0458199999994,884.6455675000325,884.6293014000403,886.6298605000484,None,1,0.6122879500617273,2.612808650068473,decreament,0.6,11,standard,None,100,,,,,,,,m,23,201,en,r,0,raw,2022-05-03_11h14.46.709,oddball,2022.1.2,59.9631466486753,
5,,,,,0,0,0,1,6,0,6,0,2,0,2,0,,,,,,,,,,,,,,,,,886.6465976000181,None,887.4636250000331,888.0637710000155,888.0470803000499,890.0478692000033,None,1,0.6115966499783099,2.6123583499575034,decreament,0.6,11,standard,None,100,,,,,,,,m,23,201,en,r,0,raw,2022-05-03_11h14.46.709,oddball,2022.1.2,59.9631466486753,
5,,,,,0,0,0,1,6,0,6,0,3,0,3,0,,,,,,,,,,,,,,,,,890.0644405000494,None,890.6482090000063,891.2484167000512,891.2316991999978,893.2323709000484,None,1,0.6121316499775276,2.6127463500015438,decreament,0.6,11,standard,None,100,,,,,,,,m,23,201,en,r,0,raw,2022-05-03_11h14.46.709,oddball,2022.1.2,59.9631466486753,
5,,,,,0,0,0,1,6,0,6,0,4,0,4,0,,,,,,,,,,,,,,,,,893.2491658000508,None,893.8491395000019,894.4495753000374,894.4331233000266,None,None,1,0.5991261500748806,2.599477050069254,decreament,0.6,11,standard,None,100,,,,,,,,m,23,201,en,r,0,raw,2022-05-03_11h14.46.709,oddball,2022.1.2,59.9631466486753,
5,,,,,0,0,0,1,6,0,6,0,5,0,5,0,,,,,,,,,,,,,,,,,896.4337730000261,None,897.1676986000384,897.7680080000428,897.7507376000285,899.7517419000505,None,1,0.6120617500273511,2.6130767500726506,decreament,0.6,11,standard,None,100,,,,,,,,m,23,201,en,r,0,raw,2022-05-03_11h14.46.709,oddball,2022.1.2,59.9631466486753,
5,,,,,0,0,0,1,6,0,6,0,6,0,6,0,,,,,,,,,,,,,,,,,899.7681829000358,None,900.3019964999985,900.9018042000243,900.8853556000395,902.885839100054,None,1,0.6139311500010081,2.614402249979321,decreament,0.6,11,standard,None,100,,,,,,,,m,23,201,en,r,0,raw,2022-05-03_11h14.46.709,oddball,2022.1.2,59.9631466486753,
5,,,,,0,0,0,1,6,0,6,0,7,0,7,0,,,,,,,,,,,,,,,,,902.9026674000197,None,903.820097900054,904.4201447000378,904.4033074000035,906.4042580000241,None,1,0.6107851500273682,2.6117477500229143,decreament,0.6,11,standard,None,100,,,,,,,,m,23,201,en,r,0,raw,2022-05-03_11h14.46.709,oddball,2022.1.2,59.9631466486753,
5,,,,,0,0,0,1,6,0,6,0,8,0,8,0,,,,,,,,,,,,,,,,,906.4209561000462,None,906.98752840003,907.5880421000184,907.571226900036,909.572322400054,None,1,0.6145799499936402,2.6157554499804974,decreament,0.6,11,standard,None,100,,,,,,,,m,23,201,en,r,0,raw,2022-05-03_11h14.46.709,oddball,2022.1.2,59.9631466486753,
5,,,,,0,0,0,1,6,0,6,0,9,0,9,0,,,,,,,,,,,,,,,,,909.5904194000177,None,910.3056579000549,910.905720800045,910.8894526000367,912.890129700012,None,1,0.6144573500496335,2.6151929500047117,decreament,0.6,11,standard,None,100,,,,,,,,m,23,201,en,r,0,raw,2022-05-03_11h14.46.709,oddball,2022.1.2,59.9631466486753,
5,,,,,0,0,0,1,6,0,6,0,10,0,10,0,,,,,,,,,,,,,,,,,912.9066903000348,None,913.5735858000116,914.1735074000317,914.1569843000034,916.1576881000074,None,1,0.6122674500220455,2.6130059500574134,decreament,0.6,11,standard,None,100,,,,,,,,m,23,201,en,r,0,raw,2022-05-03_11h14.46.709,oddball,2022.1.2,59.9631466486753,
5,,,,,0,0,0,1,6,0,6,0,11,0,11,0,,,,,,,,,,,,,,,,,916.1743795000366,None,916.7746512000449,917.024908500025,916.9916510000476,918.9924408000079,j,1,0.24692885001422837,2.2477365499944426,decreament,0.24,12,oddball,j,40,0.6016737000318244,,,,,,,m,23,201,en,r,0,raw,2022-05-03_11h14.46.709,oddball,2022.1.2,59.9631466486753,
5,,,,,0,0,0,1,6,0,6,0,12,0,12,0,,,,,,,,,,,,,,,,,919.0087543000118,None,919.6923676000442,920.2929538000026,920.276344700018,922.2766900000279,None,1,0.6153239500708878,2.615567750064656,decreament,0.6,11,standard,None,100,,,,,,,,m,23,201,en,r,0,raw,2022-05-03_11h14.46.709,oddball,2022.1.2,59.9631466486753,
5,,,,,0,0,0,1,6,0,6,0,13,0,13,0,,,,,,,,,,,,,,,,,922.2936408000533,None,922.9104837000486,923.5103584000026,923.4941552000237,925.4948538000463,None,1,0.6120339500484988,2.6127902500447817,decreament,0.6,11,standard,None,100,,,,,,,,m,23,201,en,r,0,raw,2022-05-03_11h14.46.709,oddball,2022.1.2,59.9631466486753,
5,,,,,0,0,0,1,6,0,6,0,14,0,14,0,,,,,,,,,,,,,,,,,925.5114690000191,None,926.1949770000065,926.7950917000417,926.7784849000163,928.7794528000522,None,1,0.6149355500238016,2.6159274500096217,decreament,0.6,11,standard,None,100,,,,,,,,m,23,201,en,r,0,raw,2022-05-03_11h14.46.709,oddball,2022.1.2,59.9631466486753,
5,,,,,0,0,0,1,6,0,6,0,15,0,15,0,,,,,,,,,,,,,,,,,928.7961065000272,None,929.3964801999973,929.9965689000092,929.9798350000056,931.9806688000099,None,1,0.6113361500320025,2.612205150013324,decreament,0.6,11,standard,None,100,,,,,,,,m,23,201,en,r,0,raw,2022-05-03_11h14.46.709,oddball,2022.1.2,59.9631466486753,
5,,,,,0,0,0,1,6,0,6,0,16,0,16,0,,,,,,,,,,,,,,,,,931.9979266000446,None,932.7641102000489,933.3641294000554,933.3479796000174,935.3485662000021,j,0,0.6103085500071757,2.6109527500229888,decreament,0.6,11,standard,None,100,0.5322023999760859,,,,,,,m,23,201,en,r,0,raw,2022-05-03_11h14.46.709,oddball,2022.1.2,59.9631466486753,
5,,,,,0,0,0,1,6,0,6,0,17,0,17,0,,,,,,,,,,,,,,,,,935.3648861000547,None,935.9155146999983,936.5154890000122,936.4988228000002,938.4996736000176,j,0,0.6128012500703335,2.6136880500707775,decreament,0.6,11,standard,None,100,0.6141338999732397,,,,,,,m,23,201,en,r,0,raw,2022-05-03_11h14.46.709,oddball,2022.1.2,59.9631466486753,
5,,,,,0,0,0,1,6,0,6,0,18,0,18,0,,,,,,,,,,,,,,,,,938.5164078000234,None,939.0835501000402,939.6838114000275,939.6670398000279,941.6674854000448,j,0,0.612598350038752,2.6129821500508115,decreament,0.6,11,standard,None,100,0.541671899962239,,,,,,,m,23,201,en,r,0,raw,2022-05-03_11h14.46.709,oddball,2022.1.2,59.9631466486753,
5,,,,,0,0,0,1,6,0,6,0,19,0,19,0,,,,,,,,,,,,,,,,,941.684170100023,None,942.4180392000126,942.7845963000436,942.7510853999993,944.7519190000021,j,1,0.36242445005336776,2.363249550049659,decreament,0.36,13,oddball,j,60,0.5142364000203088,,,,,,,m,23,201,en,r,0,raw,2022-05-03_11h14.46.709,oddball,2022.1.2,59.9631466486753,
5,,,,,0,0,0,1,6,0,6,0,20,0,20,0,,,,,,,,,,,,,,,,,944.768428200041,None,945.3521541000227,945.9525885000476,945.9357811000082,947.9368293000152,None,1,0.6137139500351623,2.6148048500181176,decreament,0.6,11,standard,None,100,,,,,,,,m,23,201,en,r,0,raw,2022-05-03_11h14.46.709,oddball,2022.1.2,59.9631466486753,
5,,,,,0,0,0,1,6,0,6,0,21,0,21,0,,,,,,,,,,,,,,,,,947.9531720000086,None,948.8037067000405,949.4037932000356,949.3870931999991,951.387800800032,None,1,0.6109782500425354,2.611663550022058,decreament,0.6,11,standard,None,100,,,,,,,,m,23,201,en,r,0,raw,2022-05-03_11h14.46.709,oddball,2022.1.2,59.9631466486753,
5,,,,,0,0,0,1,6,0,6,0,22,0,22,0,,,,,,,,,,,,,,,,,951.404588400037,None,952.1048716000514,952.7050552000292,952.6881486000493,954.6888826000504,None,1,0.6131771500222385,2.613880450022407,decreament,0.6,11,standard,None,100,,,,,,,,m,23,201,en,r,0,raw,2022-05-03_11h14.46.709,oddball,2022.1.2,59.9631466486753,
5,,,,,0,0,0,1,6,0,6,0,23,0,23,0,,,,,,,,,,,,,,,,,954.705526500009,None,955.4061363000073,956.0059748000349,955.9898893000209,957.9902727000299,None,1,0.6129433500464074,2.613360650080722,decreament,0.6,11,standard,None,100,,,,,,,,m,23,201,en,r,0,raw,2022-05-03_11h14.46.709,oddball,2022.1.2,59.9631466486753,
5,,,,,0,0,0,1,6,0,6,0,24,0,24,0,,,,,,,,,,,,,,,,,958.0070160000469,None,958.5738859000267,959.1740416000248,959.1577539000427,961.1581428000354,j,0,0.6146426500054076,2.614957850018982,decreament,0.6,11,standard,None,100,0.6343104999978095,,,,,,,m,23,201,en,r,0,raw,2022-05-03_11h14.46.709,oddball,2022.1.2,59.9631466486753,
5,,,,,0,0,0,1,6,0,6,0,25,0,25,0,,,,,,,,,,,,,,,,,961.1749243000522,None,961.7254347000271,962.3256271000137,962.3086921000504,964.3093232000247,None,1,0.6119274500524625,2.612543950031977,decreament,0.6,11,standard,None,100,,,,,,,,m,23,201,en,r,0,raw,2022-05-03_11h14.46.709,oddball,2022.1.2,59.9631466486753,
5,,,,,0,0,0,1,6,0,6,0,26,0,26,0,,,,,,,,,,,,,,,,,964.325806900044,None,964.993045900017,965.5931283000391,965.576950800023,967.5772255000193,None,1,0.6130702500231564,2.613233449985273,decreament,0.6,11,standard,None,100,,,,,,,,m,23,201,en,r,0,raw,2022-05-03_11h14.46.709,oddball,2022.1.2,59.9631466486753,
5,,,,,0,0,0,1,6,0,6,0,27,0,27,0,,,,,,,,,,,,,,,,,967.5941110000131,None,968.1278494000435,968.7276579000172,968.7110048000468,970.7116767000407,None,1,0.6138215499813668,2.614483850018587,decreament,0.6,11,standard,None,100,,,,,,,,m,23,201,en,r,0,raw,2022-05-03_11h14.46.709,oddball,2022.1.2,59.9631466486753,
5,,,,,0,0,0,1,6,0,6,0,28,0,28,0,,,,,,,,,,,,,,,,,970.7287573000067,None,971.3952588000102,971.8787936000153,971.8455151000526,973.8463373000268,j,1,0.48135015001753345,2.4821690500248224,decreament,0.48,14,oddball,j,80,0.6666669999831356,,,,,,,m,23,201,en,r,0,raw,2022-05-03_11h14.46.709,oddball,2022.1.2,59.9631466486753,
5,,,,,0,0,0,1,6,0,6,0,29,0,29,0,,,,,,,,,,,,,,,,,973.862919700041,None,974.496657700045,975.0965024000034,975.0800726000452,977.0810976000503,None,1,0.6123036500648595,2.613355750043411,decreament,0.6,11,standard,None,100,,,,,,,,m,23,201,en,r,0,raw,2022-05-03_11h14.46.709,oddball,2022.1.2,59.9631466486753,
5,,,,,0,0,0,1,7,0,7,0,0,0,0,0,,,,,,,,,,,,,,,995.9425399000174,None,1012.261135000037,None,1012.9778095000074,1013.5780369000277,1013.5613894000417,1015.5620237000403,None,1,0.6119904500083067,2.6126049500308,increament,0.6,15,standard,None,100,,977.0975240000407,None,,,,,m,23,201,en,r,0,raw,2022-05-03_11h14.46.709,oddball,2022.1.2,59.9631466486753,
5,,,,,0,0,0,1,7,0,7,0,1,0,1,0,,,,,,,,,,,,,,,,,1015.5788456000155,None,1016.3290399000398,1016.9296972000157,1016.9129118000274,1018.9134485000395,None,1,0.6133131500100717,2.6138391500571743,increament,0.6,15,standard,None,100,,,,,,,,m,23,201,en,r,0,raw,2022-05-03_11h14.46.709,oddball,2022.1.2,59.9631466486753,
5,,,,,0,0,0,1,7,0,7,0,2,0,2,0,,,,,,,,,,,,,,,,,1018.9300114000216,None,1019.6469014000031,1020.2471162000438,1020.2308333000401,1022.2319165000226,None,1,0.6119022500352003,2.613101250026375,increament,0.6,15,standard,None,100,,,,,,,,m,23,201,en,r,0,raw,2022-05-03_11h14.46.709,oddball,2022.1.2,59.9631466486753,
5,,,,,0,0,0,1,7,0,7,0,3,0,3,0,,,,,,,,,,,,,,,,,1022.2493661000044,None,1022.8323729000404,1023.4323125000228,1023.4157270000433,1025.4158668000018,None,1,0.6129569499753416,2.6129679499426857,increament,0.6,15,standard,None,100,,,,,,,,m,23,201,en,r,0,raw,2022-05-03_11h14.46.709,oddball,2022.1.2,59.9631466486753,
5,,,,,0,0,0,1,7,0,7,0,4,0,4,0,,,,,,,,,,,,,,,,,1025.432715300005,None,1026.0826467000297,1026.6830134000047,1026.6662516000215,1028.6669087000191,None,1,0.6135763499769382,2.614222450007219,increament,0.6,15,standard,None,100,,,,,,,,m,23,201,en,r,0,raw,2022-05-03_11h14.46.709,oddball,2022.1.2,59.9631466486753,
5,,,,,0,0,0,1,7,0,7,0,5,0,5,0,,,,,,,,,,,,,,,,,1028.6834629000514,None,1029.3006119000493,1029.9005980000366,1029.8841422999976,1031.8853066000156,None,1,0.6122584500699304,2.613575450028293,increament,0.6,15,standard,None,100,,,,,,,,m,23,201,en,r,0,raw,2022-05-03_11h14.46.709,oddball,2022.1.2,59.9631466486753,
5,,,,,0,0,0,1,7,0,7,0,6,0,6,0,,,,,,,,,,,,,,,,,1031.9019517000415,None,1032.6184565000003,1033.46859210002,1033.4353562000324,1035.4364956000354,j,1,0.8471070500090718,2.8483153500128537,increament,0.84,17,oddball,j,140,0.4457129000220448,,,,,,,m,23,201,en,r,0,raw,2022-05-03_11h14.46.709,oddball,2022.1.2,59.9631466486753,
5,,,,,0,0,0,1,7,0,7,0,7,0,7,0,,,,,,,,,,,,,,,,,1035.4530117000104,None,1036.0196826000465,1036.6202326000202,1036.6039895000285,1038.6037872000015,None,1,0.6149467500508763,2.614650450006593,increament,0.6,15,standard,None,100,,,,,,,,m,23,201,en,r,0,raw,2022-05-03_11h14.46.709,oddball,2022.1.2,59.9631466486753,
5,,,,,0,0,0,1,7,0,7,0,8,0,8,0,,,,,,,,,,,,,,,,,1038.6204875000403,None,1039.3378401000518,1039.9381104000495,1039.921470500005,1041.9220591000048,None,1,0.614341449982021,2.6148970499634743,increament,0.6,15,standard,None,100,,,,,,,,m,23,201,en,r,0,raw,2022-05-03_11h14.46.709,oddball,2022.1.2,59.9631466486753,
5,,,,,0,0,0,1,7,0,7,0,9,0,9,0,,,,,,,,,,,,,,,,,1041.9386140000424,None,1042.639087800053,1043.239559300011,1043.2227996000438,1045.223575400014,None,1,0.6129864500253461,2.6137417500140145,increament,0.6,15,standard,None,100,,,,,,,,m,23,201,en,r,0,raw,2022-05-03_11h14.46.709,oddball,2022.1.2,59.9631466486753,
5,,,,,0,0,0,1,7,0,7,0,10,0,10,0,,,,,,,,,,,,,,,,,1045.2399639000068,None,1045.9071234000148,1046.5070716000046,1046.4905789000331,1048.4915067999973,None,1,0.6132985500153154,2.6143024500343017,increament,0.6,15,standard,None,100,,,,,,,,m,23,201,en,r,0,raw,2022-05-03_11h14.46.709,oddball,2022.1.2,59.9631466486753,
5,,,,,0,0,0,1,7,0,7,0,11,0,11,0,,,,,,,,,,,,,,,,,1048.5077444000053,None,1049.2082133000367,1049.8083908000262,1049.791710200021,1051.7925339000067,None,1,0.61430354998447,2.615129549987614,increament,0.6,15,standard,None,100,,,,,,,,m,23,201,en,r,0,raw,2022-05-03_11h14.46.709,oddball,2022.1.2,59.9631466486753,
5,,,,,0,0,0,1,7,0,7,0,12,0,12,0,,,,,,,,,,,,,,,,,1051.8090484000277,None,1052.4594822000363,1053.426448400016,1053.3929394000443,1055.393884900026,j,1,0.9633571499725804,2.9643251500092447,increament,0.96,18,oddball,j,160,0.4158466999651864,,,,,,,m,23,201,en,r,0,raw,2022-05-03_11h14.46.709,oddball,2022.1.2,59.9631466486753,
5,,,,,0,0,0,1,7,0,7,0,13,0,13,0,,,,,,,,,,,,,,,,,1055.4106495000306,None,1056.2110240000184,1056.8111863000086,1056.7948003000347,1058.7955779000185,None,1,0.6124062499729916,2.6131521499482915,increament,0.6,15,standard,None,100,,,,,,,,m,23,201,en,r,0,raw,2022-05-03_11h14.46.709,oddball,2022.1.2,59.9631466486753,
5,,,,,0,0,0,1,7,0,7,0,14,0,14,0,,,,,,,,,,,,,,,,,1058.8128885000478,None,1059.3953660000116,1059.9954825000023,1059.978860000032,1061.9798293000204,None,1,0.6129707499640062,2.6139889499754645,increament,0.6,15,standard,None,100,,,,,,,,m,23,201,en,r,0,raw,2022-05-03_11h14.46.709,oddball,2022.1.2,59.9631466486753,
5,,,,,0,0,0,1,7,0,7,0,15,0,15,0,,,,,,,,,,,,,,,,,1061.996386200015,None,1062.6132884000544,1063.2135428000474,1063.197047499998,1065.1978266000515,None,1,0.6136011500493623,2.614539650036022,increament,0.6,15,standard,None,100,,,,,,,,m,23,201,en,r,0,raw,2022-05-03_11h14.46.709,oddball,2022.1.2,59.9631466486753,
5,,,,,0,0,0,1,7,0,7,0,16,0,16,0,,,,,,,,,,,,,,,,,1065.2144619000028,None,1065.8145669000223,1066.414870800043,1066.39832940005,1068.3990333999973,None,1,0.611053449974861,2.6117349499836564,increament,0.6,15,standard,None,100,,,,,,,,m,23,201,en,r,0,raw,2022-05-03_11h14.46.709,oddball,2022.1.2,59.9631466486753,
5,,,,,0,0,0,1,7,0,7,0,17,0,17,0,,,,,,,,,,,,,,,,,1068.4154365000431,None,1068.9827721000183,1069.582455500029,1069.5658459000406,1071.5665612000157,None,1,0.6106868499773555,2.611460949992761,increament,0.6,15,standard,None,100,,,,,,,,m,23,201,en,r,0,raw,2022-05-03_11h14.46.709,oddball,2022.1.2,59.9631466486753,
5,,,,,0,0,0,1,7,0,7,0,18,0,18,0,,,,,,,,,,,,,,,,,1071.5830889000208,None,1072.250388400047,1072.8507910000044,1072.8340932000428,1074.8348903000006,None,1,0.6128616500063799,2.6136838500387967,increament,0.6,15,standard,None,100,,,,,,,,m,23,201,en,r,0,raw,2022-05-03_11h14.46.709,oddball,2022.1.2,59.9631466486753,
5,,,,,0,0,0,1,7,0,7,0,19,0,19,0,,,,,,,,,,,,,,,,,1074.854047700006,None,1075.434988300025,1076.0350423000054,1076.0181688000448,1078.0189568000496,None,1,0.6125262500718236,2.6133376500802115,increament,0.6,15,standard,None,100,,,,,,,,m,23,201,en,r,0,raw,2022-05-03_11h14.46.709,oddball,2022.1.2,59.9631466486753,
5,,,,,0,0,0,1,7,0,7,0,20,0,20,0,,,,,,,,,,,,,,,,,1078.0357631000225,None,1078.7696362000424,1079.3698349000188,1079.3528870000155,1081.3535742000095,None,1,0.6095739500597119,2.6102128500351682,increament,0.6,15,standard,None,100,,,,,,,,m,23,201,en,r,0,raw,2022-05-03_11h14.46.709,oddball,2022.1.2,59.9631466486753,
5,,,,,0,0,0,1,7,0,7,0,21,0,21,0,,,,,,,,,,,,,,,,,1081.3706650000531,None,1082.0209157000063,1082.6211308000493,1082.6047923000297,1084.6049090000452,None,1,0.6148509500198998,2.6149017499992624,increament,0.6,15,standard,None,100,,,,,,,,m,23,201,en,r,0,raw,2022-05-03_11h14.46.709,oddball,2022.1.2,59.9631466486753,
5,,,,,0,0,0,1,7,0,7,0,22,0,22,0,,,,,,,,,,,,,,,,,1084.6216999000171,None,1085.222010300029,1085.9554033000022,1085.9222608000273,1087.922731300001,None,0,0.7275981499697082,2.7280634500202723,increament,0.72,16,oddball,j,120,,,,,,,,m,23,201,en,r,0,raw,2022-05-03_11h14.46.709,oddball,2022.1.2,59.9631466486753,
5,,,,,0,0,0,1,7,0,7,0,23,0,23,0,,,,,,,,,,,,,,,,,1087.9393452000222,None,1088.639610400016,1089.2405194000457,1089.223513200006,1091.2240577000193,None,1,0.6153948500286788,2.6159064500243403,increament,0.6,15,standard,None,100,,,,,,,,m,23,201,en,r,0,raw,2022-05-03_11h14.46.709,oddball,2022.1.2,59.9631466486753,
5,,,,,0,0,0,1,7,0,7,0,24,0,24,0,,,,,,,,,,,,,,,,,1091.2408575000009,None,1091.7910912000225,1092.391723800043,1092.374741000007,1094.3753357000533,None,1,0.612896150094457,2.6134645500569604,increament,0.6,15,standard,None,100,,,,,,,,m,23,201,en,r,0,raw,2022-05-03_11h14.46.709,oddball,2022.1.2,59.9631466486753,
5,,,,,0,0,0,1,7,0,7,0,25,0,25,0,,,,,,,,,,,,,,,,,1094.3919495000155,None,1095.1424211999984,1095.7426349000307,1095.7264159000479,1097.7267542000045,None,1,0.613022850069683,2.613308250089176,increament,0.6,15,standard,None,100,,,,,,,,m,23,201,en,r,0,raw,2022-05-03_11h14.46.709,oddball,2022.1.2,59.9631466486753,
5,,,,,0,0,0,1,7,0,7,0,26,0,26,0,,,,,,,,,,,,,,,,,1097.743198400014,None,1098.3772013999987,1098.9767274000333,1098.9601036000531,1100.961052700004,None,1,0.6114607499912381,2.6124590499675833,increament,0.6,15,standard,None,100,,,,,,,,m,23,201,en,r,0,raw,2022-05-03_11h14.46.709,oddball,2022.1.2,59.9631466486753,
5,,,,,0,0,0,1,7,0,7,0,27,0,27,0,,,,,,,,,,,,,,,,,1100.97773340001,None,1101.5616584000527,1102.1614836000372,1102.1449574000435,1104.145824200008,None,1,0.6116459499462508,2.6125177499488927,increament,0.6,15,standard,None,100,,,,,,,,m,23,201,en,r,0,raw,2022-05-03_11h14.46.709,oddball,2022.1.2,59.9631466486753,
5,,,,,0,0,0,1,7,0,7,0,28,0,28,0,,,,,,,,,,,,,,,,,1104.1624743000139,None,1104.9291940000257,1105.5299803000526,1105.5130473000463,1107.5137609000085,None,1,0.6147517500212416,2.6154456500080414,increament,0.6,15,standard,None,100,,,,,,,,m,23,201,en,r,0,raw,2022-05-03_11h14.46.709,oddball,2022.1.2,59.9631466486753,
5,,,,,0,0,0,1,7,0,7,0,29,0,29,0,,,,,,,,,,,,,,,,,1107.5304438000312,None,1108.3974040000467,1108.9977068000007,1108.9809965000022,1110.9817462000065,None,1,0.6114236499997787,2.6121876499964856,increament,0.6,15,standard,None,100,,,,,,,,m,23,201,en,r,0,raw,2022-05-03_11h14.46.709,oddball,2022.1.2,59.9631466486753,
5,,,,,0,0,0,1,8,0,8,0,0,0,0,0,,,,,,,,,,,,,,,1181.54176750005,None,1186.7771433000453,None,1187.360643699998,1187.960463299998,1187.9440220000106,1189.9446468000533,None,1,0.6118499500444159,2.6125012500560842,decreament,0.6,11,standard,None,100,,1110.9983354000142,None,,,,,m,23,201,en,r,0,raw,2022-05-03_11h14.46.709,oddball,2022.1.2,59.9631466486753,
5,,,,,0,0,0,1,8,0,8,0,1,0,1,0,,,,,,,,,,,,,,,,,1189.9615706000477,None,1190.6953274000552,1191.2953856000095,1191.2786876000464,1193.2793934000074,None,1,0.6129466500715353,2.61362205009209,decreament,0.6,11,standard,None,100,,,,,,,,m,23,201,en,r,0,raw,2022-05-03_11h14.46.709,oddball,2022.1.2,59.9631466486753,
5,,,,,0,0,0,1,8,0,8,0,2,0,2,0,,,,,,,,,,,,,,,,,1193.2961672000238,None,1194.0294725000276,1194.629908700008,1194.6133039999986,1196.6138675000402,None,1,0.615061649994459,2.61559965001652,decreament,0.6,11,standard,None,100,,,,,,,,m,23,201,en,r,0,raw,2022-05-03_11h14.46.709,oddball,2022.1.2,59.9631466486753,
5,,,,,0,0,0,1,8,0,8,0,3,0,3,0,,,,,,,,,,,,,,,,,1196.6310273000272,None,1197.3143579000025,1197.914752600016,1197.8980791000067,1199.898670500028,None,1,0.6124703499954194,2.6130405500298366,decreament,0.6,11,standard,None,100,,,,,,,,m,23,201,en,r,0,raw,2022-05-03_11h14.46.709,oddball,2022.1.2,59.9631466486753,
5,,,,,0,0,0,1,8,0,8,0,4,0,4,0,,,,,,,,,,,,,,,,,1199.9152555000037,None,1200.4493681000313,1201.048972700024,1201.0323406000389,1203.0329456000472,None,1,0.6128327500191517,2.61342584999511,decreament,0.6,11,standard,None,100,,,,,,,,m,23,201,en,r,0,raw,2022-05-03_11h14.46.709,oddball,2022.1.2,59.9631466486753,
5,,,,,0,0,0,1,8,0,8,0,5,0,5,0,,,,,,,,,,,,,,,,,1203.0498730000108,None,1203.7838407000527,1204.383503500023,1204.3671336999978,1206.3676622000057,None,1,0.6125858500017785,2.6131100499769673,decreament,0.6,11,standard,None,100,,,,,,,,m,23,201,en,r,0,raw,2022-05-03_11h14.46.709,oddball,2022.1.2,59.9631466486753,
5,,,,,0,0,0,1,8,0,8,0,6,0,6,0,,,,,,,,,,,,,,,,,1206.384683900047,None,1207.0845404000138,1207.6848886000225,1207.668142300041,1209.6689235000522,None,1,0.6122544499812648,2.613019649987109,decreament,0.6,11,standard,None,100,,,,,,,,m,23,201,en,r,0,raw,2022-05-03_11h14.46.709,oddball,2022.1.2,59.9631466486753,
5,,,,,0,0,0,1,8,0,8,0,7,0,7,0,,,,,,,,,,,,,,,,,1209.685537500016,None,1210.3858531000442,1210.985934299999,1210.9692929000012,1212.9706713000196,None,1,0.6145881499978714,2.6160783499944955,decreament,0.6,11,standard,None,100,,,,,,,,m,23,201,en,r,0,raw,2022-05-03_11h14.46.709,oddball,2022.1.2,59.9631466486753,
5,,,,,0,0,0,1,8,0,8,0,8,0,8,0,,,,,,,,,,,,,,,,,1212.9881300000125,None,1213.7372609000304,1214.3373814000515,1214.3204964000033,1216.3215188000468,None,1,0.6126798500190489,2.6137284499709494,decreament,0.6,11,standard,None,100,,,,,,,,m,23,201,en,r,0,raw,2022-05-03_11h14.46.709,oddball,2022.1.2,59.9631466486753,
5,,,,,0,0,0,1,8,0,8,0,9,0,9,0,,,,,,,,,,,,,,,,,1216.338431000011,None,1217.0385537000257,1217.6386099000229,1217.622128500021,1219.6221847000415,None,1,0.6138898500357755,2.6138521500397474,decreament,0.6,11,standard,None,100,,,,,,,,m,23,201,en,r,0,raw,2022-05-03_11h14.46.709,oddball,2022.1.2,59.9631466486753,
5,,,,,0,0,0,1,8,0,8,0,10,0,10,0,,,,,,,,,,,,,,,,,1219.6388742999989,None,1220.2229232000536,1220.706535300007,1220.673052500002,1222.6738436000305,j,1,0.4796102500404231,2.4804245500126854,decreament,0.48,14,oddball,j,80,0.590771900024265,,,,,,,m,23,201,en,r,0,raw,2022-05-03_11h14.46.709,oddball,2022.1.2,59.9631466486753,
5,,,,,0,0,0,1,8,0,8,0,11,0,11,0,,,,,,,,,,,,,,,,,1222.6908755000331,None,1223.3906542000477,1223.9908804000006,1223.97457760002,1225.9750847000396,None,1,0.6143111500423402,2.61481795005966,decreament,0.6,11,standard,None,100,,,,,,,,m,23,201,en,r,0,raw,2022-05-03_11h14.46.709,oddball,2022.1.2,59.9631466486753,
5,,,,,0,0,0,1,8,0,8,0,12,0,12,0,,,,,,,,,,,,,,,,,1225.9920227000257,None,1226.6419734000228,1227.2421332000522,1227.2257446000003,1229.22637270001,None,1,0.6138777500018477,2.6144978500087745,decreament,0.6,11,standard,None,100,,,,,,,,m,23,201,en,r,0,raw,2022-05-03_11h14.46.709,oddball,2022.1.2,59.9631466486753,
5,,,,,0,0,0,1,8,0,8,0,13,0,13,0,,,,,,,,,,,,,,,,,1229.2434631000506,None,1229.7933655000525,1230.393307200051,1230.3770779000479,1232.3774161000038,None,1,0.6126307499944232,2.612933950033039,decreament,0.6,11,standard,None,100,,,,,,,,m,23,201,en,r,0,raw,2022-05-03_11h14.46.709,oddball,2022.1.2,59.9631466486753,
5,,,,,0,0,0,1,8,0,8,0,14,0,14,0,,,,,,,,,,,,,,,,,1232.3942449000315,None,1233.0945138000534,1233.6947817000328,1233.677949200035,1235.6789393000072,None,1,0.6134020499885082,2.614456749986857,decreament,0.6,11,standard,None,100,,,,,,,,m,23,201,en,r,0,raw,2022-05-03_11h14.46.709,oddball,2022.1.2,59.9631466486753,
5,,,,,0,0,0,1,8,0,8,0,15,0,15,0,,,,,,,,,,,,,,,,,1235.6958894000272,None,1236.3792760000215,1236.9795746000018,1236.9626723000547,1238.9637352999998,None,1,0.613475650025066,2.6145837500225753,decreament,0.6,11,standard,None,100,,,,,,,,m,23,201,en,r,0,raw,2022-05-03_11h14.46.709,oddball,2022.1.2,59.9631466486753,
5,,,,,0,0,0,1,8,0,8,0,16,0,16,0,,,,,,,,,,,,,,,,,1238.9811225000303,None,1239.5305187000195,1240.13054740004,1240.1138305000495,1242.1146666000132,j,0,0.6128351500374265,2.6136672500288114,decreament,0.6,11,standard,None,100,0.5423158000339754,,,,,,,m,23,201,en,r,0,raw,2022-05-03_11h14.46.709,oddball,2022.1.2,59.9631466486753,
5,,,,,0,0,0,1,8,0,8,0,17,0,17,0,,,,,,,,,,,,,,,,,1242.1313952000346,None,1242.8317670000251,1243.43181920005,1243.4150775000453,1245.4156893000472,None,1,0.6096203500055708,2.610225350013934,decreament,0.6,11,standard,None,100,,,,,,,,m,23,201,en,r,0,raw,2022-05-03_11h14.46.709,oddball,2022.1.2,59.9631466486753,
5,,,,,0,0,0,1,8,0,8,0,18,0,18,0,,,,,,,,,,,,,,,,,1245.4324866000097,None,1246.049630500027,1246.6501136000152,1246.63324190001,1248.633625700022,None,1,0.6126112499623559,2.6129318499588408,decreament,0.6,11,standard,None,100,,,,,,,,m,23,201,en,r,0,raw,2022-05-03_11h14.46.709,oddball,2022.1.2,59.9631466486753,
5,,,,,0,0,0,1,8,0,8,0,19,0,19,0,,,,,,,,,,,,,,,,,1248.6507453000522,None,1249.383901400026,1249.9844863000326,1249.9676336999983,1251.968734300055,None,1,0.6137431500828825,2.614906150090974,decreament,0.6,11,standard,None,100,,,,,,,,m,23,201,en,r,0,raw,2022-05-03_11h14.46.709,oddball,2022.1.2,59.9631466486753,
5,,,,,0,0,0,1,8,0,8,0,20,0,20,0,,,,,,,,,,,,,,,,,1251.9847935000435,None,1252.5515949000255,1252.9188464000472,1252.8854356000083,1254.8865281000035,j,1,0.3644861500361003,2.3655968499951996,decreament,0.36,13,oddball,j,60,0.5627635999699123,,,,,,,m,23,201,en,r,0,raw,2022-05-03_11h14.46.709,oddball,2022.1.2,59.9631466486753,
5,,,,,0,0,0,1,8,0,8,0,21,0,21,0,,,,,,,,,,,,,,,,,1254.9041455000406,None,1255.48656390002,1256.0867211000295,1256.070100300014,1258.0707305000396,j,0,0.6111619500443339,2.6118210500571877,decreament,0.6,11,standard,None,100,0.6254512000014074,,,,,,,m,23,201,en,r,0,raw,2022-05-03_11h14.46.709,oddball,2022.1.2,59.9631466486753,
5,,,,,0,0,0,1,8,0,8,0,22,0,22,0,,,,,,,,,,,,,,,,,1258.0872923000134,None,1258.7211345000542,1259.3211903000483,1259.304591800028,1261.3053216000553,None,1,0.6108516500098631,2.611639649956487,decreament,0.6,11,standard,None,100,,,,,,,,m,23,201,en,r,0,raw,2022-05-03_11h14.46.709,oddball,2022.1.2,59.9631466486753,
5,,,,,0,0,0,1,8,0,8,0,23,0,23,0,,,,,,,,,,,,,,,,,1261.3222455000505,None,1262.0888879999984,1262.6889253000263,1262.6725604000385,1264.6731020000298,None,1,0.6136507500195876,2.614163650025148,decreament,0.6,11,standard,None,100,,,,,,,,m,23,201,en,r,0,raw,2022-05-03_11h14.46.709,oddball,2022.1.2,59.9631466486753,
5,,,,,0,0,0,1,8,0,8,0,24,0,24,0,,,,,,,,,,,,,,,,,1264.6901489000302,None,1265.2731144000427,1265.873424600053,1265.8568812000449,1267.8577820000355,None,1,0.6136790500022471,2.614619550004136,decreament,0.6,11,standard,None,100,,,,,,,,m,23,201,en,r,0,raw,2022-05-03_11h14.46.709,oddball,2022.1.2,59.9631466486753,
5,,,,,0,0,0,1,8,0,8,0,25,0,25,0,,,,,,,,,,,,,,,,,1267.8742897000047,None,1268.4412522000493,1269.0415114000207,1269.0250336000463,1271.0254614000442,None,1,0.6139611500548199,2.6143493500421755,decreament,0.6,11,standard,None,100,,,,,,,,m,23,201,en,r,0,raw,2022-05-03_11h14.46.709,oddball,2022.1.2,59.9631466486753,
5,,,,,0,0,0,1,8,0,8,0,26,0,26,0,,,,,,,,,,,,,,,,,1271.042255300039,None,1271.7930459000054,1272.3925509000546,1272.3761799000204,1274.3769877000013,None,1,0.6107288500061259,2.6116057500476018,decreament,0.6,11,standard,None,100,,,,,,,,m,23,201,en,r,0,raw,2022-05-03_11h14.46.709,oddball,2022.1.2,59.9631466486753,
5,,,,,0,0,0,1,8,0,8,0,27,0,27,0,,,,,,,,,,,,,,,,,1274.3933799000224,None,1275.0770754000405,1275.327010500012,1275.2936552000465,1277.2943564000307,j,1,0.24778055003844202,2.2484686500392854,decreament,0.24,12,oddball,j,40,0.5617293000104837,,,,,,,m,23,201,en,r,0,raw,2022-05-03_11h14.46.709,oddball,2022.1.2,59.9631466486753,
5,,,,,0,0,0,1,8,0,8,0,28,0,28,0,,,,,,,,,,,,,,,,,1277.3113340000273,None,1277.9117338000215,1278.51155450003,1278.4951919000014,1280.4957687000278,j,0,0.6130283500533551,2.6135769500397146,decreament,0.6,11,standard,None,100,0.7766216999734752,,,,,,,m,23,201,en,r,0,raw,2022-05-03_11h14.46.709,oddball,2022.1.2,59.9631466486753,
5,,,,,0,0,0,1,8,0,8,0,29,0,29,0,,,,,,,,,,,,,,,,,1280.5125056000543,None,1281.0957589000463,1281.6960589000373,1281.6796952000004,1283.6805326000322,None,1,0.6145304500241764,2.6153954500332475,decreament,0.6,11,standard,None,100,,,,,,,,m,23,201,en,r,0,raw,2022-05-03_11h14.46.709,oddball,2022.1.2,59.9631466486753,
5,,,,,0,0,0,1,9,0,9,0,0,0,0,0,,,,,,,,,,,,,,,1286.8251534000156,None,1309.1400575000443,None,1309.8237939000246,1310.4240820000414,1310.4071200000471,1312.4080570000224,None,1,0.6123173500527628,2.613262150029186,increament,0.6,15,standard,None,100,,1283.6971958000213,None,,,,,m,23,201,en,r,0,raw,2022-05-03_11h14.46.709,oddball,2022.1.2,59.9631466486753,
5,,,,,0,0,0,1,9,0,9,0,1,0,1,0,,,,,,,,,,,,,,,,,1312.424352300004,None,1313.1247668000287,1313.7248996000271,1313.7081975000328,1315.70948640001,None,1,0.6121094499831088,2.613468350027688,increament,0.6,15,standard,None,100,,,,,,,,m,23,201,en,r,0,raw,2022-05-03_11h14.46.709,oddball,2022.1.2,59.9631466486753,
5,,,,,0,0,0,1,9,0,9,0,2,0,2,0,,,,,,,,,,,,,,,,,1315.7259269000497,None,1316.2760745999985,1316.8761944000144,1316.8594185000402,1318.8603148999973,None,1,0.6135266500641592,2.61442255001748,increament,0.6,15,standard,None,100,,,,,,,,m,23,201,en,r,0,raw,2022-05-03_11h14.46.709,oddball,2022.1.2,59.9631466486753,
5,,,,,0,0,0,1,9,0,9,0,3,0,3,0,,,,,,,,,,,,,,,,,1318.876934,None,1319.577358300041,1320.1776717000175,1320.161124300037,1322.1614989000373,None,1,0.6126195500255562,2.6128102500224486,increament,0.6,15,standard,None,100,,,,,,,,m,23,201,en,r,0,raw,2022-05-03_11h14.46.709,oddball,2022.1.2,59.9631466486753,
5,,,,,0,0,0,1,9,0,9,0,4,0,4,0,,,,,,,,,,,,,,,,,1322.1781909000129,None,1322.8787419000291,1323.4788228000398,1323.4623119000462,1325.4630442000343,None,1,0.6136010500486009,2.6143416500417516,increament,0.6,15,standard,None,100,,,,,,,,m,23,201,en,r,0,raw,2022-05-03_11h14.46.709,oddball,2022.1.2,59.9631466486753,
5,,,,,0,0,0,1,9,0,9,0,5,0,5,0,,,,,,,,,,,,,,,,,1325.4794462000136,None,1326.029826300044,1326.9967276000534,1326.9632929000072,1328.9642731000204,j,1,0.9631782500073314,2.9641648500110023,increament,0.96,18,oddball,j,160,0.35626230004709214,,,,,,,m,23,201,en,r,0,raw,2022-05-03_11h14.46.709,oddball,2022.1.2,59.9631466486753,
5,,,,,0,0,0,1,9,0,9,0,6,0,6,0,,,,,,,,,,,,,,,,,1328.9808527000132,None,1329.6643503000378,1330.2650048000505,1330.2486802000203,1332.2486538000521,None,1,0.6150512500316836,2.614973650081083,increament,0.6,15,standard,None,100,,,,,,,,m,23,201,en,r,0,raw,2022-05-03_11h14.46.709,oddball,2022.1.2,59.9631466486753,
5,,,,,0,0,0,1,9,0,9,0,7,0,7,0,,,,,,,,,,,,,,,,,1332.2653091000393,None,1332.9992280000006,1333.5991535000503,1333.5825560000376,1335.58350420004,None,1,0.6128285500453785,2.6137993500451557,increament,0.6,15,standard,None,100,,,,,,,,m,23,201,en,r,0,raw,2022-05-03_11h14.46.709,oddball,2022.1.2,59.9631466486753,
5,,,,,0,0,0,1,9,0,9,0,8,0,8,0,,,,,,,,,,,,,,,,,1335.6001822000253,None,1336.1999202000443,1336.8003208000446,1336.7837834000238,1338.7842213000404,None,1,0.6149030500091612,2.6153125500422902,increament,0.6,15,standard,None,100,,,,,,,,m,23,201,en,r,0,raw,2022-05-03_11h14.46.709,oddball,2022.1.2,59.9631466486753,
5,,,,,0,0,0,1,9,0,9,0,9,0,9,0,,,,,,,,,,,,,,,,,1338.8010544000426,None,1339.4182435000548,1340.0187484000344,1340.0016800000449,1342.0024523000466,None,1,0.6134198500658385,2.6142182500334457,increament,0.6,15,standard,None,100,,,,,,,,m,23,201,en,r,0,raw,2022-05-03_11h14.46.709,oddball,2022.1.2,59.9631466486753,
5,,,,,0,0,0,1,9,0,9,0,10,0,10,0,,,,,,,,,,,,,,,,,1342.0191607000306,None,1342.5858760999981,1343.185968600039,1343.169433800038,1345.1700935000554,None,1,0.6139451500494033,2.6146203500102274,increament,0.6,15,standard,None,100,,,,,,,,m,23,201,en,r,0,raw,2022-05-03_11h14.46.709,oddball,2022.1.2,59.9631466486753,
5,,,,,0,0,0,1,9,0,9,0,11,0,11,0,,,,,,,,,,,,,,,,,1345.1869907000219,None,1345.7872913000174,1346.3873181000235,1346.3706347000552,1348.3716711000307,None,1,0.6122502500074916,2.613429350021761,increament,0.6,15,standard,None,100,,,,,,,,m,23,201,en,r,0,raw,2022-05-03_11h14.46.709,oddball,2022.1.2,59.9631466486753,
5,,,,,0,0,0,1,9,0,9,0,12,0,12,0,,,,,,,,,,,,,,,,,1348.3882404000033,None,1349.038442500052,1349.6387567000347,1349.6221954000066,1351.6226295000524,None,1,0.6135105499997735,2.613944450044073,increament,0.6,15,standard,None,100,,,,,,,,m,23,201,en,r,0,raw,2022-05-03_11h14.46.709,oddball,2022.1.2,59.9631466486753,
5,,,,,0,0,0,1,9,0,9,0,13,0,13,0,,,,,,,,,,,,,,,,,1351.639636100037,None,1352.2064412000473,1352.8067390000215,1352.7900732000126,1354.7903666000348,None,1,0.6128785499604419,2.6130915499525145,increament,0.6,15,standard,None,100,,,,,,,,m,23,201,en,r,0,raw,2022-05-03_11h14.46.709,oddball,2022.1.2,59.9631466486753,
5,,,,,0,0,0,1,9,0,9,0,14,0,14,0,,,,,,,,,,,,,,,,,1354.8071364000207,None,1355.4745934000239,1356.0746997000533,1356.0578671000549,1358.0585187000106,None,1,0.613451850018464,2.6140621500089765,increament,0.6,15,standard,None,100,,,,,,,,m,23,201,en,r,0,raw,2022-05-03_11h14.46.709,oddball,2022.1.2,59.9631466486753,
5,,,,,0,0,0,1,9,0,9,0,15,0,15,0,,,,,,,,,,,,,,,,,1358.075092300016,None,1358.8420090000145,1359.4420091000502,1359.4256318000262,1361.4268019000301,None,1,0.6108778499765322,2.6121964500052854,increament,0.6,15,standard,None,100,,,,,,,,m,23,201,en,r,0,raw,2022-05-03_11h14.46.709,oddball,2022.1.2,59.9631466486753,
5,,,,,0,0,0,1,9,0,9,0,16,0,16,0,,,,,,,,,,,,,,,,,1361.4433125000214,None,1361.9599878000445,1362.5600946000195,1362.5435226000263,1364.5446125000017,None,1,0.6130325499689206,2.614179649972357,increament,0.6,15,standard,None,100,,,,,,,,m,23,201,en,r,0,raw,2022-05-03_11h14.46.709,oddball,2022.1.2,59.9631466486753,
5,,,,,0,0,0,1,9,0,9,0,17,0,17,0,,,,,,,,,,,,,,,,,1364.5621065000305,None,1365.1446606000536,1365.7446821000194,1365.7281891000457,1367.7287292000256,None,1,0.6134553499869071,2.6140229500015266,increament,0.6,15,standard,None,100,,,,,,,,m,23,201,en,r,0,raw,2022-05-03_11h14.46.709,oddball,2022.1.2,59.9631466486753,
5,,,,,0,0,0,1,9,0,9,0,18,0,18,0,,,,,,,,,,,,,,,,,1367.7454858000274,None,1368.4627624000423,1369.0626474000164,1369.0459721000516,1371.046789700049,None,1,0.6111751500284299,2.6119900500634685,increament,0.6,15,standard,None,100,,,,,,,,m,23,201,en,r,0,raw,2022-05-03_11h14.46.709,oddball,2022.1.2,59.9631466486753,
5,,,,,0,0,0,1,9,0,9,0,19,0,19,0,,,,,,,,,,,,,,,,,1371.063501800003,None,1371.7635873000254,1372.3637555000023,1372.3472750000074,1374.3475973000168,None,1,0.6140514500439167,2.614350150048267,increament,0.6,15,standard,None,100,,,,,,,,m,23,201,en,r,0,raw,2022-05-03_11h14.46.709,oddball,2022.1.2,59.9631466486753,
5,,,,,0,0,0,1,9,0,9,0,20,0,20,0,,,,,,,,,,,,,,,,,1374.36438860005,None,1374.982103300048,1375.7151684000273,1375.6817456000135,1377.6824615000514,None,0,0.7277152500464581,2.7284114500507712,increament,0.72,16,oddball,j,120,,,,,,,,m,23,201,en,r,0,raw,2022-05-03_11h14.46.709,oddball,2022.1.2,59.9631466486753,
5,,,,,0,0,0,1,9,0,9,0,21,0,21,0,,,,,,,,,,,,,,,,,1377.6994158000452,None,1378.5329101000098,1379.1330449000234,1379.1169545000303,1381.1171792000532,None,1,0.6148378500365652,2.615039950062055,increament,0.6,15,standard,None,100,,,,,,,,m,23,201,en,r,0,raw,2022-05-03_11h14.46.709,oddball,2022.1.2,59.9631466486753,
5,,,,,0,0,0,1,9,0,9,0,22,0,22,0,,,,,,,,,,,,,,,,,1381.1340888999985,None,1381.934384000022,1382.5345413000323,1382.518021100026,1384.5185495000333,None,1,0.6114077499951236,2.6118796500377357,increament,0.6,15,standard,None,100,,,,,,,,m,23,201,en,r,0,raw,2022-05-03_11h14.46.709,oddball,2022.1.2,59.9631466486753,
5,,,,,0,0,0,1,9,0,9,0,23,0,23,0,,,,,,,,,,,,,,,,,1384.5350898000179,None,1385.2689511000062,1385.869156300032,1385.8526144000352,1387.8533446000074,None,1,0.613681250018999,2.6144143500132486,increament,0.6,15,standard,None,100,,,,,,,,m,23,201,en,r,0,raw,2022-05-03_11h14.46.709,oddball,2022.1.2,59.9631466486753,
5,,,,,0,0,0,1,9,0,9,0,24,0,24,0,,,,,,,,,,,,,,,,,1387.870880100003,None,1388.5202466000337,1389.1207070000237,1389.1037270000088,1391.104555100028,None,1,0.610105250030756,2.610923550033476,increament,0.6,15,standard,None,100,,,,,,,,m,23,201,en,r,0,raw,2022-05-03_11h14.46.709,oddball,2022.1.2,59.9631466486753,
5,,,,,0,0,0,1,9,0,9,0,25,0,25,0,,,,,,,,,,,,,,,,,1391.120934400009,None,1391.854518600041,1392.704748500022,1392.6715336000198,1394.6721893000067,j,1,0.8479460500529967,2.848560950020328,increament,0.84,17,oddball,j,140,0.7841765000484884,,,,,,,m,23,201,en,r,0,raw,2022-05-03_11h14.46.709,oddball,2022.1.2,59.9631466486753,
5,,,,,0,0,0,1,9,0,9,0,26,0,26,0,,,,,,,,,,,,,,,,,1394.6887926000054,None,1395.3392936000018,1395.9392758000176,1395.923207600019,1397.9236464000423,None,1,0.6129792500287294,2.613445950031746,increament,0.6,15,standard,None,100,,,,,,,,m,23,201,en,r,0,raw,2022-05-03_11h14.46.709,oddball,2022.1.2,59.9631466486753,
5,,,,,0,0,0,1,9,0,9,0,27,0,27,0,,,,,,,,,,,,,,,,,1397.9403349000495,None,1398.5904834000394,1399.190597800014,1399.174007499998,1401.1747061000206,None,1,0.6145055500674061,2.6151942500728182,increament,0.6,15,standard,None,100,,,,,,,,m,23,201,en,r,0,raw,2022-05-03_11h14.46.709,oddball,2022.1.2,59.9631466486753,
5,,,,,0,0,0,1,9,0,9,0,28,0,28,0,,,,,,,,,,,,,,,,,1401.191729800019,None,1401.775428300025,1402.3754731000517,1402.3592438000487,1404.3593570000376,None,1,0.6135565500590019,2.6135956500656903,increament,0.6,15,standard,None,100,,,,,,,,m,23,201,en,r,0,raw,2022-05-03_11h14.46.709,oddball,2022.1.2,59.9631466486753,
5,,,,,0,0,0,1,9,0,9,0,29,0,29,0,,,,,,,,,,,,,,,,,1404.3760447000386,None,1405.0261226000148,1405.6265437999973,1405.6102333000163,1407.6109634000459,None,1,0.6150868500699289,2.6158217500778846,increament,0.6,15,standard,None,100,,,,,,,,m,23,201,en,r,0,raw,2022-05-03_11h14.46.709,oddball,2022.1.2,59.9631466486753,
20,,,,,0,1,1,3,0,0,0,0,0,0,0,0,,,,,,,,,,,,,,,1593.930986899999,None,1601.2672130000428,None,1601.9840998,1602.584186000051,1602.5677853000234,1604.5687895000447,None,1,0.6138259500730783,2.6149137500906363,decreament,0.6,41,standard,None,100,,1587.6620265000383,None,1407.6535817999975,None,,,m,23,201,en,r,0,raw,2022-05-03_11h14.46.709,oddball,2022.1.2,59.9631466486753,
20,,,,,0,1,1,3,0,0,0,0,1,0,1,0,,,,,,,,,,,,,,,,,1604.586943900038,None,1605.318959199998,1605.9187374000321,1605.9023446000065,1607.9032047000364,None,1,0.6133714499883354,2.614283750008326,decreament,0.6,41,standard,None,100,,,,,,,,m,23,201,en,r,0,raw,2022-05-03_11h14.46.709,oddball,2022.1.2,59.9631466486753,
20,,,,,0,1,1,3,0,0,0,0,2,0,2,0,,,,,,,,,,,,,,,,,1607.9199412000016,None,1608.553279600048,1609.1538402000442,1609.1371104000136,1611.1377010000288,None,1,0.6133812500047497,2.6139334500185214,decreament,0.6,41,standard,None,100,,,,,,,,m,23,201,en,r,0,raw,2022-05-03_11h14.46.709,oddball,2022.1.2,59.9631466486753,
20,,,,,0,1,1,3,0,0,0,0,3,0,3,0,,,,,,,,,,,,,,,,,1611.1542596000363,None,1611.787845200044,1612.3884128000354,1612.3717084000236,1614.3718801000505,None,1,0.6139076499966905,2.6140292499912903,decreament,0.6,41,standard,None,100,,,,,,,,m,23,201,en,r,0,raw,2022-05-03_11h14.46.709,oddball,2022.1.2,59.9631466486753,
20,,,,,0,1,1,3,0,0,0,0,4,0,4,0,,,,,,,,,,,,,,,,,1614.388571700023,None,1615.039162800007,1615.639259700023,1615.622664000024,1617.623283700028,None,1,0.6106027500354685,2.611222550040111,decreament,0.6,41,standard,None,100,,,,,,,,m,23,201,en,r,0,raw,2022-05-03_11h14.46.709,oddball,2022.1.2,59.9631466486753,
20,,,,,0,1,1,3,0,0,0,0,5,0,5,0,,,,,,,,,,,,,,,,,1617.6401522000087,None,1618.1908757000347,1618.7906920000096,1618.7738753000158,1620.7742286000284,None,1,0.6107089499710128,2.610973250004463,decreament,0.6,41,standard,None,100,,,,,,,,m,23,201,en,r,0,raw,2022-05-03_11h14.46.709,oddball,2022.1.2,59.9631466486753,
20,,,,,0,1,1,3,0,0,0,0,6,0,6,0,,,,,,,,,,,,,,,,,1620.790891200013,None,1621.3748062000377,1621.9747921000235,1621.9581822000328,1623.9591734000132,None,1,0.6129092500195839,2.6139391500037163,decreament,0.6,41,standard,None,100,,,,,,,,m,23,201,en,r,0,raw,2022-05-03_11h14.46.709,oddball,2022.1.2,59.9631466486753,
20,,,,,0,1,1,3,0,0,0,0,7,0,7,0,,,,,,,,,,,,,,,,,1623.975874100055,None,1624.592600700038,1625.1927313000197,1625.1594824000495,1627.160471500014,None,1,0.6154820500523783,2.6171329500502907,decreament,0.6,41,standard,None,100,,,,,,,,m,23,201,en,r,0,raw,2022-05-03_11h14.46.709,oddball,2022.1.2,59.9631466486753,
20,,,,,0,1,1,3,0,0,0,0,8,0,8,0,,,,,,,,,,,,,,,,,1627.1947376000462,None,1627.8109848000458,1628.294372400036,1628.261231100012,1630.261672200053,j,1,0.48046844999771565,2.480878250033129,decreament,0.48,44,oddball,j,80,0.631898999970872,,,,,,,m,23,201,en,r,0,raw,2022-05-03_11h14.46.709,oddball,2022.1.2,59.9631466486753,
20,,,,,0,1,1,3,0,0,0,0,9,0,9,0,,,,,,,,,,,,,,,,,1630.2784537000116,None,1630.8785478000063,1631.478858700022,1631.4622044000425,1633.4625582000008,None,1,0.6142586499918252,2.614508550032042,decreament,0.6,41,standard,None,100,,,,,,,,m,23,201,en,r,0,raw,2022-05-03_11h14.46.709,oddball,2022.1.2,59.9631466486753,
20,,,,,0,1,1,3,0,0,0,0,10,0,10,0,,,,,,,,,,,,,,,,,1633.4791910000495,None,1634.1298522000434,1634.7302320000017,1634.7135659000487,1636.7141434000223,None,1,0.6123675500275567,2.612889050040394,decreament,0.6,41,standard,None,100,,,,,,,,m,23,201,en,r,0,raw,2022-05-03_11h14.46.709,oddball,2022.1.2,59.9631466486753,
20,,,,,0,1,1,3,0,0,0,0,11,0,11,0,,,,,,,,,,,,,,,,,1636.7305708000204,None,1637.4481099999975,1638.04745990003,1638.0308324000216,1640.0321285000537,None,1,0.6124664500239305,2.6137968500261195,decreament,0.6,41,standard,None,100,,,,,,,,m,23,201,en,r,0,raw,2022-05-03_11h14.46.709,oddball,2022.1.2,59.9631466486753,
20,,,,,0,1,1,3,0,0,0,0,12,0,12,0,,,,,,,,,,,,,,,,,1640.0485742000164,None,1640.7156892000348,1640.9659340000362,1640.9322033000062,1642.9329016000265,j,1,0.24373285006731749,2.244431550090667,decreament,0.24,42,oddball,j,40,0.5934451000066474,,,,,,,m,23,201,en,r,0,raw,2022-05-03_11h14.46.709,oddball,2022.1.2,59.9631466486753,
20,,,,,0,1,1,3,0,0,0,0,13,0,13,0,,,,,,,,,,,,,,,,,1642.9500274000457,None,1643.6333641000092,1644.2333493000478,1644.2170086000115,1646.2179517000332,None,1,0.6139240500051528,2.614968250039965,decreament,0.6,41,standard,None,100,,,,,,,,m,23,201,en,r,0,raw,2022-05-03_11h14.46.709,oddball,2022.1.2,59.9631466486753,
20,,,,,0,1,1,3,0,0,0,0,14,0,14,0,,,,,,,,,,,,,,,,,1646.2356999000185,None,1646.8014859000104,1647.4013710000436,1647.3852486000396,1649.3856418000069,None,1,0.6137742500286549,2.6141229500062764,decreament,0.6,41,standard,None,100,,,,,,,,m,23,201,en,r,0,raw,2022-05-03_11h14.46.709,oddball,2022.1.2,59.9631466486753,
