grating_freq,blocks_prac.thisRepN,blocks_prac.thisTrialN,blocks_prac.thisN,blocks_prac.thisIndex,blocks.thisRepN,blocks.thisTrialN,blocks.thisN,blocks.thisIndex,repeat_freq.thisRepN,repeat_freq.thisTrialN,repeat_freq.thisN,repeat_freq.thisIndex,trials.thisRepN,trials.thisTrialN,trials.thisN,trials.thisIndex,break_loop.thisRepN,break_loop.thisTrialN,break_loop.thisN,break_loop.thisIndex,rest_loop.thisRepN,rest_loop.thisTrialN,rest_loop.thisN,rest_loop.thisIndex,instruct_prac_text.started,instruct_prac_text.stopped,b_instruct_text_2_.started,b_instruct_text_2_.stopped,prac_done_text.started,prac_done_text.stopped,instruct_text.started,instruct_text.stopped,fixation.started,fixation.stopped,grating.started,grating.stopped,blank.started,blank.stopped,resp.keys,resp.corr,resp.started,resp.stopped,direction,duration,trigger,stim_type,corr_ans,scaling,resp.rt,rest_text.started,rest_text.stopped,text_2.started,text_2.stopped,thx_txt.started,thx_txt.stopped,gender,age,participant,language,main_hand,nBlock_prac,file_suffix,date,expName,psychopyVersion,frameRate,
5,,,,,0,0,0,1,0,0,0,0,0,0,0,0,,,,,,,,,50.72404060000554,None,57.25075459992513,None,93.74736990011297,None,107.58398479991592,None,110.63725690008141,None,111.29934610007331,111.90429019997828,111.85482769994996,113.85509219998494,None,1,0.6086025000549853,2.6087966000195593,decreament,0.6,11,standard,None,100,,,,,,,,f,22,204,fr,r,0,raw,2022-05-17_10h38.02.742,oddball,2022.1.2,60.01644449127052,
5,,,,,0,0,0,1,0,0,0,0,1,0,1,0,,,,,,,,,,,,,,,,,113.87217939994298,None,114.52197870006785,115.12230599997565,115.10566219990142,117.10636539990082,None,1,0.6123201998416334,2.613015699898824,decreament,0.6,11,standard,None,100,,,,,,,,f,22,204,fr,r,0,raw,2022-05-17_10h38.02.742,oddball,2022.1.2,60.01644449127052,
5,,,,,0,0,0,1,0,0,0,0,2,0,2,0,,,,,,,,,,,,,,,,,117.12300150003284,None,117.70659930002876,118.30700609995984,118.29054159997031,120.29071280010976,None,1,0.6082567998673767,2.6083499998785555,decreament,0.6,11,standard,None,100,,,,,,,,f,22,204,fr,r,0,raw,2022-05-17_10h38.02.742,oddball,2022.1.2,60.01644449127052,
5,,,,,0,0,0,1,0,0,0,0,3,0,3,0,,,,,,,,,,,,,,,,,120.30746229994111,None,120.89124020002782,121.49163480009884,121.47520300000906,123.47562390007079,None,1,0.6124009001068771,2.6128240001853555,decreament,0.6,11,standard,None,100,,,,,,,,f,22,204,fr,r,0,raw,2022-05-17_10h38.02.742,oddball,2022.1.2,60.01644449127052,
5,,,,,0,0,0,1,0,0,0,0,4,0,4,0,,,,,,,,,,,,,,,,,123.49220849992707,None,124.15927679999731,124.75915329996496,124.74259790009819,126.74326099990867,None,1,0.6091535000596195,2.6098142000846565,decreament,0.6,11,standard,None,100,,,,,,,,f,22,204,fr,r,0,raw,2022-05-17_10h38.02.742,oddball,2022.1.2,60.01644449127052,
5,,,,,0,0,0,1,0,0,0,0,5,0,5,0,,,,,,,,,,,,,,,,,126.75996739999391,None,127.56014050007798,128.16064919997007,128.14398310007527,130.14455400011502,None,1,0.6129795000888407,2.6135128000751138,decreament,0.6,11,standard,None,100,,,,,,,,f,22,204,fr,r,0,raw,2022-05-17_10h38.02.742,oddball,2022.1.2,60.01644449127052,
5,,,,,0,0,0,1,0,0,0,0,6,0,6,0,,,,,,,,,,,,,,,,,130.16116379993036,None,130.77802480012178,131.26187930000015,131.22857660008594,133.2289088999387,j,1,0.4803593000397086,2.4806542999576777,decreament,0.48,14,oddball,j,80,0.6878662998788059,,,,,,,f,22,204,fr,r,0,raw,2022-05-17_10h38.02.742,oddball,2022.1.2,60.01644449127052,
5,,,,,0,0,0,1,0,0,0,0,7,0,7,0,,,,,,,,,,,,,,,,,133.24554869998246,None,133.76271530007944,134.3630661999341,134.34606279991567,136.3468522001058,None,1,0.6125719000119716,2.6133379000239074,decreament,0.6,11,standard,None,100,,,,,,,,f,22,204,fr,r,0,raw,2022-05-17_10h38.02.742,oddball,2022.1.2,60.01644449127052,
5,,,,,0,0,0,1,0,0,0,0,8,0,8,0,,,,,,,,,,,,,,,,,136.3636300000362,None,136.96387269999832,137.56415520003065,137.54754519998096,139.548243700061,None,1,0.6123753001447767,2.613063800148666,decreament,0.6,11,standard,None,100,,,,,,,,f,22,204,fr,r,0,raw,2022-05-17_10h38.02.742,oddball,2022.1.2,60.01644449127052,
5,,,,,0,0,0,1,0,0,0,0,9,0,9,0,,,,,,,,,,,,,,,,,139.56477769999765,None,140.13166600000113,140.73205920006149,140.7154524999205,142.71623039990664,None,1,0.6129622000735253,2.6137916001025587,decreament,0.6,11,standard,None,100,,,,,,,,f,22,204,fr,r,0,raw,2022-05-17_10h38.02.742,oddball,2022.1.2,60.01644449127052,
5,,,,,0,0,0,1,0,0,0,0,10,0,10,0,,,,,,,,,,,,,,,,,142.73249049996957,None,143.29978649993427,143.8996005000081,143.88309990009293,145.8844695999287,None,1,0.6115337999071926,2.6129900999367237,decreament,0.6,11,standard,None,100,,,,,,,,f,22,204,fr,r,0,raw,2022-05-17_10h38.02.742,oddball,2022.1.2,60.01644449127052,
5,,,,,0,0,0,1,0,0,0,0,11,0,11,0,,,,,,,,,,,,,,,,,145.90336579992436,None,146.43418180011213,147.0343692000024,147.0175950000994,149.01841220003553,j,0,0.6118681998923421,2.6126978998072445,decreament,0.6,11,standard,None,100,0.724282099865377,,,,,,,f,22,204,fr,r,0,raw,2022-05-17_10h38.02.742,oddball,2022.1.2,60.01644449127052,
5,,,,,0,0,0,1,0,0,0,0,12,0,12,0,,,,,,,,,,,,,,,,,149.03509679995477,None,149.75202020001598,150.35258299997076,150.33602280006744,152.33632940007374,None,1,0.6131764000747353,2.613384800031781,decreament,0.6,11,standard,None,100,,,,,,,,f,22,204,fr,r,0,raw,2022-05-17_10h38.02.742,oddball,2022.1.2,60.01644449127052,
5,,,,,0,0,0,1,0,0,0,0,13,0,13,0,,,,,,,,,,,,,,,,,152.352985000005,None,153.0364693000447,153.403288600035,153.37078309990466,155.37086119991727,j,1,0.36416300013661385,2.364182900171727,decreament,0.36,13,oddball,j,60,1.0494439997710288,,,,,,,f,22,204,fr,r,0,raw,2022-05-17_10h38.02.742,oddball,2022.1.2,60.01644449127052,
5,,,,,0,0,0,1,0,0,0,0,14,0,14,0,,,,,,,,,,,,,,,,,155.38745760009624,None,156.13806629995815,156.73823109990917,156.72184529993683,158.72253670007922,None,1,0.6101172999478877,2.610811399994418,decreament,0.6,11,standard,None,100,,,,,,,,f,22,204,fr,r,0,raw,2022-05-17_10h38.02.742,oddball,2022.1.2,60.01644449127052,
5,,,,,0,0,0,1,0,0,0,0,15,0,15,0,,,,,,,,,,,,,,,,,158.73961749998853,None,159.35565100004897,159.95569969993085,159.93916240008548,161.94002320012078,None,1,0.6133152998518199,2.6142432999331504,decreament,0.6,11,standard,None,100,,,,,,,,f,22,204,fr,r,0,raw,2022-05-17_10h38.02.742,oddball,2022.1.2,60.01644449127052,
5,,,,,0,0,0,1,0,0,0,0,16,0,16,0,,,,,,,,,,,,,,,,,161.9569266999606,None,162.5734798000194,163.17376279993914,163.15764029999264,165.1577761999797,None,1,0.613905499689281,2.613968499703333,decreament,0.6,11,standard,None,100,,,,,,,,f,22,204,fr,r,0,raw,2022-05-17_10h38.02.742,oddball,2022.1.2,60.01644449127052,
5,,,,,0,0,0,1,0,0,0,0,17,0,17,0,,,,,,,,,,,,,,,,,165.17455599992536,None,165.77460910007358,166.37492080009542,166.3585075000301,168.35936430003494,None,1,0.6130157001316547,2.613946600118652,decreament,0.6,11,standard,None,100,,,,,,,,f,22,204,fr,r,0,raw,2022-05-17_10h38.02.742,oddball,2022.1.2,60.01644449127052,
5,,,,,0,0,0,1,0,0,0,0,18,0,18,0,,,,,,,,,,,,,,,,,168.37609850009903,None,168.9926620000042,169.5930522000417,169.57644210010767,171.57690729992464,None,1,0.6106263000983745,2.6110735000111163,decreament,0.6,11,standard,None,100,,,,,,,,f,22,204,fr,r,0,raw,2022-05-17_10h38.02.742,oddball,2022.1.2,60.01644449127052,
5,,,,,0,0,0,1,0,0,0,0,19,0,19,0,,,,,,,,,,,,,,,,,171.59360040002503,None,172.24426629999653,172.843889700016,172.82741390005685,174.82842139992863,None,1,0.6126711999531835,2.6137187001295388,decreament,0.6,11,standard,None,100,,,,,,,,f,22,204,fr,r,0,raw,2022-05-17_10h38.02.742,oddball,2022.1.2,60.01644449127052,
5,,,,,0,0,0,1,0,0,0,0,20,0,20,0,,,,,,,,,,,,,,,,,174.84486089996062,None,175.4617693000473,175.71182400011458,175.67849440011196,177.6792389000766,j,1,0.24586009979248047,2.2465867998544127,decreament,0.24,12,oddball,j,40,0.9496431997977197,,,,,,,f,22,204,fr,r,0,raw,2022-05-17_10h38.02.742,oddball,2022.1.2,60.01644449127052,
5,,,,,0,0,0,1,0,0,0,0,21,0,21,0,,,,,,,,,,,,,,,,,177.6959085999988,None,178.3295529000461,178.93000099994242,178.91304460004903,180.9138440999668,None,1,0.612593200057745,2.6134045000653714,decreament,0.6,11,standard,None,100,,,,,,,,f,22,204,fr,r,0,raw,2022-05-17_10h38.02.742,oddball,2022.1.2,60.01644449127052,
5,,,,,0,0,0,1,0,0,0,0,22,0,22,0,,,,,,,,,,,,,,,,,180.93056189990602,None,181.53077930002473,182.13085700012743,182.1142847998999,184.1155397000257,None,1,0.6111077999230474,2.6124407998286188,decreament,0.6,11,standard,None,100,,,,,,,,f,22,204,fr,r,0,raw,2022-05-17_10h38.02.742,oddball,2022.1.2,60.01644449127052,
5,,,,,0,0,0,1,0,0,0,0,23,0,23,0,,,,,,,,,,,,,,,,,184.13242950011045,None,184.73209899989888,185.33234949992038,185.3154363001231,187.31602460006252,None,1,0.612716699950397,2.6133016000967473,decreament,0.6,11,standard,None,100,,,,,,,,f,22,204,fr,r,0,raw,2022-05-17_10h38.02.742,oddball,2022.1.2,60.01644449127052,
5,,,,,0,0,0,1,0,0,0,0,24,0,24,0,,,,,,,,,,,,,,,,,187.33317110012285,None,187.9332622999791,188.5335395000875,188.5171549001243,190.51768509997055,None,1,0.6129799999762326,2.6134852999821305,decreament,0.6,11,standard,None,100,,,,,,,,f,22,204,fr,r,0,raw,2022-05-17_10h38.02.742,oddball,2022.1.2,60.01644449127052,
5,,,,,0,0,0,1,0,0,0,0,25,0,25,0,,,,,,,,,,,,,,,,,190.534192699939,None,191.1512994999066,191.75164050003514,191.73497319989838,193.7352869999595,None,1,0.6129944997373968,2.6132610999047756,decreament,0.6,11,standard,None,100,,,,,,,,f,22,204,fr,r,0,raw,2022-05-17_10h38.02.742,oddball,2022.1.2,60.01644449127052,
5,,,,,0,0,0,1,0,0,0,0,26,0,26,0,,,,,,,,,,,,,,,,,193.75208320003003,None,194.38553220010363,194.98556989990175,194.96909089991823,196.96996739995666,None,1,0.611140999943018,2.612053799908608,decreament,0.6,11,standard,None,100,,,,,,,,f,22,204,fr,r,0,raw,2022-05-17_10h38.02.742,oddball,2022.1.2,60.01644449127052,
5,,,,,0,0,0,1,0,0,0,0,27,0,27,0,,,,,,,,,,,,,,,,,196.98675099993125,None,197.61990129994228,198.22048750007525,198.20444869995117,200.20434370008297,None,1,0.6141941999085248,2.6140089000109583,decreament,0.6,11,standard,None,100,,,,,,,,f,22,204,fr,r,0,raw,2022-05-17_10h38.02.742,oddball,2022.1.2,60.01644449127052,
5,,,,,0,0,0,1,0,0,0,0,28,0,28,0,,,,,,,,,,,,,,,,,200.22131990012713,None,200.82159700011835,201.42171079991385,201.4049502001144,203.40568480012007,None,1,0.609492399962619,2.610223999945447,decreament,0.6,11,standard,None,100,,,,,,,,f,22,204,fr,r,0,raw,2022-05-17_10h38.02.742,oddball,2022.1.2,60.01644449127052,
5,,,,,0,0,0,1,0,0,0,0,29,0,29,0,,,,,,,,,,,,,,,,,203.4223209999036,None,204.0726143999491,204.6730943999719,204.65613609994762,206.65720200003125,None,1,0.6119972998276353,2.613129099830985,decreament,0.6,11,standard,None,100,,,,,,,,f,22,204,fr,r,0,raw,2022-05-17_10h38.02.742,oddball,2022.1.2,60.01644449127052,
5,,,,,0,0,0,1,1,0,1,0,0,0,0,0,,,,,,,,,,,,,,,210.50809550005943,None,211.60867809993215,None,212.24261779990047,212.8425376000814,212.8257647000719,214.82681540003978,None,1,0.6095793996937573,2.610656699864194,increament,0.6,15,standard,None,100,,206.6767073001247,None,,,,,f,22,204,fr,r,0,raw,2022-05-17_10h38.02.742,oddball,2022.1.2,60.01644449127052,
5,,,,,0,0,0,1,1,0,1,0,1,0,1,0,,,,,,,,,,,,,,,,,214.84335809992626,None,215.62698450009339,216.22749560000375,216.21055889991112,218.21131650009193,None,1,0.6134957999456674,2.614268599776551,increament,0.6,15,standard,None,100,,,,,,,,f,22,204,fr,r,0,raw,2022-05-17_10h38.02.742,oddball,2022.1.2,60.01644449127052,
5,,,,,0,0,0,1,1,0,1,0,2,0,2,0,,,,,,,,,,,,,,,,,218.22817920008674,None,218.86160510010086,219.4621790999081,219.44535419996828,221.44590350007638,None,1,0.6139211996924132,2.614428899716586,increament,0.6,15,standard,None,100,,,,,,,,f,22,204,fr,r,0,raw,2022-05-17_10h38.02.742,oddball,2022.1.2,60.01644449127052,
5,,,,,0,0,0,1,1,0,1,0,3,0,3,0,,,,,,,,,,,,,,,,,221.46240520011634,None,222.01286159991287,222.61303190002218,222.59643050003797,224.59700100007467,None,1,0.6130320997908711,2.6136183999478817,increament,0.6,15,standard,None,100,,,,,,,,f,22,204,fr,r,0,raw,2022-05-17_10h38.02.742,oddball,2022.1.2,60.01644449127052,
5,,,,,0,0,0,1,1,0,1,0,4,0,4,0,,,,,,,,,,,,,,,,,224.6137234000489,None,225.24719269992784,225.84753599995747,225.83081359998323,227.83147249999456,None,1,0.61346699972637,2.6141322997864336,increament,0.6,15,standard,None,100,,,,,,,,f,22,204,fr,r,0,raw,2022-05-17_10h38.02.742,oddball,2022.1.2,60.01644449127052,
5,,,,,0,0,0,1,1,0,1,0,5,0,5,0,,,,,,,,,,,,,,,,,227.8483994998969,None,228.465365299955,229.06562480004504,229.0487516000867,231.0493598000612,None,1,0.6082168000284582,2.6087859999388456,increament,0.6,15,standard,None,100,,,,,,,,f,22,204,fr,r,0,raw,2022-05-17_10h38.02.742,oddball,2022.1.2,60.01644449127052,
5,,,,,0,0,0,1,1,0,1,0,6,0,6,0,,,,,,,,,,,,,,,,,231.06596009992063,None,231.59985060011968,232.19969210005365,232.18312479997985,234.18395090010017,None,1,0.610379999736324,2.6112198997288942,increament,0.6,15,standard,None,100,,,,,,,,f,22,204,fr,r,0,raw,2022-05-17_10h38.02.742,oddball,2022.1.2,60.01644449127052,
5,,,,,0,0,0,1,1,0,1,0,7,0,7,0,,,,,,,,,,,,,,,,,234.20044740010053,None,235.0011330000125,235.60123230004683,235.58461240003817,237.58559560007416,None,1,0.6116322001907974,2.6126957000233233,increament,0.6,15,standard,None,100,,,,,,,,f,22,204,fr,r,0,raw,2022-05-17_10h38.02.742,oddball,2022.1.2,60.01644449127052,
5,,,,,0,0,0,1,1,0,1,0,8,0,8,0,,,,,,,,,,,,,,,,,237.60360369994305,None,238.16909099998884,239.13596550002694,239.10250940010883,241.1035498001147,j,1,0.9591714998241514,2.960282299667597,increament,0.96,18,oddball,j,160,0.39007039996795356,,,,,,,f,22,204,fr,r,0,raw,2022-05-17_10h38.02.742,oddball,2022.1.2,60.01644449127052,
5,,,,,0,0,0,1,1,0,1,0,9,0,9,0,,,,,,,,,,,,,,,,,241.12242290005088,None,241.70385970012285,242.30353210004978,242.28718119999394,244.2880162000656,None,1,0.6111469997558743,2.6120936998631805,increament,0.6,15,standard,None,100,,,,,,,,f,22,204,fr,r,0,raw,2022-05-17_10h38.02.742,oddball,2022.1.2,60.01644449127052,
5,,,,,0,0,0,1,1,0,1,0,10,0,10,0,,,,,,,,,,,,,,,,,244.30477400007658,None,245.15479440009221,245.75512910005637,245.73872540006414,247.7393853000831,None,1,0.6085884000640363,2.6092544002458453,increament,0.6,15,standard,None,100,,,,,,,,f,22,204,fr,r,0,raw,2022-05-17_10h38.02.742,oddball,2022.1.2,60.01644449127052,
5,,,,,0,0,0,1,1,0,1,0,11,0,11,0,,,,,,,,,,,,,,,,,247.7558810999617,None,248.30625550006516,248.9061773000285,248.8895002999343,250.89041760005057,None,1,0.6116537998896092,2.6125797999557108,increament,0.6,15,standard,None,100,,,,,,,,f,22,204,fr,r,0,raw,2022-05-17_10h38.02.742,oddball,2022.1.2,60.01644449127052,
5,,,,,0,0,0,1,1,0,1,0,12,0,12,0,,,,,,,,,,,,,,,,,250.9071174999699,None,251.54096710006706,252.14070970006287,252.12410779995844,254.12511090002954,None,1,0.6122661998961121,2.6133443999569863,increament,0.6,15,standard,None,100,,,,,,,,f,22,204,fr,r,0,raw,2022-05-17_10h38.02.742,oddball,2022.1.2,60.01644449127052,
5,,,,,0,0,0,1,1,0,1,0,13,0,13,0,,,,,,,,,,,,,,,,,254.14168259990402,None,254.708675700007,255.30898010008968,255.29228930012323,257.29302400001325,None,1,0.6125103998929262,2.6132431000005454,increament,0.6,15,standard,None,100,,,,,,,,f,22,204,fr,r,0,raw,2022-05-17_10h38.02.742,oddball,2022.1.2,60.01644449127052,
5,,,,,0,0,0,1,1,0,1,0,14,0,14,0,,,,,,,,,,,,,,,,,257.3092499000486,None,257.9264599001035,258.6598704000935,258.6268662000075,260.6277509999927,None,0,0.7262020001653582,2.7271772001404315,increament,0.72,16,oddball,j,120,,,,,,,,f,22,204,fr,r,0,raw,2022-05-17_10h38.02.742,oddball,2022.1.2,60.01644449127052,
5,,,,,0,0,0,1,1,0,1,0,15,0,15,0,,,,,,,,,,,,,,,,,260.64536399999633,None,261.2108124999795,261.8110477000009,261.7946063999552,263.7957015999127,None,1,0.6127288001589477,2.613907099934295,increament,0.6,15,standard,None,100,,,,,,,,f,22,204,fr,r,0,raw,2022-05-17_10h38.02.742,oddball,2022.1.2,60.01644449127052,
5,,,,,0,0,0,1,1,0,1,0,16,0,16,0,,,,,,,,,,,,,,,,,263.8118197999429,None,264.3955393000506,264.9957111000549,264.9790147000458,266.9799021000508,None,1,0.6122429999522865,2.613163899863139,increament,0.6,15,standard,None,100,,,,,,,,f,22,204,fr,r,0,raw,2022-05-17_10h38.02.742,oddball,2022.1.2,60.01644449127052,
5,,,,,0,0,0,1,1,0,1,0,17,0,17,0,,,,,,,,,,,,,,,,,266.99645580002107,None,267.66337649989873,268.26358529995196,268.2472455999814,270.2478811000474,None,1,0.6130295000039041,2.613579299999401,increament,0.6,15,standard,None,100,,,,,,,,f,22,204,fr,r,0,raw,2022-05-17_10h38.02.742,oddball,2022.1.2,60.01644449127052,
5,,,,,0,0,0,1,1,0,1,0,18,0,18,0,,,,,,,,,,,,,,,,,270.26468780008145,None,270.9479740001261,271.5481221000664,271.53133870009333,273.5318503000308,None,1,0.6135168999899179,2.6140167999546975,increament,0.6,15,standard,None,100,,,,,,,,f,22,204,fr,r,0,raw,2022-05-17_10h38.02.742,oddball,2022.1.2,60.01644449127052,
5,,,,,0,0,0,1,1,0,1,0,19,0,19,0,,,,,,,,,,,,,,,,,273.5485350000672,None,274.19906209991314,274.7995502999984,274.78290440002456,276.78350730007514,None,1,0.6125892999116331,2.6131447998341173,increament,0.6,15,standard,None,100,,,,,,,,f,22,204,fr,r,0,raw,2022-05-17_10h38.02.742,oddball,2022.1.2,60.01644449127052,
5,,,,,0,0,0,1,1,0,1,0,20,0,20,0,,,,,,,,,,,,,,,,,276.8000461999327,None,277.33374439994805,277.93370179994963,277.91721049998887,279.9177010001149,j,0,0.6113428997341543,2.6118309998419136,increament,0.6,15,standard,None,100,0.48677109996788204,,,,,,,f,22,204,fr,r,0,raw,2022-05-17_10h38.02.742,oddball,2022.1.2,60.01644449127052,
5,,,,,0,0,0,1,1,0,1,0,21,0,21,0,,,,,,,,,,,,,,,,,279.9343216998968,None,280.5682242999319,281.4185111001134,281.3851467000786,283.38601260003634,None,0,0.8447668000590056,2.845675199991092,increament,0.84,17,oddball,j,140,,,,,,,,f,22,204,fr,r,0,raw,2022-05-17_10h38.02.742,oddball,2022.1.2,60.01644449127052,
5,,,,,0,0,0,1,1,0,1,0,22,0,22,0,,,,,,,,,,,,,,,,,283.40293499990366,None,284.0363825999666,284.63624559994787,284.6199459999334,286.62073890003376,None,1,0.6113094999454916,2.612210299819708,increament,0.6,15,standard,None,100,,,,,,,,f,22,204,fr,r,0,raw,2022-05-17_10h38.02.742,oddball,2022.1.2,60.01644449127052,
5,,,,,0,0,0,1,1,0,1,0,23,0,23,0,,,,,,,,,,,,,,,,,286.63865049998276,None,287.2707313001156,287.87122430000454,287.85466039995663,289.85484379995614,None,1,0.6097440999001265,2.6098446999676526,increament,0.6,15,standard,None,100,,,,,,,,f,22,204,fr,r,0,raw,2022-05-17_10h38.02.742,oddball,2022.1.2,60.01644449127052,
5,,,,,0,0,0,1,1,0,1,0,24,0,24,0,,,,,,,,,,,,,,,,,289.871637100121,None,290.538723600097,291.13917830004357,291.12258980004117,293.12324639991857,None,1,0.6124676999170333,2.6131255999207497,increament,0.6,15,standard,None,100,,,,,,,,f,22,204,fr,r,0,raw,2022-05-17_10h38.02.742,oddball,2022.1.2,60.01644449127052,
5,,,,,0,0,0,1,1,0,1,0,25,0,25,0,,,,,,,,,,,,,,,,,293.14002069993876,None,293.7900982000865,294.3900073999539,294.3733846999239,296.3743827000726,None,1,0.6103749999310821,2.6114409000147134,increament,0.6,15,standard,None,100,,,,,,,,f,22,204,fr,r,0,raw,2022-05-17_10h38.02.742,oddball,2022.1.2,60.01644449127052,
5,,,,,0,0,0,1,1,0,1,0,26,0,26,0,,,,,,,,,,,,,,,,,296.3911943999119,None,297.05799719993956,297.65800740011036,297.64160600001924,299.6423591999337,j,0,0.6122606999706477,2.6130326001439244,increament,0.6,15,standard,None,100,0.37896849983371794,,,,,,,f,22,204,fr,r,0,raw,2022-05-17_10h38.02.742,oddball,2022.1.2,60.01644449127052,
5,,,,,0,0,0,1,1,0,1,0,27,0,27,0,,,,,,,,,,,,,,,,,299.6587541999761,None,300.24278500000946,300.8424394999165,300.82623689994216,302.8268293000292,None,1,0.6100866999477148,2.610678899800405,increament,0.6,15,standard,None,100,,,,,,,,f,22,204,fr,r,0,raw,2022-05-17_10h38.02.742,oddball,2022.1.2,60.01644449127052,
5,,,,,0,0,0,1,1,0,1,0,28,0,28,0,,,,,,,,,,,,,,,,,302.84344800002873,None,303.51026019989513,304.1103517001029,304.09378840005957,306.0950442000758,None,1,0.6116905999369919,2.613033300032839,increament,0.6,15,standard,None,100,,,,,,,,f,22,204,fr,r,0,raw,2022-05-17_10h38.02.742,oddball,2022.1.2,60.01644449127052,
5,,,,,0,0,0,1,1,0,1,0,29,0,29,0,,,,,,,,,,,,,,,,,306.11118069989607,None,306.7952606000472,307.3952713999897,307.3787046999205,309.3790267999284,None,1,0.6106353998184204,2.610933599760756,increament,0.6,15,standard,None,100,,,,,,,,f,22,204,fr,r,0,raw,2022-05-17_10h38.02.742,oddball,2022.1.2,60.01644449127052,
5,,,,,0,0,0,1,2,0,2,0,0,0,0,0,,,,,,,,,,,,,,,314.6227333000861,None,315.5146141999867,None,316.182006200077,316.78188190003857,316.76535889995284,318.76647419994697,None,1,0.610563499853015,2.6117240998428315,decreament,0.6,11,standard,None,100,,309.39613320003264,None,,,,,f,22,204,fr,r,0,raw,2022-05-17_10h38.02.742,oddball,2022.1.2,60.01644449127052,
5,,,,,0,0,0,1,2,0,2,0,1,0,1,0,,,,,,,,,,,,,,,,,318.7839806000702,None,319.36673410004005,319.96637500007637,319.9497698000632,321.9505761999171,None,1,0.6092919001821429,2.6101273002568632,decreament,0.6,11,standard,None,100,,,,,,,,f,22,204,fr,r,0,raw,2022-05-17_10h38.02.742,oddball,2022.1.2,60.01644449127052,
5,,,,,0,0,0,1,2,0,2,0,2,0,2,0,,,,,,,,,,,,,,,,,321.9671618998982,None,322.55086799990386,323.1509398999624,323.1341973999515,325.13539319997653,None,1,0.6135827999096364,2.6148407999426126,decreament,0.6,11,standard,None,100,,,,,,,,f,22,204,fr,r,0,raw,2022-05-17_10h38.02.742,oddball,2022.1.2,60.01644449127052,
5,,,,,0,0,0,1,2,0,2,0,3,0,3,0,,,,,,,,,,,,,,,,,325.1516851999331,None,325.9691498000175,326.56896240008064,326.55224120011553,328.5536189000122,None,1,0.6081008997280151,2.6096067996695638,decreament,0.6,11,standard,None,100,,,,,,,,f,22,204,fr,r,0,raw,2022-05-17_10h38.02.742,oddball,2022.1.2,60.01644449127052,
5,,,,,0,0,0,1,2,0,2,0,4,0,4,0,,,,,,,,,,,,,,,,,328.5697602999862,None,329.3035206000786,329.90347480005585,329.8869300999213,331.88764329999685,None,1,0.6101339000742882,2.610831300029531,decreament,0.6,11,standard,None,100,,,,,,,,f,22,204,fr,r,0,raw,2022-05-17_10h38.02.742,oddball,2022.1.2,60.01644449127052,
5,,,,,0,0,0,1,2,0,2,0,5,0,5,0,,,,,,,,,,,,,,,,,331.9044314001221,None,332.5381916000042,333.13809380005114,333.1213974999264,335.12202090001665,None,1,0.6122901998460293,2.612885399721563,decreament,0.6,11,standard,None,100,,,,,,,,f,22,204,fr,r,0,raw,2022-05-17_10h38.02.742,oddball,2022.1.2,60.01644449127052,
5,,,,,0,0,0,1,2,0,2,0,6,0,6,0,,,,,,,,,,,,,,,,,335.1389705000911,None,335.8058591000736,336.4059578999877,336.3894565999508,338.3897973999847,None,1,0.6097723999992013,2.610114000039175,decreament,0.6,11,standard,None,100,,,,,,,,f,22,204,fr,r,0,raw,2022-05-17_10h38.02.742,oddball,2022.1.2,60.01644449127052,
5,,,,,0,0,0,1,2,0,2,0,7,0,7,0,,,,,,,,,,,,,,,,,338.4065982999746,None,338.9905417000409,339.3573519999627,339.3236923001241,341.3246722999029,j,1,0.35932209994643927,2.360348999965936,decreament,0.36,13,oddball,j,60,0.9353905997704715,,,,,,,f,22,204,fr,r,0,raw,2022-05-17_10h38.02.742,oddball,2022.1.2,60.01644449127052,
5,,,,,0,0,0,1,2,0,2,0,8,0,8,0,,,,,,,,,,,,,,,,,341.34142499999143,None,342.0584201000165,342.6583932999056,342.64198469999246,344.6426286001224,None,1,0.6129345998633653,2.613585599930957,decreament,0.6,11,standard,None,100,,,,,,,,f,22,204,fr,r,0,raw,2022-05-17_10h38.02.742,oddball,2022.1.2,60.01644449127052,
5,,,,,0,0,0,1,2,0,2,0,9,0,9,0,,,,,,,,,,,,,,,,,344.6590994000435,None,345.3261706000194,345.92670090007596,345.9096798999235,347.91048580012284,None,1,0.6110777999274433,2.611868300009519,decreament,0.6,11,standard,None,100,,,,,,,,f,22,204,fr,r,0,raw,2022-05-17_10h38.02.742,oddball,2022.1.2,60.01644449127052,
5,,,,,0,0,0,1,2,0,2,0,10,0,10,0,,,,,,,,,,,,,,,,,347.9271438999567,None,348.79410700011067,349.39424840011634,349.3776412999723,351.3785814999137,None,1,0.6127829996403307,2.613713799742982,decreament,0.6,11,standard,None,100,,,,,,,,f,22,204,fr,r,0,raw,2022-05-17_10h38.02.742,oddball,2022.1.2,60.01644449127052,
5,,,,,0,0,0,1,2,0,2,0,11,0,11,0,,,,,,,,,,,,,,,,,351.39488380006514,None,352.06202020007186,352.6625248999335,352.6462805001065,354.6462548999116,None,1,0.6138949999585748,2.6137544999364763,decreament,0.6,11,standard,None,100,,,,,,,,f,22,204,fr,r,0,raw,2022-05-17_10h38.02.742,oddball,2022.1.2,60.01644449127052,
5,,,,,0,0,0,1,2,0,2,0,12,0,12,0,,,,,,,,,,,,,,,,,354.6628717998974,None,355.2134670999367,355.81335960002616,355.79679680010304,357.79704659990966,j,0,0.6108609999064356,2.6110559997614473,decreament,0.6,11,standard,None,100,0.8956847998779267,,,,,,,f,22,204,fr,r,0,raw,2022-05-17_10h38.02.742,oddball,2022.1.2,60.01644449127052,
5,,,,,0,0,0,1,2,0,2,0,13,0,13,0,,,,,,,,,,,,,,,,,357.8137678001076,None,358.58158949995413,359.18126280000433,359.1646599001251,361.1653738000896,None,1,0.610496399924159,2.611205300083384,decreament,0.6,11,standard,None,100,,,,,,,,f,22,204,fr,r,0,raw,2022-05-17_10h38.02.742,oddball,2022.1.2,60.01644449127052,
5,,,,,0,0,0,1,2,0,2,0,14,0,14,0,,,,,,,,,,,,,,,,,361.1822238001041,None,361.93256230000407,362.5321027999744,362.5156630000565,364.51662070001476,None,1,0.6096112998202443,2.610585399903357,decreament,0.6,11,standard,None,100,,,,,,,,f,22,204,fr,r,0,raw,2022-05-17_10h38.02.742,oddball,2022.1.2,60.01644449127052,
5,,,,,0,0,0,1,2,0,2,0,15,0,15,0,,,,,,,,,,,,,,,,,364.53319650003687,None,365.06709249992855,365.5503303001169,365.5339720000047,367.5350001999177,j,1,0.49529759981669486,2.496381899807602,decreament,0.48,14,oddball,j,80,0.9651587996631861,,,,,,,f,22,204,fr,r,0,raw,2022-05-17_10h38.02.742,oddball,2022.1.2,60.01644449127052,
5,,,,,0,0,0,1,2,0,2,0,16,0,16,0,,,,,,,,,,,,,,,,,367.55173710011877,None,368.2346809001174,368.8349800000433,368.8182032001205,370.8191178000998,None,1,0.6099186998326331,2.6108336998149753,decreament,0.6,11,standard,None,100,,,,,,,,f,22,204,fr,r,0,raw,2022-05-17_10h38.02.742,oddball,2022.1.2,60.01644449127052,
5,,,,,0,0,0,1,2,0,2,0,17,0,17,0,,,,,,,,,,,,,,,,,370.8360212999396,None,371.5194725000765,372.1194849999156,372.10349559993483,374.1036835999694,None,1,0.6116570001468062,2.611847300082445,decreament,0.6,11,standard,None,100,,,,,,,,f,22,204,fr,r,0,raw,2022-05-17_10h38.02.742,oddball,2022.1.2,60.01644449127052,
5,,,,,0,0,0,1,2,0,2,0,18,0,18,0,,,,,,,,,,,,,,,,,374.120182499988,None,374.73726280010305,375.3373430999927,375.3207541999873,377.3213917000685,None,1,0.6121403998695314,2.6127700000070035,decreament,0.6,11,standard,None,100,,,,,,,,f,22,204,fr,r,0,raw,2022-05-17_10h38.02.742,oddball,2022.1.2,60.01644449127052,
5,,,,,0,0,0,1,2,0,2,0,19,0,19,0,,,,,,,,,,,,,,,,,377.33819189993665,None,378.0716546999756,378.67241250001825,378.65569799998775,380.6561753000133,None,1,0.6136954999528825,2.6141355000436306,decreament,0.6,11,standard,None,100,,,,,,,,f,22,204,fr,r,0,raw,2022-05-17_10h38.02.742,oddball,2022.1.2,60.01644449127052,
5,,,,,0,0,0,1,2,0,2,0,20,0,20,0,,,,,,,,,,,,,,,,,380.67290999996476,None,381.37341780005954,381.97334669996053,381.9570208999794,383.95733219990507,j,0,0.6086222000885755,2.608872399898246,decreament,0.6,11,standard,None,100,0.9830752997659147,,,,,,,f,22,204,fr,r,0,raw,2022-05-17_10h38.02.742,oddball,2022.1.2,60.01644449127052,
5,,,,,0,0,0,1,2,0,2,0,21,0,21,0,,,,,,,,,,,,,,,,,383.9740218000952,None,384.59125029994175,385.1910906000994,385.1747210000176,387.1755341999233,None,1,0.6106914998963475,2.611582800047472,decreament,0.6,11,standard,None,100,,,,,,,,f,22,204,fr,r,0,raw,2022-05-17_10h38.02.742,oddball,2022.1.2,60.01644449127052,
5,,,,,0,0,0,1,2,0,2,0,22,0,22,0,,,,,,,,,,,,,,,,,387.1917850000318,None,387.77544220001437,388.37559000006877,388.3593560999725,390.3598027001135,None,1,0.6097296001389623,2.6101185001898557,decreament,0.6,11,standard,None,100,,,,,,,,f,22,204,fr,r,0,raw,2022-05-17_10h38.02.742,oddball,2022.1.2,60.01644449127052,
5,,,,,0,0,0,1,2,0,2,0,23,0,23,0,,,,,,,,,,,,,,,,,390.37640809989534,None,390.9936560001224,391.59400060004555,391.57724149990827,393.57771610002965,None,1,0.6099640999455005,2.6103659998625517,decreament,0.6,11,standard,None,100,,,,,,,,f,22,204,fr,r,0,raw,2022-05-17_10h38.02.742,oddball,2022.1.2,60.01644449127052,
5,,,,,0,0,0,1,2,0,2,0,24,0,24,0,,,,,,,,,,,,,,,,,393.5943219999317,None,394.2444426000584,394.8453234999906,394.82874300004914,396.8293602000922,None,1,0.6129793997388333,2.613598699681461,decreament,0.6,11,standard,None,100,,,,,,,,f,22,204,fr,r,0,raw,2022-05-17_10h38.02.742,oddball,2022.1.2,60.01644449127052,
5,,,,,0,0,0,1,2,0,2,0,25,0,25,0,,,,,,,,,,,,,,,,,396.8459032000974,None,397.4290521000512,397.67929930007085,397.64609850011766,399.6468098999467,j,1,0.24755759979598224,2.2482312999200076,decreament,0.24,12,oddball,j,40,0.780846799723804,,,,,,,f,22,204,fr,r,0,raw,2022-05-17_10h38.02.742,oddball,2022.1.2,60.01644449127052,
5,,,,,0,0,0,1,2,0,2,0,26,0,26,0,,,,,,,,,,,,,,,,,399.6635932000354,None,400.41417960007675,401.0138870999217,400.99728449992836,402.99796009995043,None,1,0.6093278999906033,2.6099882998969406,decreament,0.6,11,standard,None,100,,,,,,,,f,22,204,fr,r,0,raw,2022-05-17_10h38.02.742,oddball,2022.1.2,60.01644449127052,
5,,,,,0,0,0,1,2,0,2,0,27,0,27,0,,,,,,,,,,,,,,,,,403.0145841999911,None,403.76485570007935,404.3654203999322,404.3487619999796,406.3492932000663,None,1,0.6110934999305755,2.6115811998024583,decreament,0.6,11,standard,None,100,,,,,,,,f,22,204,fr,r,0,raw,2022-05-17_10h38.02.742,oddball,2022.1.2,60.01644449127052,
5,,,,,0,0,0,1,2,0,2,0,28,0,28,0,,,,,,,,,,,,,,,,,406.3660965000745,None,407.04933640011586,407.64972120011225,407.6330834000837,409.6338472000789,None,1,0.6118932000827044,2.612670399947092,decreament,0.6,11,standard,None,100,,,,,,,,f,22,204,fr,r,0,raw,2022-05-17_10h38.02.742,oddball,2022.1.2,60.01644449127052,
5,,,,,0,0,0,1,2,0,2,0,29,0,29,0,,,,,,,,,,,,,,,,,409.6505819999147,None,410.3007354999427,410.9010938000865,410.88420310011134,412.88475019996986,None,1,0.6130913000088185,2.613617799943313,decreament,0.6,11,standard,None,100,,,,,,,,f,22,204,fr,r,0,raw,2022-05-17_10h38.02.742,oddball,2022.1.2,60.01644449127052,
5,,,,,0,0,0,1,3,0,3,0,0,0,0,0,,,,,,,,,,,,,,,414.55246230005287,None,415.51934299990535,None,416.05322690005414,416.653027900029,416.6364349001087,418.6370918001048,None,1,0.6106863000895828,2.6113642000127584,increament,0.6,15,standard,None,100,,412.90170769998804,None,,,,,f,22,204,fr,r,0,raw,2022-05-17_10h38.02.742,oddball,2022.1.2,60.01644449127052,
5,,,,,0,0,0,1,3,0,3,0,1,0,1,0,,,,,,,,,,,,,,,,,418.65403910004534,None,419.43792599998415,420.03791370010003,420.02121230005287,422.021778000053,None,1,0.609536400064826,2.610057800076902,increament,0.6,15,standard,None,100,,,,,,,,f,22,204,fr,r,0,raw,2022-05-17_10h38.02.742,oddball,2022.1.2,60.01644449127052,
5,,,,,0,0,0,1,3,0,3,0,2,0,2,0,,,,,,,,,,,,,,,,,422.03884740010835,None,422.5890071000904,423.1897523999214,423.17247310001403,425.17325780005194,None,1,0.6119834999553859,2.6128310998901725,increament,0.6,15,standard,None,100,,,,,,,,f,22,204,fr,r,0,raw,2022-05-17_10h38.02.742,oddball,2022.1.2,60.01644449127052,
5,,,,,0,0,0,1,3,0,3,0,3,0,3,0,,,,,,,,,,,,,,,,,425.1897593999747,None,425.8900180000346,426.49041610001586,426.4737605000846,428.47441600007005,None,1,0.6138541998807341,2.6144548999145627,increament,0.6,15,standard,None,100,,,,,,,,f,22,204,fr,r,0,raw,2022-05-17_10h38.02.742,oddball,2022.1.2,60.01644449127052,
5,,,,,0,0,0,1,3,0,3,0,4,0,4,0,,,,,,,,,,,,,,,,,428.4908920000307,None,429.1911861000117,429.792063199915,429.7751098999288,431.7756942999549,None,1,0.6129397002514452,2.6135312002152205,increament,0.6,15,standard,None,100,,,,,,,,f,22,204,fr,r,0,raw,2022-05-17_10h38.02.742,oddball,2022.1.2,60.01644449127052,
5,,,,,0,0,0,1,3,0,3,0,5,0,5,0,,,,,,,,,,,,,,,,,431.79197399993427,None,432.35899410001,432.95933529990725,432.9426432000473,434.94333439995535,None,1,0.6142802000977099,2.61500780005008,increament,0.6,15,standard,None,100,,,,,,,,f,22,204,fr,r,0,raw,2022-05-17_10h38.02.742,oddball,2022.1.2,60.01644449127052,
5,,,,,0,0,0,1,3,0,3,0,6,0,6,0,,,,,,,,,,,,,,,,,434.9600597000681,None,435.64366800012067,436.2442036001012,436.22773699997924,438.2279044999741,None,1,0.6119816000573337,2.6120929999742657,increament,0.6,15,standard,None,100,,,,,,,,f,22,204,fr,r,0,raw,2022-05-17_10h38.02.742,oddball,2022.1.2,60.01644449127052,
5,,,,,0,0,0,1,3,0,3,0,7,0,7,0,,,,,,,,,,,,,,,,,438.2446568000596,None,438.9283674999606,439.5284329999704,439.5117655999493,441.5125929999631,None,1,0.6093839998356998,2.6101899999193847,increament,0.6,15,standard,None,100,,,,,,,,f,22,204,fr,r,0,raw,2022-05-17_10h38.02.742,oddball,2022.1.2,60.01644449127052,
5,,,,,0,0,0,1,3,0,3,0,8,0,8,0,,,,,,,,,,,,,,,,,441.5290975999087,None,442.196205599932,442.796430000104,442.77999379998073,444.7803756999783,None,1,0.6131735998205841,2.6135338998865336,increament,0.6,15,standard,None,100,,,,,,,,f,22,204,fr,r,0,raw,2022-05-17_10h38.02.742,oddball,2022.1.2,60.01644449127052,
5,,,,,0,0,0,1,3,0,3,0,9,0,9,0,,,,,,,,,,,,,,,,,444.79701479990035,None,445.56452749995515,446.53107060003094,446.4975835001096,448.49844420002773,j,1,0.9605489000678062,2.961404300061986,increament,0.96,18,oddball,j,160,0.3624920998699963,,,,,,,f,22,204,fr,r,0,raw,2022-05-17_10h38.02.742,oddball,2022.1.2,60.01644449127052,
5,,,,,0,0,0,1,3,0,3,0,10,0,10,0,,,,,,,,,,,,,,,,,448.5150776999071,None,449.1491358000785,449.74884389992803,449.73258089995943,451.732900199946,None,1,0.6124003999866545,2.6126423000823706,increament,0.6,15,standard,None,100,,,,,,,,f,22,204,fr,r,0,raw,2022-05-17_10h38.02.742,oddball,2022.1.2,60.01644449127052,
5,,,,,0,0,0,1,3,0,3,0,11,0,11,0,,,,,,,,,,,,,,,,,451.74964520009235,None,452.3833697999362,452.9833641999867,452.96667720004916,454.96729109995067,None,1,0.6109281999524683,2.6115459001157433,increament,0.6,15,standard,None,100,,,,,,,,f,22,204,fr,r,0,raw,2022-05-17_10h38.02.742,oddball,2022.1.2,60.01644449127052,
5,,,,,0,0,0,1,3,0,3,0,12,0,12,0,,,,,,,,,,,,,,,,,454.9839566000737,None,455.56805259990506,456.1681081999559,456.1513628999237,458.1524239999708,None,1,0.6111339998897165,2.61221559997648,increament,0.6,15,standard,None,100,,,,,,,,f,22,204,fr,r,0,raw,2022-05-17_10h38.02.742,oddball,2022.1.2,60.01644449127052,
5,,,,,0,0,0,1,3,0,3,0,13,0,13,0,,,,,,,,,,,,,,,,,458.1688876999542,None,458.8021891999524,459.40286940010265,459.3860617999453,461.3869235999882,None,1,0.6143479999154806,2.615185899892822,increament,0.6,15,standard,None,100,,,,,,,,f,22,204,fr,r,0,raw,2022-05-17_10h38.02.742,oddball,2022.1.2,60.01644449127052,
5,,,,,0,0,0,1,3,0,3,0,14,0,14,0,,,,,,,,,,,,,,,,,461.40332640009,None,462.0204662999604,462.620756899938,462.60386190004647,464.60460649989545,None,1,0.6121650000568479,2.612934899982065,increament,0.6,15,standard,None,100,,,,,,,,f,22,204,fr,r,0,raw,2022-05-17_10h38.02.742,oddball,2022.1.2,60.01644449127052,
5,,,,,0,0,0,1,3,0,3,0,15,0,15,0,,,,,,,,,,,,,,,,,464.6212542001158,None,465.17148500005715,465.7716415000614,465.75534439994954,467.75603940011933,None,1,0.6132176001556218,2.613899700110778,increament,0.6,15,standard,None,100,,,,,,,,f,22,204,fr,r,0,raw,2022-05-17_10h38.02.742,oddball,2022.1.2,60.01644449127052,
5,,,,,0,0,0,1,3,0,3,0,16,0,16,0,,,,,,,,,,,,,,,,,467.77263529994525,None,468.5394612001255,469.14017389994115,469.12327240011655,471.1240749999415,None,1,0.612462799763307,2.613246699795127,increament,0.6,15,standard,None,100,,,,,,,,f,22,204,fr,r,0,raw,2022-05-17_10h38.02.742,oddball,2022.1.2,60.01644449127052,
5,,,,,0,0,0,1,3,0,3,0,17,0,17,0,,,,,,,,,,,,,,,,,471.1406803999562,None,471.9573782000225,472.5575294001028,472.54087550006807,474.5417752000503,None,1,0.6128087998367846,2.6136796998325735,increament,0.6,15,standard,None,100,,,,,,,,f,22,204,fr,r,0,raw,2022-05-17_10h38.02.742,oddball,2022.1.2,60.01644449127052,
5,,,,,0,0,0,1,3,0,3,0,18,0,18,0,,,,,,,,,,,,,,,,,474.55874829995446,None,475.2254014001228,475.82584810000844,475.809132900089,477.80941720004193,j,0,0.6133339998777956,2.613526799948886,increament,0.6,15,standard,None,100,0.722608899930492,,,,,,,f,22,204,fr,r,0,raw,2022-05-17_10h38.02.742,oddball,2022.1.2,60.01644449127052,
5,,,,,0,0,0,1,3,0,3,0,19,0,19,0,,,,,,,,,,,,,,,,,477.8260079000611,None,478.52686240011826,479.1270487001166,479.1103578999173,481.1105438999366,None,1,0.6094726996961981,2.6095784998033196,increament,0.6,15,standard,None,100,,,,,,,,f,22,204,fr,r,0,raw,2022-05-17_10h38.02.742,oddball,2022.1.2,60.01644449127052,
5,,,,,0,0,0,1,3,0,3,0,20,0,20,0,,,,,,,,,,,,,,,,,481.127474399982,None,481.6944311000407,482.294496800052,482.2782042999752,484.27893369994126,None,1,0.6143122997600585,2.6151184998452663,increament,0.6,15,standard,None,100,,,,,,,,f,22,204,fr,r,0,raw,2022-05-17_10h38.02.742,oddball,2022.1.2,60.01644449127052,
5,,,,,0,0,0,1,3,0,3,0,21,0,21,0,,,,,,,,,,,,,,,,,484.29527230001986,None,484.89553970005363,485.6291984000709,485.5958120999858,487.5968534001149,None,0,0.7296319999732077,2.7306884999852628,increament,0.72,16,oddball,j,120,,,,,,,,f,22,204,fr,r,0,raw,2022-05-17_10h38.02.742,oddball,2022.1.2,60.01644449127052,
5,,,,,0,0,0,1,3,0,3,0,22,0,22,0,,,,,,,,,,,,,,,,,487.61356359999627,None,488.3304866000544,488.930362300016,488.91379770007916,490.9142108000815,None,1,0.6091871000826359,2.609601200092584,increament,0.6,15,standard,None,100,,,,,,,,f,22,204,fr,r,0,raw,2022-05-17_10h38.02.742,oddball,2022.1.2,60.01644449127052,
5,,,,,0,0,0,1,3,0,3,0,23,0,23,0,,,,,,,,,,,,,,,,,490.9308766000904,None,491.58160090004094,492.1818293000106,492.1653394000605,494.16566949989647,None,1,0.6141082998365164,2.614335399819538,increament,0.6,15,standard,None,100,,,,,,,,f,22,204,fr,r,0,raw,2022-05-17_10h38.02.742,oddball,2022.1.2,60.01644449127052,
5,,,,,0,0,0,1,3,0,3,0,24,0,24,0,,,,,,,,,,,,,,,,,494.18238850007765,None,494.78268940001726,495.38320089993067,495.3664903000463,497.36690560006537,j,0,0.6123989000916481,2.6127541000023484,increament,0.6,15,standard,None,100,0.47719169966876507,,,,,,,f,22,204,fr,r,0,raw,2022-05-17_10h38.02.742,oddball,2022.1.2,60.01644449127052,
5,,,,,0,0,0,1,3,0,3,0,25,0,25,0,,,,,,,,,,,,,,,,,497.3839831999503,None,498.08381150010973,498.93419730011374,498.90091229998507,500.90176689997315,None,0,0.8466399000026286,2.8475471001584083,increament,0.84,17,oddball,j,140,,,,,,,,f,22,204,fr,r,0,raw,2022-05-17_10h38.02.742,oddball,2022.1.2,60.01644449127052,
5,,,,,0,0,0,1,3,0,3,0,26,0,26,0,,,,,,,,,,,,,,,,,500.9183948999271,None,501.51900360011496,502.11877669999376,502.10199650004506,504.10327739990316,None,1,0.6104746002238244,2.6118220002390444,increament,0.6,15,standard,None,100,,,,,,,,f,22,204,fr,r,0,raw,2022-05-17_10h38.02.742,oddball,2022.1.2,60.01644449127052,
5,,,,,0,0,0,1,3,0,3,0,27,0,27,0,,,,,,,,,,,,,,,,,504.11945810006,None,504.7699220001232,505.3698798001278,505.3532406000886,507.3543682999443,None,1,0.6111064997967333,2.6123221998568624,increament,0.6,15,standard,None,100,,,,,,,,f,22,204,fr,r,0,raw,2022-05-17_10h38.02.742,oddball,2022.1.2,60.01644449127052,
5,,,,,0,0,0,1,3,0,3,0,28,0,28,0,,,,,,,,,,,,,,,,,507.3708947999403,None,508.00443059997633,508.6045053000562,508.58867450011894,510.588995099999,None,1,0.613179599866271,2.613528899848461,increament,0.6,15,standard,None,100,,,,,,,,f,22,204,fr,r,0,raw,2022-05-17_10h38.02.742,oddball,2022.1.2,60.01644449127052,
5,,,,,0,0,0,1,3,0,3,0,29,0,29,0,,,,,,,,,,,,,,,,,510.6052004999947,None,511.37237529992126,511.97290510009043,511.9560728999786,513.9566895999014,None,1,0.6120457996148616,2.612614299636334,increament,0.6,15,standard,None,100,,,,,,,,f,22,204,fr,r,0,raw,2022-05-17_10h38.02.742,oddball,2022.1.2,60.01644449127052,
5,,,,,0,0,0,1,4,0,4,0,0,0,0,0,,,,,,,,,,,,,,,518.1606016000733,None,519.5920631000772,None,520.1422580999788,520.7423547999933,520.7258546000812,522.727102200035,None,1,0.611341199837625,2.61262259981595,decreament,0.6,11,standard,None,100,,513.9736842000857,None,,,,,f,22,204,fr,r,0,raw,2022-05-17_10h38.02.742,oddball,2022.1.2,60.01644449127052,
5,,,,,0,0,0,1,4,0,4,0,1,0,1,0,,,,,,,,,,,,,,,,,522.7438378001098,None,523.3934494999703,523.9936699999962,523.9770241000224,525.9779678999912,None,1,0.613474499899894,2.6144695999100804,decreament,0.6,11,standard,None,100,,,,,,,,f,22,204,fr,r,0,raw,2022-05-17_10h38.02.742,oddball,2022.1.2,60.01644449127052,
5,,,,,0,0,0,1,4,0,4,0,2,0,2,0,,,,,,,,,,,,,,,,,525.994443200063,None,526.5449512000196,527.1449045001063,527.1282138999086,529.1290128000546,None,1,0.6117231000680476,2.612520000198856,decreament,0.6,11,standard,None,100,,,,,,,,f,22,204,fr,r,0,raw,2022-05-17_10h38.02.742,oddball,2022.1.2,60.01644449127052,
5,,,,,0,0,0,1,4,0,4,0,3,0,3,0,,,,,,,,,,,,,,,,,529.1456738999113,None,529.7957768000197,530.3962224000134,530.3794084000401,532.3802398000844,None,1,0.613979100016877,2.6148290999699384,decreament,0.6,11,standard,None,100,,,,,,,,f,22,204,fr,r,0,raw,2022-05-17_10h38.02.742,oddball,2022.1.2,60.01644449127052,
5,,,,,0,0,0,1,4,0,4,0,4,0,4,0,,,,,,,,,,,,,,,,,532.3969640000723,None,532.9972651000135,533.59755340009,533.5812468000222,535.5821261999663,None,1,0.6116647999733686,2.6125703998841345,decreament,0.6,11,standard,None,100,,,,,,,,f,22,204,fr,r,0,raw,2022-05-17_10h38.02.742,oddball,2022.1.2,60.01644449127052,
5,,,,,0,0,0,1,4,0,4,0,5,0,5,0,,,,,,,,,,,,,,,,,535.5979629000649,None,536.2650671999436,536.8653619999532,536.8485552000348,538.8493945999071,None,1,0.6122500000055879,2.6130909000057727,decreament,0.6,11,standard,None,100,,,,,,,,f,22,204,fr,r,0,raw,2022-05-17_10h38.02.742,oddball,2022.1.2,60.01644449127052,
5,,,,,0,0,0,1,4,0,4,0,6,0,6,0,,,,,,,,,,,,,,,,,538.866130300099,None,539.3996073999442,540.000061500119,539.9837205000222,541.9842719000299,None,1,0.6118795000948012,2.6123999000992626,decreament,0.6,11,standard,None,100,,,,,,,,f,22,204,fr,r,0,raw,2022-05-17_10h38.02.742,oddball,2022.1.2,60.01644449127052,
5,,,,,0,0,0,1,4,0,4,0,7,0,7,0,,,,,,,,,,,,,,,,,542.000491600018,None,542.6176613999996,543.2176449000835,543.201225799974,545.2020394001156,None,1,0.6130909996572882,2.61387089965865,decreament,0.6,11,standard,None,100,,,,,,,,f,22,204,fr,r,0,raw,2022-05-17_10h38.02.742,oddball,2022.1.2,60.01644449127052,
5,,,,,0,0,0,1,4,0,4,0,8,0,8,0,,,,,,,,,,,,,,,,,545.2183656000998,None,545.8354877000675,546.4356341999955,546.4189524000976,548.4194736001082,None,1,0.613361099967733,2.6138989999890327,decreament,0.6,11,standard,None,100,,,,,,,,f,22,204,fr,r,0,raw,2022-05-17_10h38.02.742,oddball,2022.1.2,60.01644449127052,
5,,,,,0,0,0,1,4,0,4,0,9,0,9,0,,,,,,,,,,,,,,,,,548.4364922000095,None,548.9867462001275,549.3533151000738,549.3200225001201,551.3207654000726,j,1,0.36095090000890195,2.361728700110689,decreament,0.36,13,oddball,j,60,0.44357899972237647,,,,,,,f,22,204,fr,r,0,raw,2022-05-17_10h38.02.742,oddball,2022.1.2,60.01644449127052,
5,,,,,0,0,0,1,4,0,4,0,10,0,10,0,,,,,,,,,,,,,,,,,551.3374459999613,None,551.9546650000848,552.5545405000448,552.537876999937,554.5390337000135,None,1,0.6094251000322402,2.6106302000116557,decreament,0.6,11,standard,None,100,,,,,,,,f,22,204,fr,r,0,raw,2022-05-17_10h38.02.742,oddball,2022.1.2,60.01644449127052,
5,,,,,0,0,0,1,4,0,4,0,11,0,11,0,,,,,,,,,,,,,,,,,554.5552767000627,None,555.3390315000433,555.9390289001167,555.9224817999639,557.9236981999129,None,1,0.6126391000580043,2.6139358000364155,decreament,0.6,11,standard,None,100,,,,,,,,f,22,204,fr,r,0,raw,2022-05-17_10h38.02.742,oddball,2022.1.2,60.01644449127052,
5,,,,,0,0,0,1,4,0,4,0,12,0,12,0,,,,,,,,,,,,,,,,,557.940827799961,None,558.7406888999976,559.3404844999313,559.3237348999828,561.3248457999434,None,1,0.609609899809584,2.610801899805665,decreament,0.6,11,standard,None,100,,,,,,,,f,22,204,fr,r,0,raw,2022-05-17_10h38.02.742,oddball,2022.1.2,60.01644449127052,
5,,,,,0,0,0,1,4,0,4,0,13,0,13,0,,,,,,,,,,,,,,,,,561.3413281000685,None,562.058328300016,562.6585317000281,562.6419462999329,564.6428094999865,None,1,0.6103803999722004,2.6112303999252617,decreament,0.6,11,standard,None,100,,,,,,,,f,22,204,fr,r,0,raw,2022-05-17_10h38.02.742,oddball,2022.1.2,60.01644449127052,
5,,,,,0,0,0,1,4,0,4,0,14,0,14,0,,,,,,,,,,,,,,,,,564.6592109999619,None,565.3096837999765,565.909591600066,565.8928268000018,567.8938386000227,None,1,0.6119395003188401,2.612944400170818,decreament,0.6,11,standard,None,100,,,,,,,,f,22,204,fr,r,0,raw,2022-05-17_10h38.02.742,oddball,2022.1.2,60.01644449127052,
5,,,,,0,0,0,1,4,0,4,0,15,0,15,0,,,,,,,,,,,,,,,,,567.9102634000592,None,568.5608244999312,569.1609181999229,569.1442468999885,571.1446765000001,None,1,0.6112153001595289,2.6115884000901133,decreament,0.6,11,standard,None,100,,,,,,,,f,22,204,fr,r,0,raw,2022-05-17_10h38.02.742,oddball,2022.1.2,60.01644449127052,
5,,,,,0,0,0,1,4,0,4,0,16,0,16,0,,,,,,,,,,,,,,,,,571.1615858001169,None,571.7619996001013,572.362041000044,572.3455598000437,574.3460953999311,None,1,0.6098603999707848,2.6103542000055313,decreament,0.6,11,standard,None,100,,,,,,,,f,22,204,fr,r,0,raw,2022-05-17_10h38.02.742,oddball,2022.1.2,60.01644449127052,
5,,,,,0,0,0,1,4,0,4,0,17,0,17,0,,,,,,,,,,,,,,,,,574.3627814999782,None,575.0630517001264,575.6629365999252,575.6463236999698,577.6476376999635,None,1,0.6125051002018154,2.6139328002464026,decreament,0.6,11,standard,None,100,,,,,,,,f,22,204,fr,r,0,raw,2022-05-17_10h38.02.742,oddball,2022.1.2,60.01644449127052,
5,,,,,0,0,0,1,4,0,4,0,18,0,18,0,,,,,,,,,,,,,,,,,577.6639859001152,None,578.314012600109,578.5644590999,578.5313766000327,580.5317307000514,j,1,0.2478670000564307,2.2481279000639915,decreament,0.24,12,oddball,j,40,0.8475358998402953,,,,,,,f,22,204,fr,r,0,raw,2022-05-17_10h38.02.742,oddball,2022.1.2,60.01644449127052,
5,,,,,0,0,0,1,4,0,4,0,19,0,19,0,,,,,,,,,,,,,,,,,580.5483079000842,None,581.2655937999953,581.8656184999272,581.8492070001084,583.850110600004,None,1,0.6119597998913378,2.6129442998208106,decreament,0.6,11,standard,None,100,,,,,,,,f,22,204,fr,r,0,raw,2022-05-17_10h38.02.742,oddball,2022.1.2,60.01644449127052,
5,,,,,0,0,0,1,4,0,4,0,20,0,20,0,,,,,,,,,,,,,,,,,583.8664408000186,None,584.5505530000664,585.1503755999729,585.1340383000206,587.134649500018,None,1,0.6098925999831408,2.6104564999695867,decreament,0.6,11,standard,None,100,,,,,,,,f,22,204,fr,r,0,raw,2022-05-17_10h38.02.742,oddball,2022.1.2,60.01644449127052,
5,,,,,0,0,0,1,4,0,4,0,21,0,21,0,,,,,,,,,,,,,,,,,587.150916500017,None,587.9682720999699,588.5681642999407,588.5515562000219,590.5522392001003,None,1,0.6119395000860095,2.612609999952838,decreament,0.6,11,standard,None,100,,,,,,,,f,22,204,fr,r,0,raw,2022-05-17_10h38.02.742,oddball,2022.1.2,60.01644449127052,
5,,,,,0,0,0,1,4,0,4,0,22,0,22,0,,,,,,,,,,,,,,,,,590.5690043000504,None,591.1359043999109,591.736115799984,591.7196730000433,593.719997700071,None,1,0.6137698998209089,2.6140595998149365,decreament,0.6,11,standard,None,100,,,,,,,,f,22,204,fr,r,0,raw,2022-05-17_10h38.02.742,oddball,2022.1.2,60.01644449127052,
5,,,,,0,0,0,1,4,0,4,0,23,0,23,0,,,,,,,,,,,,,,,,,593.7369715000968,None,594.4537218001205,595.0540952999145,595.0372854000889,597.038150300039,None,1,0.6129713000264019,2.6137241998221725,decreament,0.6,11,standard,None,100,,,,,,,,f,22,204,fr,r,0,raw,2022-05-17_10h38.02.742,oddball,2022.1.2,60.01644449127052,
5,,,,,0,0,0,1,4,0,4,0,24,0,24,0,,,,,,,,,,,,,,,,,597.0550041000824,None,597.788406800013,598.3886188000906,598.3720641999971,600.3727307999507,None,1,0.6125739002600312,2.6132560002151877,decreament,0.6,11,standard,None,100,,,,,,,,f,22,204,fr,r,0,raw,2022-05-17_10h38.02.742,oddball,2022.1.2,60.01644449127052,
5,,,,,0,0,0,1,4,0,4,0,25,0,25,0,,,,,,,,,,,,,,,,,600.3894569999538,None,601.006458699936,601.6067407999653,601.5900842999108,603.590484400047,None,1,0.6089432998560369,2.609313099877909,decreament,0.6,11,standard,None,100,,,,,,,,f,22,204,fr,r,0,raw,2022-05-17_10h38.02.742,oddball,2022.1.2,60.01644449127052,
5,,,,,0,0,0,1,4,0,4,0,26,0,26,0,,,,,,,,,,,,,,,,,603.6072025999893,None,604.17418490001,604.7742671999149,604.7576295000035,606.7583763999864,None,1,0.6121078999713063,2.6128526001702994,decreament,0.6,11,standard,None,100,,,,,,,,f,22,204,fr,r,0,raw,2022-05-17_10h38.02.742,oddball,2022.1.2,60.01644449127052,
5,,,,,0,0,0,1,4,0,4,0,27,0,27,0,,,,,,,,,,,,,,,,,606.77505200007,None,607.5260896000545,608.0089096000884,607.9757296999451,609.9761806000024,None,0,0.47940019983798265,2.4798381999135017,decreament,0.48,14,oddball,j,80,,,,,,,,f,22,204,fr,r,0,raw,2022-05-17_10h38.02.742,oddball,2022.1.2,60.01644449127052,
5,,,,,0,0,0,1,4,0,4,0,28,0,28,0,,,,,,,,,,,,,,,,,609.992852000054,None,610.5600646999665,611.1606387000065,611.1433683000505,613.1442867000587,None,1,0.610494599910453,2.6114205999765545,decreament,0.6,11,standard,None,100,,,,,,,,f,22,204,fr,r,0,raw,2022-05-17_10h38.02.742,oddball,2022.1.2,60.01644449127052,
5,,,,,0,0,0,1,4,0,4,0,29,0,29,0,,,,,,,,,,,,,,,,,613.1609936000314,None,613.8279840000905,614.4279338999186,614.4113994999789,616.4123094000388,None,1,0.611874399939552,2.612831400008872,decreament,0.6,11,standard,None,100,,,,,,,,f,22,204,fr,r,0,raw,2022-05-17_10h38.02.742,oddball,2022.1.2,60.01644449127052,
5,,,,,0,0,0,1,5,0,5,0,0,0,0,0,,,,,,,,,,,,,,,661.7301012000535,None,663.1463693000842,None,663.7970066999551,664.3969560000114,664.3800924001262,666.3810223999899,None,1,0.6080578998662531,2.609096699859947,increament,0.6,15,standard,None,100,,616.4308996000327,None,,,,,f,22,204,fr,r,0,raw,2022-05-17_10h38.02.742,oddball,2022.1.2,60.01644449127052,
5,,,,,0,0,0,1,5,0,5,0,1,0,1,0,,,,,,,,,,,,,,,,,666.3993782000616,None,667.0144921001047,667.614770000102,667.597898399923,669.5989318999927,None,1,0.6125191000755876,2.613590900087729,increament,0.6,15,standard,None,100,,,,,,,,f,22,204,fr,r,0,raw,2022-05-17_10h38.02.742,oddball,2022.1.2,60.01644449127052,
5,,,,,0,0,0,1,5,0,5,0,2,0,2,0,,,,,,,,,,,,,,,,,669.6155376001261,None,670.2155776999425,670.8160171001218,670.7995027999859,672.8001610001083,None,1,0.6123929000459611,2.6130776000209153,increament,0.6,15,standard,None,100,,,,,,,,f,22,204,fr,r,0,raw,2022-05-17_10h38.02.742,oddball,2022.1.2,60.01644449127052,
5,,,,,0,0,0,1,5,0,5,0,3,0,3,0,,,,,,,,,,,,,,,,,672.8168393999804,None,673.3503402001224,673.9507786999457,673.9338893000968,675.9347095999401,None,1,0.612066799774766,2.6128838998265564,increament,0.6,15,standard,None,100,,,,,,,,f,22,204,fr,r,0,raw,2022-05-17_10h38.02.742,oddball,2022.1.2,60.01644449127052,
5,,,,,0,0,0,1,5,0,5,0,4,0,4,0,,,,,,,,,,,,,,,,,675.9512676999439,None,676.6853567000944,677.2851498001255,677.2684492999688,679.2693147000391,None,1,0.609413799829781,2.610266000032425,increament,0.6,15,standard,None,100,,,,,,,,f,22,204,fr,r,0,raw,2022-05-17_10h38.02.742,oddball,2022.1.2,60.01644449127052,
5,,,,,0,0,0,1,5,0,5,0,5,0,5,0,,,,,,,,,,,,,,,,,679.2857844999526,None,679.9363466999494,680.669715099968,680.6363977000583,682.6371889000293,None,0,0.7277919999323785,2.72859949991107,increament,0.72,16,oddball,j,120,,,,,,,,f,22,204,fr,r,0,raw,2022-05-17_10h38.02.742,oddball,2022.1.2,60.01644449127052,
5,,,,,0,0,0,1,5,0,5,0,6,0,6,0,,,,,,,,,,,,,,,,,682.6539177999366,None,683.2876047000755,683.8874922001269,683.8709001000971,685.8714332999662,None,1,0.6107099000364542,2.611253899987787,increament,0.6,15,standard,None,100,,,,,,,,f,22,204,fr,r,0,raw,2022-05-17_10h38.02.742,oddball,2022.1.2,60.01644449127052,
5,,,,,0,0,0,1,5,0,5,0,7,0,7,0,,,,,,,,,,,,,,,,,685.8884378001094,None,686.4888178999536,687.0889238000382,687.0726167999674,689.0731266001239,None,1,0.6129280999302864,2.6132880998775363,increament,0.6,15,standard,None,100,,,,,,,,f,22,204,fr,r,0,raw,2022-05-17_10h38.02.742,oddball,2022.1.2,60.01644449127052,
5,,,,,0,0,0,1,5,0,5,0,8,0,8,0,,,,,,,,,,,,,,,,,689.0897153001279,None,689.6732952999882,690.2732148999348,690.2565999000799,692.2574326000176,None,1,0.6093714002054185,2.6102380000520498,increament,0.6,15,standard,None,100,,,,,,,,f,22,204,fr,r,0,raw,2022-05-17_10h38.02.742,oddball,2022.1.2,60.01644449127052,
5,,,,,0,0,0,1,5,0,5,0,9,0,9,0,,,,,,,,,,,,,,,,,692.2742332001217,None,693.0419173000846,693.6417171999346,693.6248268000782,695.6254700999707,None,1,0.6102682999335229,2.6108497998211533,increament,0.6,15,standard,None,100,,,,,,,,f,22,204,fr,r,0,raw,2022-05-17_10h38.02.742,oddball,2022.1.2,60.01644449127052,
5,,,,,0,0,0,1,5,0,5,0,10,0,10,0,,,,,,,,,,,,,,,,,695.642114700051,None,696.3089195999783,696.9091410001274,696.892695199931,698.893301300006,j,0,0.6131636998616159,2.613797999918461,increament,0.6,15,standard,None,100,0.7900865997653455,,,,,,,f,22,204,fr,r,0,raw,2022-05-17_10h38.02.742,oddball,2022.1.2,60.01644449127052,
5,,,,,0,0,0,1,5,0,5,0,11,0,11,0,,,,,,,,,,,,,,,,,698.9101060999092,None,699.6100345999002,700.2106830999255,700.1943069000263,702.1945233999286,None,1,0.613754500169307,2.6138685001060367,increament,0.6,15,standard,None,100,,,,,,,,f,22,204,fr,r,0,raw,2022-05-17_10h38.02.742,oddball,2022.1.2,60.01644449127052,
5,,,,,0,0,0,1,5,0,5,0,12,0,12,0,,,,,,,,,,,,,,,,,702.2114689999726,None,702.7781454999931,703.3785602999851,703.3618290999439,705.3628283001017,None,1,0.6116912998259068,2.6127361999824643,increament,0.6,15,standard,None,100,,,,,,,,f,22,204,fr,r,0,raw,2022-05-17_10h38.02.742,oddball,2022.1.2,60.01644449127052,
5,,,,,0,0,0,1,5,0,5,0,13,0,13,0,,,,,,,,,,,,,,,,,705.3802841999568,None,705.9793698999565,706.5793622999918,706.5629275999963,708.5639226001222,None,1,0.6132247000932693,2.6142949999775738,increament,0.6,15,standard,None,100,,,,,,,,f,22,204,fr,r,0,raw,2022-05-17_10h38.02.742,oddball,2022.1.2,60.01644449127052,
5,,,,,0,0,0,1,5,0,5,0,14,0,14,0,,,,,,,,,,,,,,,,,708.5801651999354,None,709.3471669999417,710.314279400045,710.2812204000074,712.2824655000586,j,1,0.9634414000902325,2.964773900108412,increament,0.96,18,oddball,j,160,0.6652760000433773,,,,,,,f,22,204,fr,r,0,raw,2022-05-17_10h38.02.742,oddball,2022.1.2,60.01644449127052,
5,,,,,0,0,0,1,5,0,5,0,15,0,15,0,,,,,,,,,,,,,,,,,712.2990423000883,None,712.9818692998961,713.5821529000532,713.5658315001056,715.5667459000833,None,1,0.6135945999994874,2.614601699868217,increament,0.6,15,standard,None,100,,,,,,,,f,22,204,fr,r,0,raw,2022-05-17_10h38.02.742,oddball,2022.1.2,60.01644449127052,
5,,,,,0,0,0,1,5,0,5,0,16,0,16,0,,,,,,,,,,,,,,,,,715.5831422999036,None,716.1667649999727,716.7669313000515,716.750174799934,718.7509341998957,None,1,0.6095964999403805,2.610377399949357,increament,0.6,15,standard,None,100,,,,,,,,f,22,204,fr,r,0,raw,2022-05-17_10h38.02.742,oddball,2022.1.2,60.01644449127052,
5,,,,,0,0,0,1,5,0,5,0,17,0,17,0,,,,,,,,,,,,,,,,,718.7673667001072,None,719.4845904000103,720.084673000034,720.0679997000843,722.068638100056,None,1,0.6097376998513937,2.610363299958408,increament,0.6,15,standard,None,100,,,,,,,,f,22,204,fr,r,0,raw,2022-05-17_10h38.02.742,oddball,2022.1.2,60.01644449127052,
5,,,,,0,0,0,1,5,0,5,0,18,0,18,0,,,,,,,,,,,,,,,,,722.0856105999555,None,722.8024351999629,723.4024608999025,723.3857380999252,725.3868728999514,None,1,0.6109424999449402,2.6122342001181096,increament,0.6,15,standard,None,100,,,,,,,,f,22,204,fr,r,0,raw,2022-05-17_10h38.02.742,oddball,2022.1.2,60.01644449127052,
5,,,,,0,0,0,1,5,0,5,0,19,0,19,0,,,,,,,,,,,,,,,,,725.4035042000469,None,726.0370418000966,726.6371991999913,726.6205466999672,728.6211143999826,None,1,0.6135583999566734,2.6140775999519974,increament,0.6,15,standard,None,100,,,,,,,,f,22,204,fr,r,0,raw,2022-05-17_10h38.02.742,oddball,2022.1.2,60.01644449127052,
5,,,,,0,0,0,1,5,0,5,0,20,0,20,0,,,,,,,,,,,,,,,,,728.6377022000961,None,729.2048013000749,729.805270300014,729.7885875001084,731.7891299999319,None,1,0.6126987999305129,2.6131744999438524,increament,0.6,15,standard,None,100,,,,,,,,f,22,204,fr,r,0,raw,2022-05-17_10h38.02.742,oddball,2022.1.2,60.01644449127052,
5,,,,,0,0,0,1,5,0,5,0,21,0,21,0,,,,,,,,,,,,,,,,,731.805795500055,None,732.3558752001263,732.9567337001208,732.9402846999001,734.9403681000695,None,1,0.6154724999796599,2.615054199937731,increament,0.6,15,standard,None,100,,,,,,,,f,22,204,fr,r,0,raw,2022-05-17_10h38.02.742,oddball,2022.1.2,60.01644449127052,
5,,,,,0,0,0,1,5,0,5,0,22,0,22,0,,,,,,,,,,,,,,,,,734.9571823000442,None,735.5571632999927,736.1576394001022,736.1410328999627,738.1420841999352,None,1,0.6123308998066932,2.6134188999421895,increament,0.6,15,standard,None,100,,,,,,,,f,22,204,fr,r,0,raw,2022-05-17_10h38.02.742,oddball,2022.1.2,60.01644449127052,
5,,,,,0,0,0,1,5,0,5,0,23,0,23,0,,,,,,,,,,,,,,,,,738.1581174000166,None,738.858748300001,739.4590753999073,739.442202999955,741.4428936999757,None,1,0.6094422999303788,2.6100385000463575,increament,0.6,15,standard,None,100,,,,,,,,f,22,204,fr,r,0,raw,2022-05-17_10h38.02.742,oddball,2022.1.2,60.01644449127052,
5,,,,,0,0,0,1,5,0,5,0,24,0,24,0,,,,,,,,,,,,,,,,,741.4593096000608,None,742.1596566000953,742.7597388001159,742.74345119996,744.7441648000386,None,1,0.6127931999508291,2.6135662000160664,increament,0.6,15,standard,None,100,,,,,,,,f,22,204,fr,r,0,raw,2022-05-17_10h38.02.742,oddball,2022.1.2,60.01644449127052,
5,,,,,0,0,0,1,5,0,5,0,25,0,25,0,,,,,,,,,,,,,,,,,744.7611650000326,None,745.410885799909,746.0111716999672,745.9945050999522,747.9952378999442,None,1,0.6081769000738859,2.60885849990882,increament,0.6,15,standard,None,100,,,,,,,,f,22,204,fr,r,0,raw,2022-05-17_10h38.02.742,oddball,2022.1.2,60.01644449127052,
5,,,,,0,0,0,1,5,0,5,0,26,0,26,0,,,,,,,,,,,,,,,,,748.0119572998956,None,748.6124360999092,749.2125663999468,749.1955317000393,751.1966758000199,None,1,0.6109166999813169,2.612096499884501,increament,0.6,15,standard,None,100,,,,,,,,f,22,204,fr,r,0,raw,2022-05-17_10h38.02.742,oddball,2022.1.2,60.01644449127052,
5,,,,,0,0,0,1,5,0,5,0,27,0,27,0,,,,,,,,,,,,,,,,,751.2131012999453,None,751.7803660999052,752.3800568999723,752.363830300048,754.3645027000457,j,0,0.6119925996754318,2.612706799758598,increament,0.6,15,standard,None,100,0.5023346000816673,,,,,,,f,22,204,fr,r,0,raw,2022-05-17_10h38.02.742,oddball,2022.1.2,60.01644449127052,
5,,,,,0,0,0,1,5,0,5,0,28,0,28,0,,,,,,,,,,,,,,,,,754.3811763999984,None,755.0314897999633,755.8815280001145,755.8486293000169,757.8489238000475,j,1,0.846106099896133,2.8461577999405563,increament,0.84,17,oddball,j,140,1.2815254998859018,,,,,,,f,22,204,fr,r,0,raw,2022-05-17_10h38.02.742,oddball,2022.1.2,60.01644449127052,
5,,,,,0,0,0,1,5,0,5,0,29,0,29,0,,,,,,,,,,,,,,,,,757.8655638000928,None,758.6159359000158,759.2163428999484,759.2000035000965,761.2007685999852,None,1,0.6144500998780131,2.615189400035888,increament,0.6,15,standard,None,100,,,,,,,,f,22,204,fr,r,0,raw,2022-05-17_10h38.02.742,oddball,2022.1.2,60.01644449127052,
5,,,,,0,0,0,1,6,0,6,0,0,0,0,0,,,,,,,,,,,,,,,771.1284326999448,None,772.1711299000308,None,772.7544984999113,773.354794099927,773.3384462001268,775.3389874000568,None,1,0.6133985000196844,2.6139503000304103,decreament,0.6,11,standard,None,100,,761.2186050999444,None,,,,,f,22,204,fr,r,0,raw,2022-05-17_10h38.02.742,oddball,2022.1.2,60.01644449127052,
5,,,,,0,0,0,1,6,0,6,0,1,0,1,0,,,,,,,,,,,,,,,,,775.355570799904,None,776.072501800023,776.6728091000114,776.6560291000642,778.6567645999603,None,1,0.6120129998307675,2.612755499780178,decreament,0.6,11,standard,None,100,,,,,,,,f,22,204,fr,r,0,raw,2022-05-17_10h38.02.742,oddball,2022.1.2,60.01644449127052,
5,,,,,0,0,0,1,6,0,6,0,2,0,2,0,,,,,,,,,,,,,,,,,778.6736753999721,None,779.2573577999137,779.8575069999788,779.8407992001157,781.8417986000422,None,1,0.609147299779579,2.610164999961853,decreament,0.6,11,standard,None,100,,,,,,,,f,22,204,fr,r,0,raw,2022-05-17_10h38.02.742,oddball,2022.1.2,60.01644449127052,
5,,,,,0,0,0,1,6,0,6,0,3,0,3,0,,,,,,,,,,,,,,,,,781.8579983001109,None,782.5081879000645,783.1086929000448,783.0918807999697,785.0927470999304,None,1,0.6126828000415117,2.6135439998470247,decreament,0.6,11,standard,None,100,,,,,,,,f,22,204,fr,r,0,raw,2022-05-17_10h38.02.742,oddball,2022.1.2,60.01644449127052,
5,,,,,0,0,0,1,6,0,6,0,4,0,4,0,,,,,,,,,,,,,,,,,785.1095018000342,None,785.6428350999486,786.2434726001229,786.2267136999872,788.2270643000957,None,1,0.6137469997629523,2.6140029998496175,decreament,0.6,11,standard,None,100,,,,,,,,f,22,204,fr,r,0,raw,2022-05-17_10h38.02.742,oddball,2022.1.2,60.01644449127052,
5,,,,,0,0,0,1,6,0,6,0,5,0,5,0,,,,,,,,,,,,,,,,,788.2441249999683,None,789.0110255000181,789.6115460000001,789.5946714999154,791.5949411001056,None,1,0.6127733998000622,2.6129686997737736,decreament,0.6,11,standard,None,100,,,,,,,,f,22,204,fr,r,0,raw,2022-05-17_10h38.02.742,oddball,2022.1.2,60.01644449127052,
5,,,,,0,0,0,1,6,0,6,0,6,0,6,0,,,,,,,,,,,,,,,,,791.6117835999466,None,792.4120561999734,793.0126096999738,792.9960867001209,794.9965602001175,None,1,0.6083261999301612,2.6088181000668555,decreament,0.6,11,standard,None,100,,,,,,,,f,22,204,fr,r,0,raw,2022-05-17_10h38.02.742,oddball,2022.1.2,60.01644449127052,
5,,,,,0,0,0,1,6,0,6,0,7,0,7,0,,,,,,,,,,,,,,,,,795.0132645999547,None,795.7466444999445,796.3468643999659,796.3308627000079,798.3312476000283,None,1,0.612737099872902,2.6131669997703284,decreament,0.6,11,standard,None,100,,,,,,,,f,22,204,fr,r,0,raw,2022-05-17_10h38.02.742,oddball,2022.1.2,60.01644449127052,
5,,,,,0,0,0,1,6,0,6,0,8,0,8,0,,,,,,,,,,,,,,,,,798.3478081000503,None,799.0480192999821,799.6481987000443,799.6315301998984,801.6320617999882,None,1,0.6110743000172079,2.611619600094855,decreament,0.6,11,standard,None,100,,,,,,,,f,22,204,fr,r,0,raw,2022-05-17_10h38.02.742,oddball,2022.1.2,60.01644449127052,
5,,,,,0,0,0,1,6,0,6,0,9,0,9,0,,,,,,,,,,,,,,,,,801.6490802001208,None,802.2990045000333,802.8993621999398,802.8833633000031,804.8836672999896,None,1,0.6138494003098458,2.614172200206667,decreament,0.6,11,standard,None,100,,,,,,,,f,22,204,fr,r,0,raw,2022-05-17_10h38.02.742,oddball,2022.1.2,60.01644449127052,
5,,,,,0,0,0,1,6,0,6,0,10,0,10,0,,,,,,,,,,,,,,,,,804.899961899966,None,805.4506461999845,806.0503287001047,806.0339023999404,808.0347959001083,None,1,0.6115518000442535,2.61246609990485,decreament,0.6,11,standard,None,100,,,,,,,,f,22,204,fr,r,0,raw,2022-05-17_10h38.02.742,oddball,2022.1.2,60.01644449127052,
5,,,,,0,0,0,1,6,0,6,0,11,0,11,0,,,,,,,,,,,,,,,,,808.0514893000945,None,808.7682771999389,809.3686895000283,809.352364399936,811.3526318001095,None,1,0.6140491000842303,2.614260300062597,decreament,0.6,11,standard,None,100,,,,,,,,f,22,204,fr,r,0,raw,2022-05-17_10h38.02.742,oddball,2022.1.2,60.01644449127052,
5,,,,,0,0,0,1,6,0,6,0,12,0,12,0,,,,,,,,,,,,,,,,,811.3694035001099,None,811.9862607000396,812.3527685001027,812.3197534999344,814.3203002000228,j,1,0.36345580010674894,2.363935000030324,decreament,0.36,13,oddball,j,60,0.7227438997942954,,,,,,,f,22,204,fr,r,0,raw,2022-05-17_10h38.02.742,oddball,2022.1.2,60.01644449127052,
5,,,,,0,0,0,1,6,0,6,0,13,0,13,0,,,,,,,,,,,,,,,,,814.3371625000145,None,814.953877999913,815.5547607999761,815.5381012000144,817.5379677999299,None,1,0.6131702996790409,2.6129290997050703,decreament,0.6,11,standard,None,100,,,,,,,,f,22,204,fr,r,0,raw,2022-05-17_10h38.02.742,oddball,2022.1.2,60.01644449127052,
5,,,,,0,0,0,1,6,0,6,0,14,0,14,0,,,,,,,,,,,,,,,,,817.5546085999813,None,818.2885612000246,818.8888568000402,818.8720136999618,820.8730917000212,None,1,0.6126434998586774,2.613771499833092,decreament,0.6,11,standard,None,100,,,,,,,,f,22,204,fr,r,0,raw,2022-05-17_10h38.02.742,oddball,2022.1.2,60.01644449127052,
5,,,,,0,0,0,1,6,0,6,0,15,0,15,0,,,,,,,,,,,,,,,,,820.8894634000026,None,821.5067195000593,822.1070536000188,822.0904614001047,824.0903938000556,None,1,0.6122582000680268,2.612072499934584,decreament,0.6,11,standard,None,100,,,,,,,,f,22,204,fr,r,0,raw,2022-05-17_10h38.02.742,oddball,2022.1.2,60.01644449127052,
5,,,,,0,0,0,1,6,0,6,0,16,0,16,0,,,,,,,,,,,,,,,,,824.1073636999354,None,824.6576292000245,825.2579642999917,825.2412034999579,827.2422678000294,None,1,0.6129822002258152,2.6141050001606345,decreament,0.6,11,standard,None,100,,,,,,,,f,22,204,fr,r,0,raw,2022-05-17_10h38.02.742,oddball,2022.1.2,60.01644449127052,
5,,,,,0,0,0,1,6,0,6,0,17,0,17,0,,,,,,,,,,,,,,,,,827.2585946000181,None,827.8089902000502,828.4089881000109,828.3925870000385,830.3929544999264,None,1,0.6117066997103393,2.6120742997154593,decreament,0.6,11,standard,None,100,,,,,,,,f,22,204,fr,r,0,raw,2022-05-17_10h38.02.742,oddball,2022.1.2,60.01644449127052,
5,,,,,0,0,0,1,6,0,6,0,18,0,18,0,,,,,,,,,,,,,,,,,830.4098914000206,None,831.0936090999749,831.6935344000813,831.6769409000408,833.6776272000279,None,1,0.6121976000722498,2.6128996000625193,decreament,0.6,11,standard,None,100,,,,,,,,f,22,204,fr,r,0,raw,2022-05-17_10h38.02.742,oddball,2022.1.2,60.01644449127052,
5,,,,,0,0,0,1,6,0,6,0,19,0,19,0,,,,,,,,,,,,,,,,,833.6943554999307,None,834.2613160999026,834.861492899945,834.8451006999239,836.8455085000023,None,1,0.6114090997725725,2.6118150998372585,decreament,0.6,11,standard,None,100,,,,,,,,f,22,204,fr,r,0,raw,2022-05-17_10h38.02.742,oddball,2022.1.2,60.01644449127052,
5,,,,,0,0,0,1,6,0,6,0,20,0,20,0,,,,,,,,,,,,,,,,,836.8623093001079,None,837.4295685999095,838.0293922000565,838.012798300013,840.013844500063,None,1,0.6113385998178273,2.6124495998956263,decreament,0.6,11,standard,None,100,,,,,,,,f,22,204,fr,r,0,raw,2022-05-17_10h38.02.742,oddball,2022.1.2,60.01644449127052,
5,,,,,0,0,0,1,6,0,6,0,21,0,21,0,,,,,,,,,,,,,,,,,840.0299496001098,None,840.6805434001144,841.2807253000792,841.2639623000287,843.2644289000891,None,1,0.6126350997947156,2.613082499941811,decreament,0.6,11,standard,None,100,,,,,,,,f,22,204,fr,r,0,raw,2022-05-17_10h38.02.742,oddball,2022.1.2,60.01644449127052,
5,,,,,0,0,0,1,6,0,6,0,22,0,22,0,,,,,,,,,,,,,,,,,843.2812530999072,None,843.948351399973,844.4317075998988,844.3984328000806,846.3995334999636,j,1,0.480018800124526,2.4812220002058893,decreament,0.48,14,oddball,j,80,0.7072987998835742,,,,,,,f,22,204,fr,r,0,raw,2022-05-17_10h38.02.742,oddball,2022.1.2,60.01644449127052,
5,,,,,0,0,0,1,6,0,6,0,23,0,23,0,,,,,,,,,,,,,,,,,846.4158111000434,None,847.1328239000868,847.733192200074,847.7164481000509,849.7170174000785,None,1,0.6121576000005007,2.6127201998606324,decreament,0.6,11,standard,None,100,,,,,,,,f,22,204,fr,r,0,raw,2022-05-17_10h38.02.742,oddball,2022.1.2,60.01644449127052,
5,,,,,0,0,0,1,6,0,6,0,24,0,24,0,,,,,,,,,,,,,,,,,849.7339391000569,None,850.5341000999324,851.1342615000904,851.1175450000446,853.1186464999337,None,1,0.6121097998693585,2.613296599825844,decreament,0.6,11,standard,None,100,,,,,,,,f,22,204,fr,r,0,raw,2022-05-17_10h38.02.742,oddball,2022.1.2,60.01644449127052,
5,,,,,0,0,0,1,6,0,6,0,25,0,25,0,,,,,,,,,,,,,,,,,853.1352647999302,None,853.9354328000918,854.5353808999062,854.5191921000369,856.5199279000517,j,0,0.6117306998930871,2.612524699885398,decreament,0.6,11,standard,None,100,1.4993446997832507,,,,,,,f,22,204,fr,r,0,raw,2022-05-17_10h38.02.742,oddball,2022.1.2,60.01644449127052,
5,,,,,0,0,0,1,6,0,6,0,26,0,26,0,,,,,,,,,,,,,,,,,856.5363749999087,None,857.2365602001082,857.837018399965,857.8204399000388,859.8208065999206,None,1,0.6127173998393118,2.6130917998962104,decreament,0.6,11,standard,None,100,,,,,,,,f,22,204,fr,r,0,raw,2022-05-17_10h38.02.742,oddball,2022.1.2,60.01644449127052,
5,,,,,0,0,0,1,6,0,6,0,27,0,27,0,,,,,,,,,,,,,,,,,859.8377406999934,None,860.4210884999484,861.0218340998981,861.0052006999031,863.0053954999894,None,1,0.6144823001231998,2.614375000121072,decreament,0.6,11,standard,None,100,,,,,,,,f,22,204,fr,r,0,raw,2022-05-17_10h38.02.742,oddball,2022.1.2,60.01644449127052,
5,,,,,0,0,0,1,6,0,6,0,28,0,28,0,,,,,,,,,,,,,,,,,863.0224337999243,None,863.7555742999539,864.0057667000219,863.972406399902,865.9733335999772,j,1,0.24663939978927374,2.247585899895057,decreament,0.24,12,oddball,j,40,0.9171124000567943,,,,,,,f,22,204,fr,r,0,raw,2022-05-17_10h38.02.742,oddball,2022.1.2,60.01644449127052,
5,,,,,0,0,0,1,6,0,6,0,29,0,29,0,,,,,,,,,,,,,,,,,865.9900333001278,None,866.6900925999507,867.2900439000223,867.2733577999752,869.2743214999791,None,1,0.6123411001171917,2.613334500230849,decreament,0.6,11,standard,None,100,,,,,,,,f,22,204,fr,r,0,raw,2022-05-17_10h38.02.742,oddball,2022.1.2,60.01644449127052,
5,,,,,0,0,0,1,7,0,7,0,0,0,0,0,,,,,,,,,,,,,,,871.9463349001016,None,877.7107031999622,None,878.345009499928,878.9446109000128,878.928279899992,880.9288697000593,None,1,0.6099129999056458,2.610486899735406,increament,0.6,15,standard,None,100,,869.2916389000602,None,,,,,f,22,204,fr,r,0,raw,2022-05-17_10h38.02.742,oddball,2022.1.2,60.01644449127052,
5,,,,,0,0,0,1,7,0,7,0,1,0,1,0,,,,,,,,,,,,,,,,,880.9454769000877,None,881.7792221999262,882.3793351999484,882.3627228999976,884.3634254999924,None,1,0.6131972998846322,2.613939899718389,increament,0.6,15,standard,None,100,,,,,,,,f,22,204,fr,r,0,raw,2022-05-17_10h38.02.742,oddball,2022.1.2,60.01644449127052,
5,,,,,0,0,0,1,7,0,7,0,2,0,2,0,,,,,,,,,,,,,,,,,884.3802122999914,None,885.0138455000706,885.6141586001031,885.597484299913,887.5979867000133,None,1,0.6124847999308258,2.612948599969968,increament,0.6,15,standard,None,100,,,,,,,,f,22,204,fr,r,0,raw,2022-05-17_10h38.02.742,oddball,2022.1.2,60.01644449127052,
5,,,,,0,0,0,1,7,0,7,0,3,0,3,0,,,,,,,,,,,,,,,,,887.6149885999039,None,888.3486878999975,888.9485379999969,888.9320797000546,890.932835600106,None,1,0.6130380998365581,2.6137604999821633,increament,0.6,15,standard,None,100,,,,,,,,f,22,204,fr,r,0,raw,2022-05-17_10h38.02.742,oddball,2022.1.2,60.01644449127052,
5,,,,,0,0,0,1,7,0,7,0,4,0,4,0,,,,,,,,,,,,,,,,,890.9494187000673,None,891.6664338998962,892.2665597999003,892.2501767000649,894.2508624999318,None,1,0.6108468000311404,2.6115144002251327,increament,0.6,15,standard,None,100,,,,,,,,f,22,204,fr,r,0,raw,2022-05-17_10h38.02.742,oddball,2022.1.2,60.01644449127052,
5,,,,,0,0,0,1,7,0,7,0,5,0,5,0,,,,,,,,,,,,,,,,,894.2675560999196,None,895.0178131000139,895.6175782000646,895.6011191001162,897.6018046999816,None,1,0.6126164000015706,2.613342500058934,increament,0.6,15,standard,None,100,,,,,,,,f,22,204,fr,r,0,raw,2022-05-17_10h38.02.742,oddball,2022.1.2,60.01644449127052,
5,,,,,0,0,0,1,7,0,7,0,6,0,6,0,,,,,,,,,,,,,,,,,897.6186526000965,None,898.1688200000208,898.7688704999164,898.7525559999049,900.7531858999282,None,1,0.6126872997265309,2.6133447997272015,increament,0.6,15,standard,None,100,,,,,,,,f,22,204,fr,r,0,raw,2022-05-17_10h38.02.742,oddball,2022.1.2,60.01644449127052,
5,,,,,0,0,0,1,7,0,7,0,7,0,7,0,,,,,,,,,,,,,,,,,900.770052799955,None,901.3700999999419,901.9704712000675,901.9537190999836,903.9543659999035,None,1,0.6132307001389563,2.6138746000360698,increament,0.6,15,standard,None,100,,,,,,,,f,22,204,fr,r,0,raw,2022-05-17_10h38.02.742,oddball,2022.1.2,60.01644449127052,
5,,,,,0,0,0,1,7,0,7,0,8,0,8,0,,,,,,,,,,,,,,,,,903.9708920000121,None,904.5379699999467,905.1381681000348,905.122014899971,907.1220553999301,None,1,0.6123594997916371,2.612346099689603,increament,0.6,15,standard,None,100,,,,,,,,f,22,204,fr,r,0,raw,2022-05-17_10h38.02.742,oddball,2022.1.2,60.01644449127052,
5,,,,,0,0,0,1,7,0,7,0,9,0,9,0,,,,,,,,,,,,,,,,,907.1390118999407,None,907.7389444001019,908.3392141999211,908.3224941999651,910.3234506000299,None,1,0.6132507999427617,2.614240099908784,increament,0.6,15,standard,None,100,,,,,,,,f,22,204,fr,r,0,raw,2022-05-17_10h38.02.742,oddball,2022.1.2,60.01644449127052,
5,,,,,0,0,0,1,7,0,7,0,10,0,10,0,,,,,,,,,,,,,,,,,910.3403664999641,None,911.0570259001106,911.790845700074,911.7575181000866,913.7581992000341,j,1,0.7292627999559045,2.7299293999094516,increament,0.72,16,oddball,j,120,0.7799449998419732,,,,,,,f,22,204,fr,r,0,raw,2022-05-17_10h38.02.742,oddball,2022.1.2,60.01644449127052,
5,,,,,0,0,0,1,7,0,7,0,11,0,11,0,,,,,,,,,,,,,,,,,913.7745674999896,None,914.3584980000742,914.9585665999912,914.942216000054,916.9425310001243,None,1,0.6099274000152946,2.6101683999877423,increament,0.6,15,standard,None,100,,,,,,,,f,22,204,fr,r,0,raw,2022-05-17_10h38.02.742,oddball,2022.1.2,60.01644449127052,
5,,,,,0,0,0,1,7,0,7,0,12,0,12,0,,,,,,,,,,,,,,,,,916.959221099969,None,917.5094379000366,918.1095370000694,918.0929233001079,920.0936938999221,None,1,0.6118408998008817,2.6126121999695897,increament,0.6,15,standard,None,100,,,,,,,,f,22,204,fr,r,0,raw,2022-05-17_10h38.02.742,oddball,2022.1.2,60.01644449127052,
5,,,,,0,0,0,1,7,0,7,0,13,0,13,0,,,,,,,,,,,,,,,,,920.1104019000195,None,920.7107190999668,921.3108723000623,921.2944422001019,923.2949016999919,None,1,0.6132306999061257,2.613703199895099,increament,0.6,15,standard,None,100,,,,,,,,f,22,204,fr,r,0,raw,2022-05-17_10h38.02.742,oddball,2022.1.2,60.01644449127052,
5,,,,,0,0,0,1,7,0,7,0,14,0,14,0,,,,,,,,,,,,,,,,,923.3115699999034,None,923.9289889000356,924.5286326999776,924.5123536000028,926.5131079000421,None,1,0.6096198000013828,2.610443599987775,increament,0.6,15,standard,None,100,,,,,,,,f,22,204,fr,r,0,raw,2022-05-17_10h38.02.742,oddball,2022.1.2,60.01644449127052,
5,,,,,0,0,0,1,7,0,7,0,15,0,15,0,,,,,,,,,,,,,,,,,926.5296324999072,None,927.0964850999881,927.946420900058,927.9130615999456,929.9141100998968,None,0,0.845903400098905,2.846999900182709,increament,0.84,17,oddball,j,140,,,,,,,,f,22,204,fr,r,0,raw,2022-05-17_10h38.02.742,oddball,2022.1.2,60.01644449127052,
5,,,,,0,0,0,1,7,0,7,0,16,0,16,0,,,,,,,,,,,,,,,,,929.9307500999421,None,930.514552500099,931.114654700039,931.0984135000035,933.0987591999583,None,1,0.6101286998018622,2.610451699933037,increament,0.6,15,standard,None,100,,,,,,,,f,22,204,fr,r,0,raw,2022-05-17_10h38.02.742,oddball,2022.1.2,60.01644449127052,
5,,,,,0,0,0,1,7,0,7,0,17,0,17,0,,,,,,,,,,,,,,,,,933.1156134000048,None,933.6995039999019,934.2991148999427,934.2824919999111,936.2833716000896,None,1,0.6120738999452442,2.612979299854487,increament,0.6,15,standard,None,100,,,,,,,,f,22,204,fr,r,0,raw,2022-05-17_10h38.02.742,oddball,2022.1.2,60.01644449127052,
5,,,,,0,0,0,1,7,0,7,0,18,0,18,0,,,,,,,,,,,,,,,,,936.2999571999535,None,937.1005098000169,937.7005082000978,937.6839131000452,939.6845374000259,None,1,0.6095680999569595,2.6102898998651654,increament,0.6,15,standard,None,100,,,,,,,,f,22,204,fr,r,0,raw,2022-05-17_10h38.02.742,oddball,2022.1.2,60.01644449127052,
5,,,,,0,0,0,1,7,0,7,0,19,0,19,0,,,,,,,,,,,,,,,,,939.7013880999293,None,940.3347988000605,940.934789000079,940.9183898000047,942.9190225999337,None,1,0.6113619001116604,2.61203800002113,increament,0.6,15,standard,None,100,,,,,,,,f,22,204,fr,r,0,raw,2022-05-17_10h38.02.742,oddball,2022.1.2,60.01644449127052,
5,,,,,0,0,0,1,7,0,7,0,20,0,20,0,,,,,,,,,,,,,,,,,942.9359337999485,None,943.5528192000929,944.1525369000155,944.1360744999256,946.1371337000746,None,1,0.6123943999409676,2.613500399980694,increament,0.6,15,standard,None,100,,,,,,,,f,22,204,fr,r,0,raw,2022-05-17_10h38.02.742,oddball,2022.1.2,60.01644449127052,
5,,,,,0,0,0,1,7,0,7,0,21,0,21,0,,,,,,,,,,,,,,,,,946.1536179999821,None,946.7538854999002,947.3545160000212,947.337803900009,949.3381672999822,None,1,0.6133103999309242,2.6136289997957647,increament,0.6,15,standard,None,100,,,,,,,,f,22,204,fr,r,0,raw,2022-05-17_10h38.02.742,oddball,2022.1.2,60.01644449127052,
5,,,,,0,0,0,1,7,0,7,0,22,0,22,0,,,,,,,,,,,,,,,,,949.3549450000282,None,949.92191429995,950.8888725000434,950.8556101000868,952.8562698999885,j,1,0.9595393999479711,2.9601666999515146,increament,0.96,18,oddball,j,160,0.5775979997124523,,,,,,,f,22,204,fr,r,0,raw,2022-05-17_10h38.02.742,oddball,2022.1.2,60.01644449127052,
5,,,,,0,0,0,1,7,0,7,0,23,0,23,0,,,,,,,,,,,,,,,,,952.8729526000097,None,953.4063685999718,954.0067344999406,953.990187499905,955.9907456000801,None,1,0.6127733998000622,2.613298799842596,increament,0.6,15,standard,None,100,,,,,,,,f,22,204,fr,r,0,raw,2022-05-17_10h38.02.742,oddball,2022.1.2,60.01644449127052,
5,,,,,0,0,0,1,7,0,7,0,24,0,24,0,,,,,,,,,,,,,,,,,956.0075370001141,None,956.6245230000932,957.2244229000062,957.2079038000666,959.208482200047,None,1,0.6092927998397499,2.609837800031528,increament,0.6,15,standard,None,100,,,,,,,,f,22,204,fr,r,0,raw,2022-05-17_10h38.02.742,oddball,2022.1.2,60.01644449127052,
5,,,,,0,0,0,1,7,0,7,0,25,0,25,0,,,,,,,,,,,,,,,,,959.2253904999234,None,959.875500400085,960.4758192000445,960.459427600028,962.4597998000681,None,1,0.6131402999162674,2.613415899919346,increament,0.6,15,standard,None,100,,,,,,,,f,22,204,fr,r,0,raw,2022-05-17_10h38.02.742,oddball,2022.1.2,60.01644449127052,
5,,,,,0,0,0,1,7,0,7,0,26,0,26,0,,,,,,,,,,,,,,,,,962.4767509000376,None,963.0770809999667,963.677016499918,963.660607600119,965.6613336999435,None,1,0.6121662997175008,2.612965599866584,increament,0.6,15,standard,None,100,,,,,,,,f,22,204,fr,r,0,raw,2022-05-17_10h38.02.742,oddball,2022.1.2,60.01644449127052,
5,,,,,0,0,0,1,7,0,7,0,27,0,27,0,,,,,,,,,,,,,,,,,965.6789474999532,None,966.2615259999875,966.8619180999231,966.8450074000284,968.8458865000866,None,1,0.6127585999201983,2.613685099873692,increament,0.6,15,standard,None,100,,,,,,,,f,22,204,fr,r,0,raw,2022-05-17_10h38.02.742,oddball,2022.1.2,60.01644449127052,
5,,,,,0,0,0,1,7,0,7,0,28,0,28,0,,,,,,,,,,,,,,,,,968.8624724999536,None,969.5957392998971,970.1962369999383,970.1792836999521,972.1801150999963,None,1,0.6139823999255896,2.6148230999242514,increament,0.6,15,standard,None,100,,,,,,,,f,22,204,fr,r,0,raw,2022-05-17_10h38.02.742,oddball,2022.1.2,60.01644449127052,
5,,,,,0,0,0,1,7,0,7,0,29,0,29,0,,,,,,,,,,,,,,,,,972.1969187001232,None,972.8638693999965,973.4636782000307,973.4472099998966,975.4481387000997,None,1,0.6124772001057863,2.61338680004701,increament,0.6,15,standard,None,100,,,,,,,,f,22,204,fr,r,0,raw,2022-05-17_10h38.02.742,oddball,2022.1.2,60.01644449127052,
5,,,,,0,0,0,1,8,0,8,0,0,0,0,0,,,,,,,,,,,,,,,978.1107771999668,None,986.168907900108,None,986.8858042999636,987.4860777999274,987.4693428000901,989.4701219999697,None,1,0.6092166998423636,2.6100084998179227,decreament,0.6,11,standard,None,100,,975.4649191999342,None,,,,,f,22,204,fr,r,0,raw,2022-05-17_10h38.02.742,oddball,2022.1.2,60.01644449127052,
5,,,,,0,0,0,1,8,0,8,0,1,0,1,0,,,,,,,,,,,,,,,,,989.4866814000998,None,990.1370705999434,990.7370428000577,990.7208078000695,992.7213357000146,None,1,0.6125129999127239,2.613015300128609,decreament,0.6,11,standard,None,100,,,,,,,,f,22,204,fr,r,0,raw,2022-05-17_10h38.02.742,oddball,2022.1.2,60.01644449127052,
5,,,,,0,0,0,1,8,0,8,0,2,0,2,0,,,,,,,,,,,,,,,,,992.7382736001164,None,993.3052403000183,993.9049945001025,993.8889558000956,995.8894219000358,None,1,0.6114734001457691,2.611906500067562,decreament,0.6,11,standard,None,100,,,,,,,,f,22,204,fr,r,0,raw,2022-05-17_10h38.02.742,oddball,2022.1.2,60.01644449127052,
5,,,,,0,0,0,1,8,0,8,0,3,0,3,0,,,,,,,,,,,,,,,,,995.9057678999379,None,996.5895505999215,997.1897400000598,997.1729067999404,999.1742004000116,None,1,0.6126023000106215,2.6140639998484403,decreament,0.6,11,standard,None,100,,,,,,,,f,22,204,fr,r,0,raw,2022-05-17_10h38.02.742,oddball,2022.1.2,60.01644449127052,
5,,,,,0,0,0,1,8,0,8,0,4,0,4,0,,,,,,,,,,,,,,,,,999.1903335999232,None,1000.0408497999888,1000.6408691001125,1000.6246231999248,1002.6254320999142,None,1,0.6117547999601811,2.612615499878302,decreament,0.6,11,standard,None,100,,,,,,,,f,22,204,fr,r,0,raw,2022-05-17_10h38.02.742,oddball,2022.1.2,60.01644449127052,
5,,,,,0,0,0,1,8,0,8,0,5,0,5,0,,,,,,,,,,,,,,,,,1002.6416782001033,None,1003.1916837999597,1003.7918803000357,1003.7754224000964,1005.7766541000456,None,1,0.6134846999775618,2.6148065000306815,decreament,0.6,11,standard,None,100,,,,,,,,f,22,204,fr,r,0,raw,2022-05-17_10h38.02.742,oddball,2022.1.2,60.01644449127052,
5,,,,,0,0,0,1,8,0,8,0,6,0,6,0,,,,,,,,,,,,,,,,,1005.794073899975,None,1006.5267410001252,1007.1268813000061,1007.1101846001111,1009.1109555999283,None,1,0.6134169001597911,2.614161300007254,decreament,0.6,11,standard,None,100,,,,,,,,f,22,204,fr,r,0,raw,2022-05-17_10h38.02.742,oddball,2022.1.2,60.01644449127052,
5,,,,,0,0,0,1,8,0,8,0,7,0,7,0,,,,,,,,,,,,,,,,,1009.1273396001197,None,1009.7277108000126,1010.3284481000155,1010.3116196999326,1012.3119558999315,None,1,0.6131251999177039,2.6134530999697745,decreament,0.6,11,standard,None,100,,,,,,,,f,22,204,fr,r,0,raw,2022-05-17_10h38.02.742,oddball,2022.1.2,60.01644449127052,
5,,,,,0,0,0,1,8,0,8,0,8,0,8,0,,,,,,,,,,,,,,,,,1012.3288507000543,None,1013.0628446000628,1013.4290871000849,1013.3958904999308,1015.3964331001043,j,1,0.3624686999246478,2.362910899799317,decreament,0.36,13,oddball,j,60,0.8048474998213351,,,,,,,f,22,204,fr,r,0,raw,2022-05-17_10h38.02.742,oddball,2022.1.2,60.01644449127052,
5,,,,,0,0,0,1,8,0,8,0,9,0,9,0,,,,,,,,,,,,,,,,,1015.4132705999073,None,1016.0969636000227,1016.6974369001109,1016.6804837000091,1018.6811051999684,None,1,0.6094219000078738,2.6100087000522763,decreament,0.6,11,standard,None,100,,,,,,,,f,22,204,fr,r,0,raw,2022-05-17_10h38.02.742,oddball,2022.1.2,60.01644449127052,
5,,,,,0,0,0,1,8,0,8,0,10,0,10,0,,,,,,,,,,,,,,,,,1018.6976892999373,None,1019.231389899971,1019.8318499999586,1019.8149615000002,1021.8159127000254,None,1,0.6111095999367535,2.612080099992454,decreament,0.6,11,standard,None,100,,,,,,,,f,22,204,fr,r,0,raw,2022-05-17_10h38.02.742,oddball,2022.1.2,60.01644449127052,
5,,,,,0,0,0,1,8,0,8,0,11,0,11,0,,,,,,,,,,,,,,,,,1021.833057400072,None,1022.4326933999546,1023.032557999948,1023.0162382000126,1025.0165448999032,None,1,0.6118039998691529,2.6120706000365317,decreament,0.6,11,standard,None,100,,,,,,,,f,22,204,fr,r,0,raw,2022-05-17_10h38.02.742,oddball,2022.1.2,60.01644449127052,
5,,,,,0,0,0,1,8,0,8,0,12,0,12,0,,,,,,,,,,,,,,,,,1025.0333710999694,None,1025.7672465001233,1026.2512384001166,1026.2173136000056,1028.2183125000447,None,0,0.47904469980858266,2.480124999769032,decreament,0.48,14,oddball,j,80,,,,,,,,f,22,204,fr,r,0,raw,2022-05-17_10h38.02.742,oddball,2022.1.2,60.01644449127052,
5,,,,,0,0,0,1,8,0,8,0,13,0,13,0,,,,,,,,,,,,,,,,,1028.234713899903,None,1028.9849070000928,1029.5850726999342,1029.5685825000983,1031.5694621999282,None,1,0.612597200088203,2.613564500119537,decreament,0.6,11,standard,None,100,,,,,,,,f,22,204,fr,r,0,raw,2022-05-17_10h38.02.742,oddball,2022.1.2,60.01644449127052,
5,,,,,0,0,0,1,8,0,8,0,14,0,14,0,,,,,,,,,,,,,,,,,1031.5862283001188,None,1032.1695840000175,1032.7697640999686,1032.7531024999917,1034.7536762000527,None,1,0.6131046996451914,2.613674899796024,decreament,0.6,11,standard,None,100,,,,,,,,f,22,204,fr,r,0,raw,2022-05-17_10h38.02.742,oddball,2022.1.2,60.01644449127052,
5,,,,,0,0,0,1,8,0,8,0,15,0,15,0,,,,,,,,,,,,,,,,,1034.770557000069,None,1035.5210828001145,1036.1211248999462,1036.1046849999111,1038.1052393000573,None,1,0.6120853999163955,2.6126032997854054,decreament,0.6,11,standard,None,100,,,,,,,,f,22,204,fr,r,0,raw,2022-05-17_10h38.02.742,oddball,2022.1.2,60.01644449127052,
5,,,,,0,0,0,1,8,0,8,0,16,0,16,0,,,,,,,,,,,,,,,,,1038.1217448001262,None,1038.7890467001125,1039.0391712000128,1039.0056620000396,1041.0064294999465,j,1,0.2425210999790579,2.243350600125268,decreament,0.24,12,oddball,j,40,0.9070716998539865,,,,,,,f,22,204,fr,r,0,raw,2022-05-17_10h38.02.742,oddball,2022.1.2,60.01644449127052,
5,,,,,0,0,0,1,8,0,8,0,17,0,17,0,,,,,,,,,,,,,,,,,1041.0229489000048,None,1041.5731122998986,1042.1732715999242,1042.157235499937,1044.1575502001215,None,1,0.6120430997107178,2.612345399800688,decreament,0.6,11,standard,None,100,,,,,,,,f,22,204,fr,r,0,raw,2022-05-17_10h38.02.742,oddball,2022.1.2,60.01644449127052,
5,,,,,0,0,0,1,8,0,8,0,18,0,18,0,,,,,,,,,,,,,,,,,1044.1740622001234,None,1044.7913526999764,1045.3913265001029,1045.374882800039,1047.3755272000562,None,1,0.6101181998383254,2.610697199823335,decreament,0.6,11,standard,None,100,,,,,,,,f,22,204,fr,r,0,raw,2022-05-17_10h38.02.742,oddball,2022.1.2,60.01644449127052,
5,,,,,0,0,0,1,8,0,8,0,19,0,19,0,,,,,,,,,,,,,,,,,1047.3918876999523,None,1048.092161100125,1048.6921288999729,1048.6755148000084,1050.6766969000455,None,1,0.6134061997290701,2.6145970998331904,decreament,0.6,11,standard,None,100,,,,,,,,f,22,204,fr,r,0,raw,2022-05-17_10h38.02.742,oddball,2022.1.2,60.01644449127052,
5,,,,,0,0,0,1,8,0,8,0,20,0,20,0,,,,,,,,,,,,,,,,,1050.6934978000354,None,1051.3602058000397,1051.9602699999232,1051.9438976000529,1053.9446694999933,j,0,0.6115244999527931,2.6123077997472137,decreament,0.6,11,standard,None,100,0.8096686999779195,,,,,,,f,22,204,fr,r,0,raw,2022-05-17_10h38.02.742,oddball,2022.1.2,60.01644449127052,
5,,,,,0,0,0,1,8,0,8,0,21,0,21,0,,,,,,,,,,,,,,,,,1053.9611412000377,None,1054.561294700019,1055.1618188999128,1055.1449828001205,1057.146025300026,None,1,0.6135508997831494,2.614610099699348,decreament,0.6,11,standard,None,100,,,,,,,,f,22,204,fr,r,0,raw,2022-05-17_10h38.02.742,oddball,2022.1.2,60.01644449127052,
5,,,,,0,0,0,1,8,0,8,0,22,0,22,0,,,,,,,,,,,,,,,,,1057.1623349001165,None,1057.862427999964,1058.4627646999434,1058.446557099931,1060.4471756999847,None,1,0.6146139998454601,2.615201799897477,decreament,0.6,11,standard,None,100,,,,,,,,f,22,204,fr,r,0,raw,2022-05-17_10h38.02.742,oddball,2022.1.2,60.01644449127052,
5,,,,,0,0,0,1,8,0,8,0,23,0,23,0,,,,,,,,,,,,,,,,,1060.4636307999026,None,1061.247592000058,1061.8473724001087,1061.8310213000514,1063.831943999976,None,1,0.6107900000642985,2.6117575999815017,decreament,0.6,11,standard,None,100,,,,,,,,f,22,204,fr,r,0,raw,2022-05-17_10h38.02.742,oddball,2022.1.2,60.01644449127052,
5,,,,,0,0,0,1,8,0,8,0,24,0,24,0,,,,,,,,,,,,,,,,,1063.8482474000193,None,1064.4319368000142,1065.0320580999833,1065.0154989000876,1067.0162724000402,None,1,0.6126257998403162,2.6134514999575913,decreament,0.6,11,standard,None,100,,,,,,,,f,22,204,fr,r,0,raw,2022-05-17_10h38.02.742,oddball,2022.1.2,60.01644449127052,
5,,,,,0,0,0,1,8,0,8,0,25,0,25,0,,,,,,,,,,,,,,,,,1067.0328971999697,None,1067.6330120000057,1068.2331926999614,1068.2167189000174,1070.2174291999545,None,1,0.6126131999772042,2.6132855999749154,decreament,0.6,11,standard,None,100,,,,,,,,f,22,204,fr,r,0,raw,2022-05-17_10h38.02.742,oddball,2022.1.2,60.01644449127052,
5,,,,,0,0,0,1,8,0,8,0,26,0,26,0,,,,,,,,,,,,,,,,,1070.234105099924,None,1070.8507803000975,1071.451378900092,1071.4345025999937,1073.4354916999582,None,1,0.6138001999352127,2.614979099947959,decreament,0.6,11,standard,None,100,,,,,,,,f,22,204,fr,r,0,raw,2022-05-17_10h38.02.742,oddball,2022.1.2,60.01644449127052,
5,,,,,0,0,0,1,8,0,8,0,27,0,27,0,,,,,,,,,,,,,,,,,1073.4531431000214,None,1074.102511000121,1074.7022448999342,1074.6856011000928,1076.6865761999507,None,1,0.6109861999284476,2.61201349995099,decreament,0.6,11,standard,None,100,,,,,,,,f,22,204,fr,r,0,raw,2022-05-17_10h38.02.742,oddball,2022.1.2,60.01644449127052,
5,,,,,0,0,0,1,8,0,8,0,28,0,28,0,,,,,,,,,,,,,,,,,1076.7034934000112,None,1077.3365732000675,1077.9370059999637,1077.920509800082,1079.9207685999572,None,1,0.6145087999757379,2.6146755998488516,decreament,0.6,11,standard,None,100,,,,,,,,f,22,204,fr,r,0,raw,2022-05-17_10h38.02.742,oddball,2022.1.2,60.01644449127052,
5,,,,,0,0,0,1,8,0,8,0,29,0,29,0,,,,,,,,,,,,,,,,,1079.9377840999514,None,1080.6711667999625,1081.2713361000642,1081.2548535000533,1083.2559533999301,j,0,0.6134217998478562,2.6146082999184728,decreament,0.6,11,standard,None,100,0.7303071999922395,,,,,,,f,22,204,fr,r,0,raw,2022-05-17_10h38.02.742,oddball,2022.1.2,60.01644449127052,
5,,,,,0,0,0,1,9,0,9,0,0,0,0,0,,,,,,,,,,,,,,,1084.6723786999937,None,1086.2901852000505,None,1086.9570490999613,1087.5568995999638,1087.5403327001259,1089.5414986000396,None,1,0.6112009000498801,2.612413300201297,increament,0.6,15,standard,None,100,,1083.2730586000253,None,,,,,f,22,204,fr,r,0,raw,2022-05-17_10h38.02.742,oddball,2022.1.2,60.01644449127052,
5,,,,,0,0,0,1,9,0,9,0,1,0,1,0,,,,,,,,,,,,,,,,,1089.5580575000495,None,1090.1746968999505,1090.774975300068,1090.7585378000513,1092.7592666998971,None,1,0.613395000109449,2.6142631999682635,increament,0.6,15,standard,None,100,,,,,,,,f,22,204,fr,r,0,raw,2022-05-17_10h38.02.742,oddball,2022.1.2,60.01644449127052,
5,,,,,0,0,0,1,9,0,9,0,2,0,2,0,,,,,,,,,,,,,,,,,1092.776459200075,None,1093.3762884000316,1093.9766860001255,1093.959744400112,1095.9607520999853,None,1,0.6097714002244174,2.6108768000267446,increament,0.6,15,standard,None,100,,,,,,,,f,22,204,fr,r,0,raw,2022-05-17_10h38.02.742,oddball,2022.1.2,60.01644449127052,
5,,,,,0,0,0,1,9,0,9,0,3,0,3,0,,,,,,,,,,,,,,,,,1095.9771457999013,None,1096.5104334999342,1097.1107526998967,1097.094541199971,1099.0948679998983,None,1,0.613949699793011,2.614256899803877,increament,0.6,15,standard,None,100,,,,,,,,f,22,204,fr,r,0,raw,2022-05-17_10h38.02.742,oddball,2022.1.2,60.01644449127052,
5,,,,,0,0,0,1,9,0,9,0,4,0,4,0,,,,,,,,,,,,,,,,,1099.1116297999397,None,1099.7120864999015,1100.311898099957,1100.2953610001132,1102.2962700999342,None,1,0.6122012997511774,2.613135099876672,increament,0.6,15,standard,None,100,,,,,,,,f,22,204,fr,r,0,raw,2022-05-17_10h38.02.742,oddball,2022.1.2,60.01644449127052,
5,,,,,0,0,0,1,9,0,9,0,5,0,5,0,,,,,,,,,,,,,,,,,1102.3130654999986,None,1102.9300438999198,1103.5300998999737,1103.5133607999887,1105.5143784999382,None,1,0.610809899866581,2.6118715999182314,increament,0.6,15,standard,None,100,,,,,,,,f,22,204,fr,r,0,raw,2022-05-17_10h38.02.742,oddball,2022.1.2,60.01644449127052,
5,,,,,0,0,0,1,9,0,9,0,6,0,6,0,,,,,,,,,,,,,,,,,1105.5318974999245,None,1106.230729999952,1106.8310324999038,1106.8164466999006,None,None,1,0.615787599934265,2.614749599713832,increament,0.6,15,standard,None,100,,,,,,,,f,22,204,fr,r,0,raw,2022-05-17_10h38.02.742,oddball,2022.1.2,60.01644449127052,
5,,,,,0,0,0,1,9,0,9,0,7,0,7,0,,,,,,,,,,,,,,,,,1108.8319413000718,None,1109.5654412999284,1110.1660174999852,1110.1494199999142,1112.1498684999533,None,1,0.6135902998503298,2.614044499816373,increament,0.6,15,standard,None,100,,,,,,,,f,22,204,fr,r,0,raw,2022-05-17_10h38.02.742,oddball,2022.1.2,60.01644449127052,
5,,,,,0,0,0,1,9,0,9,0,8,0,8,0,,,,,,,,,,,,,,,,,1112.1666455999948,None,1112.8668529998977,1113.4672848999035,1113.450356299989,1115.4509429999162,None,1,0.612431799992919,2.6129785999655724,increament,0.6,15,standard,None,100,,,,,,,,f,22,204,fr,r,0,raw,2022-05-17_10h38.02.742,oddball,2022.1.2,60.01644449127052,
5,,,,,0,0,0,1,9,0,9,0,9,0,9,0,,,,,,,,,,,,,,,,,1115.4675735000055,None,1116.0681165000424,1116.6682665999979,1116.6514479001053,1118.652440099977,j,0,0.6122689999174327,2.6132837997283787,increament,0.6,15,standard,None,100,0.7413267998490483,,,,,,,f,22,204,fr,r,0,raw,2022-05-17_10h38.02.742,oddball,2022.1.2,60.01644449127052,
5,,,,,0,0,0,1,9,0,9,0,10,0,10,0,,,,,,,,,,,,,,,,,1118.6689242001157,None,1119.268860799959,1119.8691714000888,1119.852747200057,1121.8536306000315,None,1,0.6147139996755868,2.6156207998283207,increament,0.6,15,standard,None,100,,,,,,,,f,22,204,fr,r,0,raw,2022-05-17_10h38.02.742,oddball,2022.1.2,60.01644449127052,
5,,,,,0,0,0,1,9,0,9,0,11,0,11,0,,,,,,,,,,,,,,,,,1121.870037799934,None,1122.570482699899,1123.1708335001022,1123.154258100083,1125.15476569999,None,1,0.6132250998634845,2.613680799957365,increament,0.6,15,standard,None,100,,,,,,,,f,22,204,fr,r,0,raw,2022-05-17_10h38.02.742,oddball,2022.1.2,60.01644449127052,
5,,,,,0,0,0,1,9,0,9,0,12,0,12,0,,,,,,,,,,,,,,,,,1125.171542899916,None,1125.7050419999287,1126.3051319001243,1126.2884541999083,1128.289618199924,None,1,0.612633700016886,2.6138642001897097,increament,0.6,15,standard,None,100,,,,,,,,f,22,204,fr,r,0,raw,2022-05-17_10h38.02.742,oddball,2022.1.2,60.01644449127052,
5,,,,,0,0,0,1,9,0,9,0,13,0,13,0,,,,,,,,,,,,,,,,,1128.3060014001094,None,1128.9396387001034,1129.5399660000112,1129.523098600097,1131.5237219999544,None,1,0.6114199999719858,2.61202419991605,increament,0.6,15,standard,None,100,,,,,,,,f,22,204,fr,r,0,raw,2022-05-17_10h38.02.742,oddball,2022.1.2,60.01644449127052,
5,,,,,0,0,0,1,9,0,9,0,14,0,14,0,,,,,,,,,,,,,,,,,1131.5403736999724,None,1132.2409791999962,1133.2084717000835,1133.1745670000091,1135.1752120999154,j,1,0.9593124999664724,2.959913100115955,increament,0.96,18,oddball,j,160,0.32274460000917315,,,,,,,f,22,204,fr,r,0,raw,2022-05-17_10h38.02.742,oddball,2022.1.2,60.01644449127052,
5,,,,,0,0,0,1,9,0,9,0,15,0,15,0,,,,,,,,,,,,,,,,,1135.1918089999817,None,1135.8256334001198,1136.4256140999496,1136.408857200062,1138.409920200007,None,1,0.6123957999516279,2.6135111998301,increament,0.6,15,standard,None,100,,,,,,,,f,22,204,fr,r,0,raw,2022-05-17_10h38.02.742,oddball,2022.1.2,60.01644449127052,
5,,,,,0,0,0,1,9,0,9,0,16,0,16,0,,,,,,,,,,,,,,,,,1138.4267367001157,None,1139.110140600009,1139.710070699919,1139.6936089999508,1141.6946835999843,None,1,0.6111408998258412,2.6121683998499066,increament,0.6,15,standard,None,100,,,,,,,,f,22,204,fr,r,0,raw,2022-05-17_10h38.02.742,oddball,2022.1.2,60.01644449127052,
5,,,,,0,0,0,1,9,0,9,0,17,0,17,0,,,,,,,,,,,,,,,,,1141.712647400098,None,1142.3614906999283,1142.9615770999808,1142.9451353000477,1144.9456674000248,None,1,0.6143670999445021,2.6149934998247772,increament,0.6,15,standard,None,100,,,,,,,,f,22,204,fr,r,0,raw,2022-05-17_10h38.02.742,oddball,2022.1.2,60.01644449127052,
5,,,,,0,0,0,1,9,0,9,0,18,0,18,0,,,,,,,,,,,,,,,,,1144.962683300022,None,1145.6290833000094,1146.229397200048,1146.2131634999532,1148.2135048001073,None,1,0.6121880002319813,2.612465600250289,increament,0.6,15,standard,None,100,,,,,,,,f,22,204,fr,r,0,raw,2022-05-17_10h38.02.742,oddball,2022.1.2,60.01644449127052,
5,,,,,0,0,0,1,9,0,9,0,19,0,19,0,,,,,,,,,,,,,,,,,1148.2300827999134,None,1149.0142200998962,1149.614152400056,1149.5975369000807,1151.598008000059,None,1,0.6123466999270022,2.6127744999248534,increament,0.6,15,standard,None,100,,,,,,,,f,22,204,fr,r,0,raw,2022-05-17_10h38.02.742,oddball,2022.1.2,60.01644449127052,
5,,,,,0,0,0,1,9,0,9,0,20,0,20,0,,,,,,,,,,,,,,,,,1151.6150410999544,None,1152.2482851999812,1152.848396500107,1152.8321549999528,1154.8326942001004,None,1,0.6124648000113666,2.613007699837908,increament,0.6,15,standard,None,100,,,,,,,,f,22,204,fr,r,0,raw,2022-05-17_10h38.02.742,oddball,2022.1.2,60.01644449127052,
5,,,,,0,0,0,1,9,0,9,0,21,0,21,0,,,,,,,,,,,,,,,,,1154.8494227000047,None,1155.4496732999105,1156.0497912999708,1156.0333140001167,1158.0338661998976,None,1,0.6137214999180287,2.614238299895078,increament,0.6,15,standard,None,100,,,,,,,,f,22,204,fr,r,0,raw,2022-05-17_10h38.02.742,oddball,2022.1.2,60.01644449127052,
5,,,,,0,0,0,1,9,0,9,0,22,0,22,0,,,,,,,,,,,,,,,,,1158.0505321000237,None,1158.7346026001032,1159.584326799959,1159.5509905000217,1161.5520925999153,None,0,0.8445383000653237,2.845711600035429,increament,0.84,17,oddball,j,140,,,,,,,,f,22,204,fr,r,0,raw,2022-05-17_10h38.02.742,oddball,2022.1.2,60.01644449127052,
5,,,,,0,0,0,1,9,0,9,0,23,0,23,0,,,,,,,,,,,,,,,,,1161.5692513000686,None,1162.2359297999647,1162.8356798999012,1162.818889999995,1164.8196634000633,None,1,0.6094003999605775,2.610195599962026,increament,0.6,15,standard,None,100,,,,,,,,f,22,204,fr,r,0,raw,2022-05-17_10h38.02.742,oddball,2022.1.2,60.01644449127052,
5,,,,,0,0,0,1,9,0,9,0,24,0,24,0,,,,,,,,,,,,,,,,,1164.836360400077,None,1165.5368206000421,1166.136961699929,1166.1202773998957,1168.1214566000272,None,1,0.6119800000451505,2.6132365001831204,increament,0.6,15,standard,None,100,,,,,,,,f,22,204,fr,r,0,raw,2022-05-17_10h38.02.742,oddball,2022.1.2,60.01644449127052,
5,,,,,0,0,0,1,9,0,9,0,25,0,25,0,,,,,,,,,,,,,,,,,1168.1375893000513,None,1168.7045627001207,1169.3048910000362,1169.288342300104,1171.2893523001112,None,1,0.6138237998820841,2.614923099987209,increament,0.6,15,standard,None,100,,,,,,,,f,22,204,fr,r,0,raw,2022-05-17_10h38.02.742,oddball,2022.1.2,60.01644449127052,
5,,,,,0,0,0,1,9,0,9,0,26,0,26,0,,,,,,,,,,,,,,,,,1171.305569899967,None,1171.8892751000822,1172.489161200123,1172.4727155000437,1174.4736615000293,None,1,0.6126427000854164,2.6136674999725074,increament,0.6,15,standard,None,100,,,,,,,,f,22,204,fr,r,0,raw,2022-05-17_10h38.02.742,oddball,2022.1.2,60.01644449127052,
5,,,,,0,0,0,1,9,0,9,0,27,0,27,0,,,,,,,,,,,,,,,,,1174.4899120999034,None,1175.306918000104,1176.04099759995,1176.0072304999921,1178.0081456000917,None,0,0.7305960999801755,2.7315030000172555,increament,0.72,16,oddball,j,120,,,,,,,,f,22,204,fr,r,0,raw,2022-05-17_10h38.02.742,oddball,2022.1.2,60.01644449127052,
5,,,,,0,0,0,1,9,0,9,0,28,0,28,0,,,,,,,,,,,,,,,,,1178.0248255999759,None,1178.74180050008,1179.341941300081,1179.3251489999238,1181.3264629999176,None,1,0.612916300073266,2.6142931000795215,increament,0.6,15,standard,None,100,,,,,,,,f,22,204,fr,r,0,raw,2022-05-17_10h38.02.742,oddball,2022.1.2,60.01644449127052,
5,,,,,0,0,0,1,9,0,9,0,29,0,29,0,,,,,,,,,,,,,,,,,1181.3427232000977,None,1181.9597167999018,1182.5599575000815,1182.5434989000205,1184.5435633999296,None,1,0.6115407997276634,2.6114915998186916,increament,0.6,15,standard,None,100,,,,,,,,f,22,204,fr,r,0,raw,2022-05-17_10h38.02.742,oddball,2022.1.2,60.01644449127052,
0,,,,,0,1,1,0,0,0,0,0,0,0,0,0,,,,,,,,,,,,,,,1367.2693143999204,None,1369.4139791000634,None,1370.0308044000994,1370.6308522000909,1370.6144153000787,1372.6152486999054,None,1,0.6124013001099229,2.613266000058502,decreament,0.6,1,standard,None,100,,1364.5789365000091,None,1184.5704121999443,None,,,f,22,204,fr,r,0,raw,2022-05-17_10h38.02.742,oddball,2022.1.2,60.01644449127052,
0,,,,,0,1,1,0,0,0,0,0,1,0,1,0,,,,,,,,,,,,,,,,,1372.6320720999502,None,1373.2989445999265,1373.8994732000865,1373.8824005001225,1375.8829117000569,None,1,0.6128056000452489,2.6132334000431,decreament,0.6,1,standard,None,100,,,,,,,,f,22,204,fr,r,0,raw,2022-05-17_10h38.02.742,oddball,2022.1.2,60.01644449127052,
0,,,,,0,1,1,0,0,0,0,0,2,0,2,0,,,,,,,,,,,,,,,,,1375.8998388000764,None,1376.6165334999096,1377.2172326000873,1377.2004221000243,1379.201124199899,None,1,0.6147505000699311,2.6154774001333863,decreament,0.6,1,standard,None,100,,,,,,,,f,22,204,fr,r,0,raw,2022-05-17_10h38.02.742,oddball,2022.1.2,60.01644449127052,
0,,,,,0,1,1,0,0,0,0,0,3,0,3,0,,,,,,,,,,,,,,,,,1379.2183467999566,None,1379.9515150000807,1380.55140700005,1380.534731999971,1382.535523199942,None,1,0.6115919000003487,2.6123563000001013,decreament,0.6,1,standard,None,100,,,,,,,,f,22,204,fr,r,0,raw,2022-05-17_10h38.02.742,oddball,2022.1.2,60.01644449127052,
0,,,,,0,1,1,0,0,0,0,0,4,0,4,0,,,,,,,,,,,,,,,,,1382.5522362999618,None,1383.1526240000967,1383.7527413999196,1383.735955900047,1385.7369202000555,None,1,0.6107525997795165,2.6117626999039203,decreament,0.6,1,standard,None,100,,,,,,,,f,22,204,fr,r,0,raw,2022-05-17_10h38.02.742,oddball,2022.1.2,60.01644449127052,
0,,,,,0,1,1,0,0,0,0,0,5,0,5,0,,,,,,,,,,,,,,,,,1385.7535663999151,None,1386.3537147000898,1386.9537774999626,1386.9371348998975,1388.9379467000253,None,1,0.6134060998447239,2.614226099802181,decreament,0.6,1,standard,None,100,,,,,,,,f,22,204,fr,r,0,raw,2022-05-17_10h38.02.742,oddball,2022.1.2,60.01644449127052,
0,,,,,0,1,1,0,0,0,0,0,6,0,6,0,,,,,,,,,,,,,,,,,1388.9542757000308,None,1389.6384161000606,1390.121673299931,1390.0887750000693,1392.0894311000593,None,0,0.4794220000039786,2.4801431000232697,decreament,0.48,4,oddball,j,80,,,,,,,,f,22,204,fr,r,0,raw,2022-05-17_10h38.02.742,oddball,2022.1.2,60.01644449127052,
0,,,,,0,1,1,0,0,0,0,0,7,0,7,0,,,,,,,,,,,,,,,,,1392.1067572999746,None,1392.8394086000044,1393.4398745999206,1393.4233583000023,1395.4239958999678,None,1,0.6128900002222508,2.6135473002213985,decreament,0.6,1,standard,None,100,,,,,,,,f,22,204,fr,r,0,raw,2022-05-17_10h38.02.742,oddball,2022.1.2,60.01644449127052,
0,,,,,0,1,1,0,0,0,0,0,8,0,8,0,,,,,,,,,,,,,,,,,1395.441097999923,None,1395.9740977999754,1396.5745745999739,1396.557668399997,1398.5583454000298,None,1,0.6113346999045461,2.6119646998122334,decreament,0.6,1,standard,None,100,,,,,,,,f,22,204,fr,r,0,raw,2022-05-17_10h38.02.742,oddball,2022.1.2,60.01644449127052,
0,,,,,0,1,1,0,0,0,0,0,9,0,9,0,,,,,,,,,,,,,,,,,1398.574752900051,None,1399.1753670999315,1399.7755100999493,1399.7587230999488,1401.7594679000322,None,1,0.6060770000331104,2.606807499891147,decreament,0.6,1,standard,None,100,,,,,,,,f,22,204,fr,r,0,raw,2022-05-17_10h38.02.742,oddball,2022.1.2,60.01644449127052,
0,,,,,0,1,1,0,0,0,0,0,10,0,10,0,,,,,,,,,,,,,,,,,1401.7761868000962,None,1402.410093900049,1403.0100138001144,1402.9934340999462,1404.9942670001183,None,1,0.6096886999439448,2.6105599000584334,decreament,0.6,1,standard,None,100,,,,,,,,f,22,204,fr,r,0,raw,2022-05-17_10h38.02.742,oddball,2022.1.2,60.01644449127052,
0,,,,,0,1,1,0,0,0,0,0,11,0,11,0,,,,,,,,,,,,,,,,,1405.0107106999494,None,1405.5613242001273,1406.1614326001145,1406.1449482000899,1408.1453370000236,j,0,0.6109379001427442,2.611292300047353,decreament,0.6,1,standard,None,100,0.9185806999448687,,,,,,,f,22,204,fr,r,0,raw,2022-05-17_10h38.02.742,oddball,2022.1.2,60.01644449127052,
0,,,,,0,1,1,0,0,0,0,0,12,0,12,0,,,,,,,,,,,,,,,,,1408.161913299933,None,1408.9124241000973,1409.512313199928,1409.4957582999486,1411.4967229999602,None,1,0.6129851001314819,2.6140166001860052,decreament,0.6,1,standard,None,100,,,,,,,,f,22,204,fr,r,0,raw,2022-05-17_10h38.02.742,oddball,2022.1.2,60.01644449127052,
0,,,,,0,1,1,0,0,0,0,0,13,0,13,0,,,,,,,,,,,,,,,,,1411.5131896999665,None,1412.1968924000394,1412.7967346999794,1412.7802099001128,1414.7810082999058,None,1,0.6110159000381827,2.611834099981934,decreament,0.6,1,standard,None,100,,,,,,,,f,22,204,fr,r,0,raw,2022-05-17_10h38.02.742,oddball,2022.1.2,60.01644449127052,
