grating_freq,blocks_prac.thisRepN,blocks_prac.thisTrialN,blocks_prac.thisN,blocks_prac.thisIndex,blocks.thisRepN,blocks.thisTrialN,blocks.thisN,blocks.thisIndex,repeat_freq.thisRepN,repeat_freq.thisTrialN,repeat_freq.thisN,repeat_freq.thisIndex,trials.thisRepN,trials.thisTrialN,trials.thisN,trials.thisIndex,break_loop.thisRepN,break_loop.thisTrialN,break_loop.thisN,break_loop.thisIndex,rest_loop.thisRepN,rest_loop.thisTrialN,rest_loop.thisN,rest_loop.thisIndex,instruct_prac_text.started,instruct_prac_text.stopped,b_instruct_text_2_.started,b_instruct_text_2_.stopped,prac_done_text.started,prac_done_text.stopped,instruct_text.started,instruct_text.stopped,fixation.started,fixation.stopped,grating.started,grating.stopped,blank.started,blank.stopped,resp.keys,resp.corr,resp.started,resp.stopped,direction,duration,trigger,stim_type,corr_ans,scaling,resp.rt,rest_text.started,rest_text.stopped,text_2.started,text_2.stopped,thx_txt.started,thx_txt.stopped,gender,age,participant,language,main_hand,nBlock_prac,file_suffix,date,expName,psychopyVersion,frameRate,
5,,,,,0,0,0,1,0,0,0,0,0,0,0,0,,,,,,,,,18.19570909999311,None,27.548355599865317,None,91.24265329982154,None,99.56184749980457,None,104.260429199785,None,104.9283562998753,105.52795859985054,105.47808049991727,107.47895909985527,None,1,0.6117047399748117,2.6125782399903983,increament,0.6,15,standard,None,100,,,,,,,,f,23,205,en,r,0,raw,2022-05-18_10h29.11.260,oddball,2022.1.2,59.916404609568865,
5,,,,,0,0,0,1,0,0,0,0,1,0,1,0,,,,,,,,,,,,,,,,,107.49512569978833,None,108.02903389977291,108.62918389984407,108.61257429979742,110.61309289978817,None,1,0.6095785400830209,2.610080740181729,increament,0.6,15,standard,None,100,,,,,,,,f,23,205,en,r,0,raw,2022-05-18_10h29.11.260,oddball,2022.1.2,59.916404609568865,
5,,,,,0,0,0,1,0,0,0,0,2,0,2,0,,,,,,,,,,,,,,,,,110.63006759993732,None,111.14667599997483,111.74701930000447,111.73079249984585,113.73094569984823,None,1,0.6136876400560141,2.613732140045613,increament,0.6,15,standard,None,100,,,,,,,,f,23,205,en,r,0,raw,2022-05-18_10h29.11.260,oddball,2022.1.2,59.916404609568865,
5,,,,,0,0,0,1,0,0,0,0,3,0,3,0,,,,,,,,,,,,,,,,,113.74758179998025,None,114.49823889997788,115.09821189986542,115.08169409981929,117.08217849978246,None,1,0.6126740402542055,2.6130850401241332,increament,0.6,15,standard,None,100,,,,,,,,f,23,205,en,r,0,raw,2022-05-18_10h29.11.260,oddball,2022.1.2,59.916404609568865,
5,,,,,0,0,0,1,0,0,0,0,4,0,4,0,,,,,,,,,,,,,,,,,117.09898749995045,None,117.88226659991778,118.48267189995386,118.46614549984224,120.46658059977926,None,1,0.6131266399752349,2.613554439973086,increament,0.6,15,standard,None,100,,,,,,,,f,23,205,en,r,0,raw,2022-05-18_10h29.11.260,oddball,2022.1.2,59.916404609568865,
5,,,,,0,0,0,1,0,0,0,0,5,0,5,0,,,,,,,,,,,,,,,,,120.4838396999985,None,121.10026199999265,121.70059219980612,121.68424019985832,123.68510989984497,None,1,0.613540240097791,2.6143907399382442,increament,0.6,15,standard,None,100,,,,,,,,f,23,205,en,r,0,raw,2022-05-18_10h29.11.260,oddball,2022.1.2,59.916404609568865,
5,,,,,0,0,0,1,0,0,0,0,6,0,6,0,,,,,,,,,,,,,,,,,123.70119909988716,None,124.38478159997612,124.98542649997398,124.96861019986682,126.96920669986866,None,1,0.6138629398774356,2.614435239927843,increament,0.6,15,standard,None,100,,,,,,,,f,23,205,en,r,0,raw,2022-05-18_10h29.11.260,oddball,2022.1.2,59.916404609568865,
5,,,,,0,0,0,1,0,0,0,0,7,0,7,0,,,,,,,,,,,,,,,,,126.98602979979478,None,127.75295479991473,128.35295359999873,128.33669439982623,130.33740629977547,None,1,0.6135371399577707,2.6143154399469495,increament,0.6,15,standard,None,100,,,,,,,,f,23,205,en,r,0,raw,2022-05-18_10h29.11.260,oddball,2022.1.2,59.916404609568865,
5,,,,,0,0,0,1,0,0,0,0,8,0,8,0,,,,,,,,,,,,,,,,,130.35539179993793,None,131.0041584998835,131.60411229985766,131.5879422998987,133.5883190999739,None,1,0.6134172400925308,2.6137820400763303,increament,0.6,15,standard,None,100,,,,,,,,f,23,205,en,r,0,raw,2022-05-18_10h29.11.260,oddball,2022.1.2,59.916404609568865,
5,,,,,0,0,0,1,0,0,0,0,9,0,9,0,,,,,,,,,,,,,,,,,133.605233799899,None,134.23896619980223,134.838731699856,134.82228999980725,136.82313349982724,None,1,0.6116980400402099,2.612574439961463,increament,0.6,15,standard,None,100,,,,,,,,f,23,205,en,r,0,raw,2022-05-18_10h29.11.260,oddball,2022.1.2,59.916404609568865,
5,,,,,0,0,0,1,0,0,0,0,10,0,10,0,,,,,,,,,,,,,,,,,136.83965639979579,None,137.4564852998592,138.05673799989745,138.04031319986098,140.0410010998603,None,1,0.6136620400939137,2.6143531401176006,increament,0.6,15,standard,None,100,,,,,,,,f,23,205,en,r,0,raw,2022-05-18_10h29.11.260,oddball,2022.1.2,59.916404609568865,
5,,,,,0,0,0,1,0,0,0,0,11,0,11,0,,,,,,,,,,,,,,,,,140.05747089977376,None,140.99140239995904,141.5912405999843,141.5747415998485,143.57562529994175,None,1,0.6119331400841475,2.6128863401245326,increament,0.6,15,standard,None,100,,,,,,,,f,23,205,en,r,0,raw,2022-05-18_10h29.11.260,oddball,2022.1.2,59.916404609568865,
5,,,,,0,0,0,1,0,0,0,0,12,0,12,0,,,,,,,,,,,,,,,,,143.59262979985215,None,144.14236789988354,144.74258889979683,144.7258436998818,146.72692039981484,None,1,0.6125358399003744,2.6136020401027054,increament,0.6,15,standard,None,100,,,,,,,,f,23,205,en,r,0,raw,2022-05-18_10h29.11.260,oddball,2022.1.2,59.916404609568865,
5,,,,,0,0,0,1,0,0,0,0,13,0,13,0,,,,,,,,,,,,,,,,,146.7434502998367,None,147.36036269995384,147.96046699979343,147.94412869983353,149.9445344998967,None,1,0.6138180401176214,2.6142217400483787,increament,0.6,15,standard,None,100,,,,,,,,f,23,205,en,r,0,raw,2022-05-18_10h29.11.260,oddball,2022.1.2,59.916404609568865,
5,,,,,0,0,0,1,0,0,0,0,14,0,14,0,,,,,,,,,,,,,,,,,149.9613030999899,None,150.71167499991134,151.31172399991192,151.2952208998613,153.2963734997902,None,1,0.6128848399966955,2.614069940056652,increament,0.6,15,standard,None,100,,,,,,,,f,23,205,en,r,0,raw,2022-05-18_10h29.11.260,oddball,2022.1.2,59.916404609568865,
5,,,,,0,0,0,1,0,0,0,0,15,0,15,0,,,,,,,,,,,,,,,,,153.31256709992886,None,153.99604179989547,154.84620899986476,154.81320639979094,156.81361309997737,j,1,0.8472983399406075,2.847725440049544,increament,0.84,17,oddball,j,140,0.6906285001896322,,,,,,,f,23,205,en,r,0,raw,2022-05-18_10h29.11.260,oddball,2022.1.2,59.916404609568865,
5,,,,,0,0,0,1,0,0,0,0,16,0,16,0,,,,,,,,,,,,,,,,,156.83071279991418,None,157.4640814999584,158.0643654000014,158.047782599926,160.04862399981357,None,1,0.6126237402204424,2.6134538401383907,increament,0.6,15,standard,None,100,,,,,,,,f,23,205,en,r,0,raw,2022-05-18_10h29.11.260,oddball,2022.1.2,59.916404609568865,
5,,,,,0,0,0,1,0,0,0,0,17,0,17,0,,,,,,,,,,,,,,,,,160.0653275998775,None,160.81573319993913,161.41587699996307,161.3992146998644,163.399954599794,None,1,0.6106760399416089,2.611406839918345,increament,0.6,15,standard,None,100,,,,,,,,f,23,205,en,r,0,raw,2022-05-18_10h29.11.260,oddball,2022.1.2,59.916404609568865,
5,,,,,0,0,0,1,0,0,0,0,18,0,18,0,,,,,,,,,,,,,,,,,163.41635079984553,None,164.11685519991443,164.71685669990256,164.7004158999771,166.7011943999678,None,1,0.6113067399710417,2.6121489400975406,increament,0.6,15,standard,None,100,,,,,,,,f,23,205,en,r,0,raw,2022-05-18_10h29.11.260,oddball,2022.1.2,59.916404609568865,
5,,,,,0,0,0,1,0,0,0,0,19,0,19,0,,,,,,,,,,,,,,,,,166.7177134999074,None,167.35168530000374,167.95152149978094,167.93475429993123,169.93557429988869,None,1,0.6101688400376588,2.6110445400699973,increament,0.6,15,standard,None,100,,,,,,,,f,23,205,en,r,0,raw,2022-05-18_10h29.11.260,oddball,2022.1.2,59.916404609568865,
5,,,,,0,0,0,1,0,0,0,0,20,0,20,0,,,,,,,,,,,,,,,,,169.95235799998045,None,170.53588869981468,171.26938339998014,171.23626089980826,173.23665439989418,j,1,0.7281019403599203,2.728524940321222,increament,0.72,16,oddball,j,120,0.41883249999955297,,,,,,,f,23,205,en,r,0,raw,2022-05-18_10h29.11.260,oddball,2022.1.2,59.916404609568865,
5,,,,,0,0,0,1,0,0,0,0,21,0,21,0,,,,,,,,,,,,,,,,,173.25347859994508,None,173.92035219981335,174.5209448998794,174.50403339997865,176.50509319989942,None,1,0.6128842399921268,2.613939840113744,increament,0.6,15,standard,None,100,,,,,,,,f,23,205,en,r,0,raw,2022-05-18_10h29.11.260,oddball,2022.1.2,59.916404609568865,
5,,,,,0,0,0,1,0,0,0,0,22,0,22,0,,,,,,,,,,,,,,,,,176.5216184000019,None,177.15476269996725,177.7554970998317,177.73889359994791,179.73926959978417,None,1,0.6139773402828723,2.614317240193486,increament,0.6,15,standard,None,100,,,,,,,,f,23,205,en,r,0,raw,2022-05-18_10h29.11.260,oddball,2022.1.2,59.916404609568865,
5,,,,,0,0,0,1,0,0,0,0,23,0,23,0,,,,,,,,,,,,,,,,,179.75620999978855,None,180.35603359993547,180.95651759998873,180.93980059982277,182.94042159989476,None,1,0.6120996400713921,2.6127068400382996,increament,0.6,15,standard,None,100,,,,,,,,f,23,205,en,r,0,raw,2022-05-18_10h29.11.260,oddball,2022.1.2,59.916404609568865,
5,,,,,0,0,0,1,0,0,0,0,24,0,24,0,,,,,,,,,,,,,,,,,182.95737999980338,None,183.54050189978443,184.50778649980202,184.4745611997787,186.47518779989332,None,0,0.9640228399075568,2.9646959400270134,increament,0.96,18,oddball,j,160,,,,,,,,f,23,205,en,r,0,raw,2022-05-18_10h29.11.260,oddball,2022.1.2,59.916404609568865,
5,,,,,0,0,0,1,0,0,0,0,25,0,25,0,,,,,,,,,,,,,,,,,186.49197699991055,None,187.12525979988277,187.72576989978552,187.70893039996736,189.70959919993766,None,1,0.6122056401800364,2.6128579401411116,increament,0.6,15,standard,None,100,,,,,,,,f,23,205,en,r,0,raw,2022-05-18_10h29.11.260,oddball,2022.1.2,59.916404609568865,
5,,,,,0,0,0,1,0,0,0,0,26,0,26,0,,,,,,,,,,,,,,,,,189.72631689999253,None,190.27686009998433,190.8767698998563,190.8601037999615,192.86100189993158,None,1,0.6102811400778592,2.611198639962822,increament,0.6,15,standard,None,100,,,,,,,,f,23,205,en,r,0,raw,2022-05-18_10h29.11.260,oddball,2022.1.2,59.916404609568865,
5,,,,,0,0,0,1,0,0,0,0,27,0,27,0,,,,,,,,,,,,,,,,,192.87764459988102,None,193.64461689977907,194.2450546999462,194.22818479989655,196.22925649979152,None,1,0.6126275402493775,2.6137489401735365,increament,0.6,15,standard,None,100,,,,,,,,f,23,205,en,r,0,raw,2022-05-18_10h29.11.260,oddball,2022.1.2,59.916404609568865,
5,,,,,0,0,0,1,0,0,0,0,28,0,28,0,,,,,,,,,,,,,,,,,196.24766979995184,None,196.89611549978144,197.4958041999489,197.479294099845,199.48002779996023,None,1,0.6122510400600731,2.6129927402362227,increament,0.6,15,standard,None,100,,,,,,,,f,23,205,en,r,0,raw,2022-05-18_10h29.11.260,oddball,2022.1.2,59.916404609568865,
5,,,,,0,0,0,1,0,0,0,0,29,0,29,0,,,,,,,,,,,,,,,,,199.4969244999811,None,200.2802830999717,200.8807257998269,200.86432019993663,202.86462279991247,None,1,0.6142554399557412,2.614454239839688,increament,0.6,15,standard,None,100,,,,,,,,f,23,205,en,r,0,raw,2022-05-18_10h29.11.260,oddball,2022.1.2,59.916404609568865,
5,,,,,0,0,0,1,1,0,1,0,0,0,0,0,,,,,,,,,,,,,,,213.5072341999039,None,215.60266299988143,None,216.1533487997949,216.75325329997577,216.73672009981237,218.73725619981997,None,1,0.6109022400341928,2.61142474017106,decreament,0.6,11,standard,None,100,,202.88136739982292,None,,,,,f,23,205,en,r,0,raw,2022-05-18_10h29.11.260,oddball,2022.1.2,59.916404609568865,
5,,,,,0,0,0,1,1,0,1,0,1,0,1,0,,,,,,,,,,,,,,,,,218.75420179986395,None,219.45428799977526,220.054616099922,220.03796839993447,222.0384683997836,None,1,0.6125724401790649,2.613037039991468,decreament,0.6,11,standard,None,100,,,,,,,,f,23,205,en,r,0,raw,2022-05-18_10h29.11.260,oddball,2022.1.2,59.916404609568865,
5,,,,,0,0,0,1,1,0,1,0,2,0,2,0,,,,,,,,,,,,,,,,,222.05528979981318,None,222.6555397999473,223.2559645997826,223.2392444999423,225.2400914998725,None,1,0.6134194401092827,2.6142828401643783,decreament,0.6,11,standard,None,100,,,,,,,,f,23,205,en,r,0,raw,2022-05-18_10h29.11.260,oddball,2022.1.2,59.916404609568865,
5,,,,,0,0,0,1,1,0,1,0,3,0,3,0,,,,,,,,,,,,,,,,,225.2564538998995,None,225.85727239982225,226.45731409988366,226.44049019995145,228.44100059987977,None,1,0.6093401398975402,2.6097922397311777,decreament,0.6,11,standard,None,100,,,,,,,,f,23,205,en,r,0,raw,2022-05-18_10h29.11.260,oddball,2022.1.2,59.916404609568865,
5,,,,,0,0,0,1,1,0,1,0,4,0,4,0,,,,,,,,,,,,,,,,,228.4576078997925,None,229.0411663998384,229.64164809999056,229.62496669986285,231.62560499995016,None,1,0.6133395400829613,2.6139557401183993,decreament,0.6,11,standard,None,100,,,,,,,,f,23,205,en,r,0,raw,2022-05-18_10h29.11.260,oddball,2022.1.2,59.916404609568865,
5,,,,,0,0,0,1,1,0,1,0,5,0,5,0,,,,,,,,,,,,,,,,,231.6422701999545,None,232.2594162998721,232.8591697998345,232.8424715998117,234.84388329996727,None,1,0.6118130402173847,2.6134521402418613,decreament,0.6,11,standard,None,100,,,,,,,,f,23,205,en,r,0,raw,2022-05-18_10h29.11.260,oddball,2022.1.2,59.916404609568865,
5,,,,,0,0,0,1,1,0,1,0,6,0,6,0,,,,,,,,,,,,,,,,,234.86032539978623,None,235.89393559983,236.49408209999092,236.47730929986574,238.47785399993882,None,1,0.6132925399579108,2.6138446400873363,decreament,0.6,11,standard,None,100,,,,,,,,f,23,205,en,r,0,raw,2022-05-18_10h29.11.260,oddball,2022.1.2,59.916404609568865,
5,,,,,0,0,0,1,1,0,1,0,7,0,7,0,,,,,,,,,,,,,,,,,238.49459789996035,None,239.17840639990754,239.7787035999354,239.76227609999478,241.76269549992867,None,1,0.6084550400264561,2.608770939987153,decreament,0.6,11,standard,None,100,,,,,,,,f,23,205,en,r,0,raw,2022-05-18_10h29.11.260,oddball,2022.1.2,59.916404609568865,
5,,,,,0,0,0,1,1,0,1,0,8,0,8,0,,,,,,,,,,,,,,,,,241.77942029992118,None,242.4796976998914,243.07979589980096,243.0632970998995,245.06434939987957,None,1,0.6130728400312364,2.6141535399947315,decreament,0.6,11,standard,None,100,,,,,,,,f,23,205,en,r,0,raw,2022-05-18_10h29.11.260,oddball,2022.1.2,59.916404609568865,
5,,,,,0,0,0,1,1,0,1,0,9,0,9,0,,,,,,,,,,,,,,,,,245.08063449990004,None,245.74765809997916,246.34818369988352,246.33124089986086,248.33176499977708,None,1,0.6137649402953684,2.6142097401898354,decreament,0.6,11,standard,None,100,,,,,,,,f,23,205,en,r,0,raw,2022-05-18_10h29.11.260,oddball,2022.1.2,59.916404609568865,
5,,,,,0,0,0,1,1,0,1,0,10,0,10,0,,,,,,,,,,,,,,,,,248.34848009981215,None,248.9655611999333,249.56577259977348,249.54924369999208,251.5496820998378,None,1,0.6127039398998022,2.613110040081665,decreament,0.6,11,standard,None,100,,,,,,,,f,23,205,en,r,0,raw,2022-05-18_10h29.11.260,oddball,2022.1.2,59.916404609568865,
5,,,,,0,0,0,1,1,0,1,0,11,0,11,0,,,,,,,,,,,,,,,,,251.5666661998257,None,252.16686929995194,252.7668308999855,252.75019799987786,254.7510451998096,None,1,0.6111116402316839,2.611959640169516,decreament,0.6,11,standard,None,100,,,,,,,,f,23,205,en,r,0,raw,2022-05-18_10h29.11.260,oddball,2022.1.2,59.916404609568865,
5,,,,,0,0,0,1,1,0,1,0,12,0,12,0,,,,,,,,,,,,,,,,,254.7675539997872,None,255.50171339977533,256.1014245999977,256.0847255999688,258.0858883999754,None,1,0.6079195402562618,2.609151440206915,decreament,0.6,11,standard,None,100,,,,,,,,f,23,205,en,r,0,raw,2022-05-18_10h29.11.260,oddball,2022.1.2,59.916404609568865,
5,,,,,0,0,0,1,1,0,1,0,13,0,13,0,,,,,,,,,,,,,,,,,258.10270259995013,None,258.6860673998017,259.0524378998671,259.01952199987136,261.0200877999887,j,1,0.35906034032814205,2.359704540343955,decreament,0.36,13,oddball,j,60,1.180070400238037,,,,,,,f,23,205,en,r,0,raw,2022-05-18_10h29.11.260,oddball,2022.1.2,59.916404609568865,
5,,,,,0,0,0,1,1,0,1,0,14,0,14,0,,,,,,,,,,,,,,,,,261.03683339990675,None,261.6037452998571,262.20399389998056,262.18718569981866,264.1880447999574,None,1,0.6108933403156698,2.61176194017753,decreament,0.6,11,standard,None,100,,,,,,,,f,23,205,en,r,0,raw,2022-05-18_10h29.11.260,oddball,2022.1.2,59.916404609568865,
5,,,,,0,0,0,1,1,0,1,0,15,0,15,0,,,,,,,,,,,,,,,,,264.20483740000054,None,264.97164049977437,265.57144249998964,265.5547417998314,267.5560623998754,None,1,0.6123575400561094,2.6137776400428265,decreament,0.6,11,standard,None,100,,,,,,,,f,23,205,en,r,0,raw,2022-05-18_10h29.11.260,oddball,2022.1.2,59.916404609568865,
5,,,,,0,0,0,1,1,0,1,0,16,0,16,0,,,,,,,,,,,,,,,,,267.57387619977817,None,268.23939929995686,268.839570999844,268.8235630998388,270.82370059983805,None,1,0.6132347399834543,2.613210440147668,decreament,0.6,11,standard,None,100,,,,,,,,f,23,205,en,r,0,raw,2022-05-18_10h29.11.260,oddball,2022.1.2,59.916404609568865,
5,,,,,0,0,0,1,1,0,1,0,17,0,17,0,,,,,,,,,,,,,,,,,270.84040839993395,None,271.47419679979794,272.07459169998765,272.0580060998909,274.05829909979366,None,1,0.613253140123561,2.613479539984837,decreament,0.6,11,standard,None,100,,,,,,,,f,23,205,en,r,0,raw,2022-05-18_10h29.11.260,oddball,2022.1.2,59.916404609568865,
5,,,,,0,0,0,1,1,0,1,0,18,0,18,0,,,,,,,,,,,,,,,,,274.07501439983025,None,274.5923357999418,274.84199489979073,274.80884159985,276.8094753997866,j,1,0.24488123995251954,2.24548863992095,decreament,0.24,12,oddball,j,40,0.6224932000041008,,,,,,,f,23,205,en,r,0,raw,2022-05-18_10h29.11.260,oddball,2022.1.2,59.916404609568865,
5,,,,,0,0,0,1,1,0,1,0,19,0,19,0,,,,,,,,,,,,,,,,,276.8261942998506,None,277.4432711999398,278.0430675998796,278.02656249981374,280.02752359979786,None,1,0.6120428401045501,2.613095640204847,decreament,0.6,11,standard,None,100,,,,,,,,f,23,205,en,r,0,raw,2022-05-18_10h29.11.260,oddball,2022.1.2,59.916404609568865,
5,,,,,0,0,0,1,1,0,1,0,20,0,20,0,,,,,,,,,,,,,,,,,280.0454879999161,None,280.6773581998423,281.2774821999483,281.2611298998818,283.2619180998299,None,1,0.6132964401040226,2.6141071401070803,decreament,0.6,11,standard,None,100,,,,,,,,f,23,205,en,r,0,raw,2022-05-18_10h29.11.260,oddball,2022.1.2,59.916404609568865,
5,,,,,0,0,0,1,1,0,1,0,21,0,21,0,,,,,,,,,,,,,,,,,283.27850519982167,None,283.96207519993186,284.56260569998994,284.5464332997799,286.54657809995115,None,1,0.6133419401012361,2.6132465400733054,decreament,0.6,11,standard,None,100,,,,,,,,f,23,205,en,r,0,raw,2022-05-18_10h29.11.260,oddball,2022.1.2,59.916404609568865,
5,,,,,0,0,0,1,1,0,1,0,22,0,22,0,,,,,,,,,,,,,,,,,286.5641428998206,None,287.16362639982253,287.7632226999849,287.7467189999297,289.74769799993373,None,1,0.6087347401771694,2.6097814401146024,decreament,0.6,11,standard,None,100,,,,,,,,f,23,205,en,r,0,raw,2022-05-18_10h29.11.260,oddball,2022.1.2,59.916404609568865,
5,,,,,0,0,0,1,1,0,1,0,23,0,23,0,,,,,,,,,,,,,,,,,289.76445249980316,None,290.5477781998925,291.1483654999174,291.1318382997997,293.1319958998356,None,1,0.6113552402239293,2.611406740033999,decreament,0.6,11,standard,None,100,,,,,,,,f,23,205,en,r,0,raw,2022-05-18_10h29.11.260,oddball,2022.1.2,59.916404609568865,
5,,,,,0,0,0,1,1,0,1,0,24,0,24,0,,,,,,,,,,,,,,,,,293.1487133000046,None,293.9163001999259,294.51635139994323,294.4994791999925,296.50038529979065,None,1,0.6104884399101138,2.6114283399656415,decreament,0.6,11,standard,None,100,,,,,,,,f,23,205,en,r,0,raw,2022-05-18_10h29.11.260,oddball,2022.1.2,59.916404609568865,
5,,,,,0,0,0,1,1,0,1,0,25,0,25,0,,,,,,,,,,,,,,,,,296.5169041999616,None,297.1836725999601,297.6672851999756,297.65062309987843,299.65147789986804,None,0,0.4952896402683109,2.4961495401803404,decreament,0.48,14,oddball,j,80,,,,,,,,f,23,205,en,r,0,raw,2022-05-18_10h29.11.260,oddball,2022.1.2,59.916404609568865,
5,,,,,0,0,0,1,1,0,1,0,26,0,26,0,,,,,,,,,,,,,,,,,299.66816059988923,None,300.4017367998604,301.0018371997867,300.98547699977644,302.9862988998648,None,1,0.6118635402526706,2.612763740355149,decreament,0.6,11,standard,None,100,,,,,,,,f,23,205,en,r,0,raw,2022-05-18_10h29.11.260,oddball,2022.1.2,59.916404609568865,
5,,,,,0,0,0,1,1,0,1,0,27,0,27,0,,,,,,,,,,,,,,,,,303.0033912998624,None,303.68647139985114,304.2863276998978,304.2700064999517,306.2707076999359,None,1,0.6097864401526749,2.610525240190327,decreament,0.6,11,standard,None,100,,,,,,,,f,23,205,en,r,0,raw,2022-05-18_10h29.11.260,oddball,2022.1.2,59.916404609568865,
5,,,,,0,0,0,1,1,0,1,0,28,0,28,0,,,,,,,,,,,,,,,,,306.28726569982246,None,306.9042660999112,307.50430789985694,307.48754909983836,309.48861589981243,None,1,0.6123036402277648,2.6134361401200294,decreament,0.6,11,standard,None,100,,,,,,,,f,23,205,en,r,0,raw,2022-05-18_10h29.11.260,oddball,2022.1.2,59.916404609568865,
5,,,,,0,0,0,1,1,0,1,0,29,0,29,0,,,,,,,,,,,,,,,,,309.5057542999275,None,310.12223639991134,310.72215519985184,310.7053861999884,312.7062914997805,None,1,0.6091855398844928,2.6100863399915397,decreament,0.6,11,standard,None,100,,,,,,,,f,23,205,en,r,0,raw,2022-05-18_10h29.11.260,oddball,2022.1.2,59.916404609568865,
5,,,,,0,0,0,1,2,0,2,0,0,0,0,0,,,,,,,,,,,,,,,331.2981636999175,None,333.3473332999274,None,334.08110789977945,334.6812471000012,334.6646209999453,336.6655052998103,None,1,0.60980513994582,2.6107291399966925,increament,0.6,15,standard,None,100,,312.722957899794,None,,,,,f,23,205,en,r,0,raw,2022-05-18_10h29.11.260,oddball,2022.1.2,59.916404609568865,
5,,,,,0,0,0,1,2,0,2,0,1,0,1,0,,,,,,,,,,,,,,,,,336.6821129999589,None,337.3324787998572,337.9325772000011,337.9162881998345,339.9166955999099,None,1,0.6124212401919067,2.612780140247196,increament,0.6,15,standard,None,100,,,,,,,,f,23,205,en,r,0,raw,2022-05-18_10h29.11.260,oddball,2022.1.2,59.916404609568865,
5,,,,,0,0,0,1,2,0,2,0,2,0,2,0,,,,,,,,,,,,,,,,,339.933092399966,None,340.45047189993784,341.0503330999054,341.0339038998354,343.03442229982466,None,1,0.6098990400787443,2.6104688399937004,increament,0.6,15,standard,None,100,,,,,,,,f,23,205,en,r,0,raw,2022-05-18_10h29.11.260,oddball,2022.1.2,59.916404609568865,
5,,,,,0,0,0,1,2,0,2,0,3,0,3,0,,,,,,,,,,,,,,,,,343.0514093998354,None,343.66833439981565,344.2681997998152,344.2516440998297,346.25275869993493,None,1,0.6087081402074546,2.60991774010472,increament,0.6,15,standard,None,100,,,,,,,,f,23,205,en,r,0,raw,2022-05-18_10h29.11.260,oddball,2022.1.2,59.916404609568865,
5,,,,,0,0,0,1,2,0,2,0,4,0,4,0,,,,,,,,,,,,,,,,,346.27014189981855,None,346.90303409984335,347.5028516999446,347.4863541999366,349.48732719989493,None,1,0.6094763400033116,2.610543039860204,increament,0.6,15,standard,None,100,,,,,,,,f,23,205,en,r,0,raw,2022-05-18_10h29.11.260,oddball,2022.1.2,59.916404609568865,
5,,,,,0,0,0,1,2,0,2,0,5,0,5,0,,,,,,,,,,,,,,,,,349.50350659992546,None,350.087221799884,350.6875573999714,350.67069169995375,352.6717975998763,None,1,0.612059939885512,2.613226840039715,increament,0.6,15,standard,None,100,,,,,,,,f,23,205,en,r,0,raw,2022-05-18_10h29.11.260,oddball,2022.1.2,59.916404609568865,
5,,,,,0,0,0,1,2,0,2,0,6,0,6,0,,,,,,,,,,,,,,,,,352.68851269991137,None,353.3714450998232,354.33844389999285,354.30598689988256,356.3060628999956,j,1,0.9641651401761919,2.964175240136683,increament,0.96,18,oddball,j,160,0.5001660999841988,,,,,,,f,23,205,en,r,0,raw,2022-05-18_10h29.11.260,oddball,2022.1.2,59.916404609568865,
5,,,,,0,0,0,1,2,0,2,0,7,0,7,0,,,,,,,,,,,,,,,,,356.32282609981485,None,357.0567029998638,357.6565924999304,357.63996919989586,359.6407576999627,None,1,0.610746440012008,2.611528340028599,increament,0.6,15,standard,None,100,,,,,,,,f,23,205,en,r,0,raw,2022-05-18_10h29.11.260,oddball,2022.1.2,59.916404609568865,
5,,,,,0,0,0,1,2,0,2,0,8,0,8,0,,,,,,,,,,,,,,,,,359.657423999859,None,360.32452959986404,360.92476119985804,360.90814709989354,362.90909249987453,None,1,0.6126803401857615,2.613680840237066,increament,0.6,15,standard,None,100,,,,,,,,f,23,205,en,r,0,raw,2022-05-18_10h29.11.260,oddball,2022.1.2,59.916404609568865,
5,,,,,0,0,0,1,2,0,2,0,9,0,9,0,,,,,,,,,,,,,,,,,362.926121099852,None,363.4422664998565,364.04249879997224,364.0261635999195,366.02652610000223,None,1,0.6118917400017381,2.6121798399835825,increament,0.6,15,standard,None,100,,,,,,,,f,23,205,en,r,0,raw,2022-05-18_10h29.11.260,oddball,2022.1.2,59.916404609568865,
5,,,,,0,0,0,1,2,0,2,0,10,0,10,0,,,,,,,,,,,,,,,,,366.04324309993535,None,366.6601745998487,367.2601955998689,367.24379969993606,369.2442993998993,None,1,0.6114060399122536,2.6118986399378628,increament,0.6,15,standard,None,100,,,,,,,,f,23,205,en,r,0,raw,2022-05-18_10h29.11.260,oddball,2022.1.2,59.916404609568865,
5,,,,,0,0,0,1,2,0,2,0,11,0,11,0,,,,,,,,,,,,,,,,,369.26099519990385,None,370.0115458997898,370.6114747999236,370.5949165998027,372.59572589979507,None,1,0.6094779400154948,2.610329640097916,increament,0.6,15,standard,None,100,,,,,,,,f,23,205,en,r,0,raw,2022-05-18_10h29.11.260,oddball,2022.1.2,59.916404609568865,
5,,,,,0,0,0,1,2,0,2,0,12,0,12,0,,,,,,,,,,,,,,,,,372.61237200000323,None,373.4291360999923,374.02963979984634,374.0131409999449,376.01395709998906,None,1,0.61359684006311,2.614425040083006,increament,0.6,15,standard,None,100,,,,,,,,f,23,205,en,r,0,raw,2022-05-18_10h29.11.260,oddball,2022.1.2,59.916404609568865,
5,,,,,0,0,0,1,2,0,2,0,13,0,13,0,,,,,,,,,,,,,,,,,376.0308331998531,None,376.8970578999724,377.4979304999579,377.4808882998768,379.4816041998565,None,1,0.6134734400548041,2.614217040129006,increament,0.6,15,standard,None,100,,,,,,,,f,23,205,en,r,0,raw,2022-05-18_10h29.11.260,oddball,2022.1.2,59.916404609568865,
5,,,,,0,0,0,1,2,0,2,0,14,0,14,0,,,,,,,,,,,,,,,,,379.4985783000011,None,380.09867459977977,380.69871179992333,380.682026399998,382.68278429983184,None,1,0.6111087400931865,2.611901340074837,increament,0.6,15,standard,None,100,,,,,,,,f,23,205,en,r,0,raw,2022-05-18_10h29.11.260,oddball,2022.1.2,59.916404609568865,
5,,,,,0,0,0,1,2,0,2,0,15,0,15,0,,,,,,,,,,,,,,,,,382.69966779998504,None,383.2832675999962,383.88324339990504,383.866490899818,385.86746239988133,None,1,0.6088911399710923,2.6098872399888933,increament,0.6,15,standard,None,100,,,,,,,,f,23,205,en,r,0,raw,2022-05-18_10h29.11.260,oddball,2022.1.2,59.916404609568865,
5,,,,,0,0,0,1,2,0,2,0,16,0,16,0,,,,,,,,,,,,,,,,,385.8839313997887,None,386.46751679992303,387.06792479986325,387.05105979996733,389.0522587997839,None,1,0.6125150404404849,2.613782040309161,increament,0.6,15,standard,None,100,,,,,,,,f,23,205,en,r,0,raw,2022-05-18_10h29.11.260,oddball,2022.1.2,59.916404609568865,
5,,,,,0,0,0,1,2,0,2,0,17,0,17,0,,,,,,,,,,,,,,,,,389.0697245998308,None,389.652447699802,390.25256699998863,390.23587929992937,392.2363236998208,None,1,0.6116880401968956,2.612108940258622,increament,0.6,15,standard,None,100,,,,,,,,f,23,205,en,r,0,raw,2022-05-18_10h29.11.260,oddball,2022.1.2,59.916404609568865,
5,,,,,0,0,0,1,2,0,2,0,18,0,18,0,,,,,,,,,,,,,,,,,392.25289569981396,None,392.8200003998354,393.4200353999622,393.40349749987945,395.40431429981254,None,1,0.6118542400654405,2.6127103401813656,increament,0.6,15,standard,None,100,,,,,,,,f,23,205,en,r,0,raw,2022-05-18_10h29.11.260,oddball,2022.1.2,59.916404609568865,
5,,,,,0,0,0,1,2,0,2,0,19,0,19,0,,,,,,,,,,,,,,,,,395.4209559999872,None,395.9714184999466,396.82144479989074,396.7880094998982,398.7890810999088,j,1,0.8443061402067542,2.845789240207523,increament,0.84,17,oddball,j,140,0.4022097000852227,,,,,,,f,23,205,en,r,0,raw,2022-05-18_10h29.11.260,oddball,2022.1.2,59.916404609568865,
5,,,,,0,0,0,1,2,0,2,0,20,0,20,0,,,,,,,,,,,,,,,,,398.8072308998089,None,399.4392307999078,400.03938519977964,400.0226834998466,402.0234439999331,None,1,0.6113042398355901,2.612113839946687,increament,0.6,15,standard,None,100,,,,,,,,f,23,205,en,r,0,raw,2022-05-18_10h29.11.260,oddball,2022.1.2,59.916404609568865,
5,,,,,0,0,0,1,2,0,2,0,21,0,21,0,,,,,,,,,,,,,,,,,402.04027889994904,None,402.6737488999497,403.2740350998938,403.257636499824,405.25839519989677,None,1,0.6135443400125951,2.614291540114209,increament,0.6,15,standard,None,100,,,,,,,,f,23,205,en,r,0,raw,2022-05-18_10h29.11.260,oddball,2022.1.2,59.916404609568865,
5,,,,,0,0,0,1,2,0,2,0,22,0,22,0,,,,,,,,,,,,,,,,,405.27499019983225,None,405.9922059997916,406.5919631998986,406.5755293997936,408.5759071998764,None,1,0.6100781401619315,2.610335540259257,increament,0.6,15,standard,None,100,,,,,,,,f,23,205,en,r,0,raw,2022-05-18_10h29.11.260,oddball,2022.1.2,59.916404609568865,
5,,,,,0,0,0,1,2,0,2,0,23,0,23,0,,,,,,,,,,,,,,,,,408.59266319987364,None,409.35948559991084,409.95979009987786,409.9433393999934,411.9437619999517,None,1,0.6097565400414169,2.610083140200004,increament,0.6,15,standard,None,100,,,,,,,,f,23,205,en,r,0,raw,2022-05-18_10h29.11.260,oddball,2022.1.2,59.916404609568865,
5,,,,,0,0,0,1,2,0,2,0,24,0,24,0,,,,,,,,,,,,,,,,,411.96029769978486,None,412.5940484998282,413.3275267998688,413.29471519985236,415.2949699999299,None,0,0.7317999401129782,2.731903840089217,increament,0.72,16,oddball,j,120,,,,,,,,f,23,205,en,r,0,raw,2022-05-18_10h29.11.260,oddball,2022.1.2,59.916404609568865,
5,,,,,0,0,0,1,2,0,2,0,25,0,25,0,,,,,,,,,,,,,,,,,415.31187009997666,None,415.99551479984075,416.59583669994026,416.5790323999245,418.5796594999265,None,1,0.6121595399454236,2.6127573400735855,increament,0.6,15,standard,None,100,,,,,,,,f,23,205,en,r,0,raw,2022-05-18_10h29.11.260,oddball,2022.1.2,59.916404609568865,
5,,,,,0,0,0,1,2,0,2,0,26,0,26,0,,,,,,,,,,,,,,,,,418.5964150999207,None,419.23011129978113,419.830136799952,419.8133702999912,421.8143427998293,None,1,0.612733940128237,2.6137171401642263,increament,0.6,15,standard,None,100,,,,,,,,f,23,205,en,r,0,raw,2022-05-18_10h29.11.260,oddball,2022.1.2,59.916404609568865,
5,,,,,0,0,0,1,2,0,2,0,27,0,27,0,,,,,,,,,,,,,,,,,421.8308353999164,None,422.4812424997799,423.08139509987086,423.0646204999648,425.0655557999853,None,1,0.6121847399044782,2.6131469400133938,increament,0.6,15,standard,None,100,,,,,,,,f,23,205,en,r,0,raw,2022-05-18_10h29.11.260,oddball,2022.1.2,59.916404609568865,
5,,,,,0,0,0,1,2,0,2,0,28,0,28,0,,,,,,,,,,,,,,,,,425.0822728998028,None,425.7991499998607,426.39933689986356,426.3827517000027,428.3833502999041,None,1,0.6121287401765585,2.6127020402345806,increament,0.6,15,standard,None,100,,,,,,,,f,23,205,en,r,0,raw,2022-05-18_10h29.11.260,oddball,2022.1.2,59.916404609568865,
5,,,,,0,0,0,1,2,0,2,0,29,0,29,0,,,,,,,,,,,,,,,,,428.399862999795,None,428.96723399986513,429.5674542998895,429.5508761999663,431.55130789987743,None,1,0.6125884398352355,2.6128547398839146,increament,0.6,15,standard,None,100,,,,,,,,f,23,205,en,r,0,raw,2022-05-18_10h29.11.260,oddball,2022.1.2,59.916404609568865,
5,,,,,0,0,0,1,3,0,3,0,0,0,0,0,,,,,,,,,,,,,,,457.99442349979654,None,461.6458834998775,None,462.31301519996487,462.9135063998401,462.8969225999899,464.8974795998074,None,1,0.6122716399841011,2.612833839841187,decreament,0.6,11,standard,None,100,,431.56860599992797,None,,,,,f,23,205,en,r,0,raw,2022-05-18_10h29.11.260,oddball,2022.1.2,59.916404609568865,
5,,,,,0,0,0,1,3,0,3,0,1,0,1,0,,,,,,,,,,,,,,,,,464.91457299981266,None,465.59774719993584,466.19783239997923,466.1810602999758,468.1816483999137,None,1,0.6091508402023464,2.6097284401766956,decreament,0.6,11,standard,None,100,,,,,,,,f,23,205,en,r,0,raw,2022-05-18_10h29.11.260,oddball,2022.1.2,59.916404609568865,
5,,,,,0,0,0,1,3,0,3,0,2,0,2,0,,,,,,,,,,,,,,,,,468.1984580999706,None,468.98231719993055,469.58259659982286,469.56592349987477,471.5666985998396,None,1,0.6127552401740104,2.61356814019382,decreament,0.6,11,standard,None,100,,,,,,,,f,23,205,en,r,0,raw,2022-05-18_10h29.11.260,oddball,2022.1.2,59.916404609568865,
5,,,,,0,0,0,1,3,0,3,0,3,0,3,0,,,,,,,,,,,,,,,,,471.5831817998551,None,472.33340769982897,472.93411049991846,472.9172569999937,474.91776409978047,None,1,0.6123010399751365,2.61273864004761,decreament,0.6,11,standard,None,100,,,,,,,,f,23,205,en,r,0,raw,2022-05-18_10h29.11.260,oddball,2022.1.2,59.916404609568865,
5,,,,,0,0,0,1,3,0,3,0,4,0,4,0,,,,,,,,,,,,,,,,,474.934589299839,None,475.60153519990854,476.2016261999961,476.1849469000008,478.18554209987633,None,1,0.6098423399962485,2.6104171401821077,decreament,0.6,11,standard,None,100,,,,,,,,f,23,205,en,r,0,raw,2022-05-18_10h29.11.260,oddball,2022.1.2,59.916404609568865,
5,,,,,0,0,0,1,3,0,3,0,5,0,5,0,,,,,,,,,,,,,,,,,478.20239469991066,None,478.8859779997729,479.4863786997739,479.46950639993884,481.4705148998182,None,1,0.6118118399754167,2.6129030401352793,decreament,0.6,11,standard,None,100,,,,,,,,f,23,205,en,r,0,raw,2022-05-18_10h29.11.260,oddball,2022.1.2,59.916404609568865,
5,,,,,0,0,0,1,3,0,3,0,6,0,6,0,,,,,,,,,,,,,,,,,481.4886888999026,None,482.1706046999898,482.770486399997,482.7540427998174,484.75481759989634,None,1,0.6117239403538406,2.6125168402213603,decreament,0.6,11,standard,None,100,,,,,,,,f,23,205,en,r,0,raw,2022-05-18_10h29.11.260,oddball,2022.1.2,59.916404609568865,
5,,,,,0,0,0,1,3,0,3,0,7,0,7,0,,,,,,,,,,,,,,,,,484.7714713998139,None,485.48841849993914,486.08876649988815,486.0721012998838,488.07251309999265,None,1,0.6115836401004344,2.611950040096417,decreament,0.6,11,standard,None,100,,,,,,,,f,23,205,en,r,0,raw,2022-05-18_10h29.11.260,oddball,2022.1.2,59.916404609568865,
5,,,,,0,0,0,1,3,0,3,0,8,0,8,0,,,,,,,,,,,,,,,,,488.0892361998558,None,488.6731563999783,489.27318349992856,489.2564812998753,491.25725249992684,None,1,0.6079487400129437,2.6086906401906163,decreament,0.6,11,standard,None,100,,,,,,,,f,23,205,en,r,0,raw,2022-05-18_10h29.11.260,oddball,2022.1.2,59.916404609568865,
5,,,,,0,0,0,1,3,0,3,0,9,0,9,0,,,,,,,,,,,,,,,,,491.2739005999174,None,492.0909463998396,492.6909552998841,492.67442049994133,494.6753837999422,None,1,0.6131441399920732,2.6141471401788294,decreament,0.6,11,standard,None,100,,,,,,,,f,23,205,en,r,0,raw,2022-05-18_10h29.11.260,oddball,2022.1.2,59.916404609568865,
5,,,,,0,0,0,1,3,0,3,0,10,0,10,0,,,,,,,,,,,,,,,,,494.6919254998211,None,495.3090275998693,495.90909579978324,495.8924484997988,497.8933981999289,None,1,0.6117940400727093,2.6127918399870396,decreament,0.6,11,standard,None,100,,,,,,,,f,23,205,en,r,0,raw,2022-05-18_10h29.11.260,oddball,2022.1.2,59.916404609568865,
5,,,,,0,0,0,1,3,0,3,0,11,0,11,0,,,,,,,,,,,,,,,,,497.9099043998867,None,498.5100783999078,499.1103234998882,499.09375809994526,501.0943740999792,None,1,0.6123806401155889,2.6129653400275856,decreament,0.6,11,standard,None,100,,,,,,,,f,23,205,en,r,0,raw,2022-05-18_10h29.11.260,oddball,2022.1.2,59.916404609568865,
5,,,,,0,0,0,1,3,0,3,0,12,0,12,0,,,,,,,,,,,,,,,,,501.1110163999256,None,501.7775666997768,502.37835029978305,502.36174649978057,504.3619955999311,None,1,0.6148080402053893,2.614990340080112,decreament,0.6,11,standard,None,100,,,,,,,,f,23,205,en,r,0,raw,2022-05-18_10h29.11.260,oddball,2022.1.2,59.916404609568865,
5,,,,,0,0,0,1,3,0,3,0,13,0,13,0,,,,,,,,,,,,,,,,,504.378581199795,None,505.0961126999464,505.6962127999868,505.67981069977395,507.68013619980775,None,1,0.6097107401583344,2.609931740211323,decreament,0.6,11,standard,None,100,,,,,,,,f,23,205,en,r,0,raw,2022-05-18_10h29.11.260,oddball,2022.1.2,59.916404609568865,
5,,,,,0,0,0,1,3,0,3,0,14,0,14,0,,,,,,,,,,,,,,,,,507.696847199928,None,508.3134837998077,508.91388119990006,508.8974563998636,510.89784199977294,None,1,0.6138451399747282,2.6141515399795026,decreament,0.6,11,standard,None,100,,,,,,,,f,23,205,en,r,0,raw,2022-05-18_10h29.11.260,oddball,2022.1.2,59.916404609568865,
5,,,,,0,0,0,1,3,0,3,0,15,0,15,0,,,,,,,,,,,,,,,,,510.9147788998671,None,511.48146319994703,512.0821445998736,512.0652536998969,514.0656702998094,None,1,0.6135673401877284,2.613953840220347,decreament,0.6,11,standard,None,100,,,,,,,,f,23,205,en,r,0,raw,2022-05-18_10h29.11.260,oddball,2022.1.2,59.916404609568865,
5,,,,,0,0,0,1,3,0,3,0,16,0,16,0,,,,,,,,,,,,,,,,,514.0826395999175,None,514.9000376998447,515.5001294999383,515.4833362998907,517.4837238998152,None,1,0.6121008398476988,2.612438239855692,decreament,0.6,11,standard,None,100,,,,,,,,f,23,205,en,r,0,raw,2022-05-18_10h29.11.260,oddball,2022.1.2,59.916404609568865,
5,,,,,0,0,0,1,3,0,3,0,17,0,17,0,,,,,,,,,,,,,,,,,517.500383499777,None,518.2007228999864,518.450835699914,518.4180384997744,520.4183809999377,j,1,0.24276554002426565,2.243018940091133,decreament,0.24,12,oddball,j,40,1.5236254001501948,,,,,,,f,23,205,en,r,0,raw,2022-05-18_10h29.11.260,oddball,2022.1.2,59.916404609568865,
5,,,,,0,0,0,1,3,0,3,0,18,0,18,0,,,,,,,,,,,,,,,,,520.4351974998135,None,520.9851877999026,521.5853127997834,521.5687886998057,523.5695488997735,None,1,0.612259540008381,2.6129997400566936,decreament,0.6,11,standard,None,100,,,,,,,,f,23,205,en,r,0,raw,2022-05-18_10h29.11.260,oddball,2022.1.2,59.916404609568865,
5,,,,,0,0,0,1,3,0,3,0,19,0,19,0,,,,,,,,,,,,,,,,,523.5861270998139,None,524.1535276998766,524.7533533999231,524.7365755999926,526.7373030998278,None,1,0.6115035400725901,2.6122128402348608,decreament,0.6,11,standard,None,100,,,,,,,,f,23,205,en,r,0,raw,2022-05-18_10h29.11.260,oddball,2022.1.2,59.916404609568865,
5,,,,,0,0,0,1,3,0,3,0,20,0,20,0,,,,,,,,,,,,,,,,,526.7540382998995,None,527.4208484999835,528.0212688997854,528.0046107999515,530.0053030999843,None,1,0.6130603402853012,2.6137857402209193,decreament,0.6,11,standard,None,100,,,,,,,,f,23,205,en,r,0,raw,2022-05-18_10h29.11.260,oddball,2022.1.2,59.916404609568865,
5,,,,,0,0,0,1,3,0,3,0,21,0,21,0,,,,,,,,,,,,,,,,,530.0220503997989,None,530.705629899865,531.1890062999446,531.1722145997919,533.1732166998554,j,1,0.49539903993718326,2.496420639799908,decreament,0.48,14,oddball,j,80,0.7703838001471013,,,,,,,f,23,205,en,r,0,raw,2022-05-18_10h29.11.260,oddball,2022.1.2,59.916404609568865,
5,,,,,0,0,0,1,3,0,3,0,22,0,22,0,,,,,,,,,,,,,,,,,533.1899143999908,None,533.807023299858,534.406693500001,534.3900601998903,536.3912941999733,None,1,0.6100740400142968,2.6113782399334013,decreament,0.6,11,standard,None,100,,,,,,,,f,23,205,en,r,0,raw,2022-05-18_10h29.11.260,oddball,2022.1.2,59.916404609568865,
5,,,,,0,0,0,1,3,0,3,0,23,0,23,0,,,,,,,,,,,,,,,,,536.4076472998131,None,537.0243197998498,537.624973999802,537.6082911998965,539.6091232998297,None,1,0.613348739920184,2.6142056400422007,decreament,0.6,11,standard,None,100,,,,,,,,f,23,205,en,r,0,raw,2022-05-18_10h29.11.260,oddball,2022.1.2,59.916404609568865,
5,,,,,0,0,0,1,3,0,3,0,24,0,24,0,,,,,,,,,,,,,,,,,539.6256091999821,None,540.2260918999091,540.8263859997969,540.8098841998726,542.8102880998049,None,1,0.613513840129599,2.613804940134287,decreament,0.6,11,standard,None,100,,,,,,,,f,23,205,en,r,0,raw,2022-05-18_10h29.11.260,oddball,2022.1.2,59.916404609568865,
5,,,,,0,0,0,1,3,0,3,0,25,0,25,0,,,,,,,,,,,,,,,,,542.8268555998802,None,543.4436352998018,543.8102406999096,543.7772320997901,545.7778261997737,j,1,0.3594441399909556,2.360053739976138,decreament,0.36,13,oddball,j,60,0.8933411999605596,,,,,,,f,23,205,en,r,0,raw,2022-05-18_10h29.11.260,oddball,2022.1.2,59.916404609568865,
5,,,,,0,0,0,1,3,0,3,0,26,0,26,0,,,,,,,,,,,,,,,,,545.7947168999817,None,546.5452135999221,547.1454220998567,547.1285312999971,549.1291900998913,None,1,0.6118681400548667,2.6124767400324345,decreament,0.6,11,standard,None,100,,,,,,,,f,23,205,en,r,0,raw,2022-05-18_10h29.11.260,oddball,2022.1.2,59.916404609568865,
5,,,,,0,0,0,1,3,0,3,0,27,0,27,0,,,,,,,,,,,,,,,,,549.1457966999151,None,549.7293408999685,550.329641699791,550.3136905999854,552.3135713997763,None,1,0.6145293400622904,2.6143128401599824,decreament,0.6,11,standard,None,100,,,,,,,,f,23,205,en,r,0,raw,2022-05-18_10h29.11.260,oddball,2022.1.2,59.916404609568865,
5,,,,,0,0,0,1,3,0,3,0,28,0,28,0,,,,,,,,,,,,,,,,,552.3304445999674,None,553.1141865998507,553.714001199929,553.6974103997927,555.6990266998764,None,1,0.6121098399162292,2.613807040033862,decreament,0.6,11,standard,None,100,,,,,,,,f,23,205,en,r,0,raw,2022-05-18_10h29.11.260,oddball,2022.1.2,59.916404609568865,
5,,,,,0,0,0,1,3,0,3,0,29,0,29,0,,,,,,,,,,,,,,,,,555.714908399852,None,556.3152722998057,556.9153187999036,556.8994604998734,558.8994691998232,None,1,0.611190140247345,2.611046840203926,decreament,0.6,11,standard,None,100,,,,,,,,f,23,205,en,r,0,raw,2022-05-18_10h29.11.260,oddball,2022.1.2,59.916404609568865,
5,,,,,0,0,0,1,4,0,4,0,0,0,0,0,,,,,,,,,,,,,,,576.5969413998537,None,580.7910218997858,None,581.3246929999441,581.9248059999663,581.9084360999987,583.9090929999948,None,1,0.6127163399942219,2.6133255399763584,increament,0.6,15,standard,None,100,,558.916194899939,None,,,,,f,23,205,en,r,0,raw,2022-05-18_10h29.11.260,oddball,2022.1.2,59.916404609568865,
5,,,,,0,0,0,1,4,0,4,0,1,0,1,0,,,,,,,,,,,,,,,,,583.9272640999407,None,584.5260953998659,585.1260478999466,585.1096712998115,587.1103422997985,None,1,0.6113461402710527,2.611957540269941,increament,0.6,15,standard,None,100,,,,,,,,f,23,205,en,r,0,raw,2022-05-18_10h29.11.260,oddball,2022.1.2,59.916404609568865,
5,,,,,0,0,0,1,4,0,4,0,2,0,2,0,,,,,,,,,,,,,,,,,587.1270249998197,None,587.893685599789,588.4942536999006,588.4776034997776,590.4780831998214,None,1,0.6136899401899427,2.614153540227562,increament,0.6,15,standard,None,100,,,,,,,,f,23,205,en,r,0,raw,2022-05-18_10h29.11.260,oddball,2022.1.2,59.916404609568865,
5,,,,,0,0,0,1,4,0,4,0,3,0,3,0,,,,,,,,,,,,,,,,,590.4949046999682,None,591.178711499786,591.7789616999216,591.7620378998108,593.7626292998902,None,1,0.6106680401135236,2.611212340183556,increament,0.6,15,standard,None,100,,,,,,,,f,23,205,en,r,0,raw,2022-05-18_10h29.11.260,oddball,2022.1.2,59.916404609568865,
5,,,,,0,0,0,1,4,0,4,0,4,0,4,0,,,,,,,,,,,,,,,,,593.779316399945,None,594.4463490999769,595.0465952998493,595.0298856999725,597.0306849998888,None,1,0.6136471398640424,2.6144409398548305,increament,0.6,15,standard,None,100,,,,,,,,f,23,205,en,r,0,raw,2022-05-18_10h29.11.260,oddball,2022.1.2,59.916404609568865,
5,,,,,0,0,0,1,4,0,4,0,5,0,5,0,,,,,,,,,,,,,,,,,597.0473312998656,None,597.7145122999791,598.3146633999422,598.2980444999412,600.2981982999481,None,1,0.6098819400649518,2.609938140027225,increament,0.6,15,standard,None,100,,,,,,,,f,23,205,en,r,0,raw,2022-05-18_10h29.11.260,oddball,2022.1.2,59.916404609568865,
5,,,,,0,0,0,1,4,0,4,0,6,0,6,0,,,,,,,,,,,,,,,,,600.314902599901,None,601.0492387998383,601.6490928998683,601.632803699933,603.633016299922,None,1,0.6115081403404474,2.611632640240714,increament,0.6,15,standard,None,100,,,,,,,,f,23,205,en,r,0,raw,2022-05-18_10h29.11.260,oddball,2022.1.2,59.916404609568865,
5,,,,,0,0,0,1,4,0,4,0,7,0,7,0,,,,,,,,,,,,,,,,,603.6495689998847,None,604.2666781998705,604.8669103998691,604.8502525999211,606.8510115998797,None,1,0.6126690399833024,2.613427439937368,increament,0.6,15,standard,None,100,,,,,,,,f,23,205,en,r,0,raw,2022-05-18_10h29.11.260,oddball,2022.1.2,59.916404609568865,
5,,,,,0,0,0,1,4,0,4,0,8,0,8,0,,,,,,,,,,,,,,,,,606.867882499937,None,607.6682840997819,608.2680295999162,608.2515203999355,610.2524776998907,None,1,0.6105646397918463,2.611534039955586,increament,0.6,15,standard,None,100,,,,,,,,f,23,205,en,r,0,raw,2022-05-18_10h29.11.260,oddball,2022.1.2,59.916404609568865,
5,,,,,0,0,0,1,4,0,4,0,9,0,9,0,,,,,,,,,,,,,,,,,610.269393999828,None,611.0027892999351,611.8531793998554,611.8196332999505,613.8210098999552,None,0,0.8442774398718029,2.8457354397978634,increament,0.84,17,oddball,j,140,,,,,,,,f,23,205,en,r,0,raw,2022-05-18_10h29.11.260,oddball,2022.1.2,59.916404609568865,
5,,,,,0,0,0,1,4,0,4,0,10,0,10,0,,,,,,,,,,,,,,,,,613.837590099778,None,614.4372333998326,615.0375042997766,615.0207385998219,617.0215208998416,None,1,0.6128627399448305,2.61363313999027,increament,0.6,15,standard,None,100,,,,,,,,f,23,205,en,r,0,raw,2022-05-18_10h29.11.260,oddball,2022.1.2,59.916404609568865,
5,,,,,0,0,0,1,4,0,4,0,11,0,11,0,,,,,,,,,,,,,,,,,617.0381968999282,None,617.7221178999171,618.3221263999585,618.3053716998547,620.3060962997843,None,1,0.6125841401517391,2.6132925401907414,increament,0.6,15,standard,None,100,,,,,,,,f,23,205,en,r,0,raw,2022-05-18_10h29.11.260,oddball,2022.1.2,59.916404609568865,
5,,,,,0,0,0,1,4,0,4,0,12,0,12,0,,,,,,,,,,,,,,,,,620.3226815999951,None,620.9228953998536,621.5237195999362,621.506797599839,623.5074391998351,None,1,0.6142881400883198,2.614932639990002,increament,0.6,15,standard,None,100,,,,,,,,f,23,205,en,r,0,raw,2022-05-18_10h29.11.260,oddball,2022.1.2,59.916404609568865,
5,,,,,0,0,0,1,4,0,4,0,13,0,13,0,,,,,,,,,,,,,,,,,623.5246199998073,None,624.158098799875,624.7580164999235,624.74118979997,626.7420644999947,None,1,0.6097172400914133,2.6105501402635127,increament,0.6,15,standard,None,100,,,,,,,,f,23,205,en,r,0,raw,2022-05-18_10h29.11.260,oddball,2022.1.2,59.916404609568865,
5,,,,,0,0,0,1,4,0,4,0,14,0,14,0,,,,,,,,,,,,,,,,,626.7586060999893,None,627.39197649993,627.9922336000018,627.9757689998951,629.9765903998632,None,1,0.612478039925918,2.6133435398805887,increament,0.6,15,standard,None,100,,,,,,,,f,23,205,en,r,0,raw,2022-05-18_10h29.11.260,oddball,2022.1.2,59.916404609568865,
5,,,,,0,0,0,1,4,0,4,0,15,0,15,0,,,,,,,,,,,,,,,,,629.9931022999808,None,630.6766680998262,631.6435643997975,631.6104408998508,633.6115268999711,None,0,0.9625009398441762,2.9636375398840755,increament,0.96,18,oddball,j,160,,,,,,,,f,23,205,en,r,0,raw,2022-05-18_10h29.11.260,oddball,2022.1.2,59.916404609568865,
5,,,,,0,0,0,1,4,0,4,0,16,0,16,0,,,,,,,,,,,,,,,,,633.6279559999239,None,634.1949186997954,634.7947867999319,634.7782633998431,636.7794079999439,None,1,0.6112690400332212,2.612520739901811,increament,0.6,15,standard,None,100,,,,,,,,f,23,205,en,r,0,raw,2022-05-18_10h29.11.260,oddball,2022.1.2,59.916404609568865,
5,,,,,0,0,0,1,4,0,4,0,17,0,17,0,,,,,,,,,,,,,,,,,636.7959659998305,None,637.4961616999935,638.096209899988,638.0795810997952,640.0802185998764,None,1,0.6097309400793165,2.6103553401771933,increament,0.6,15,standard,None,100,,,,,,,,f,23,205,en,r,0,raw,2022-05-18_10h29.11.260,oddball,2022.1.2,59.916404609568865,
5,,,,,0,0,0,1,4,0,4,0,18,0,18,0,,,,,,,,,,,,,,,,,640.0968378998805,None,640.7141940000001,641.3141766998451,641.2974790998269,643.2983544999734,None,1,0.6094503400381655,2.610432240180671,increament,0.6,15,standard,None,100,,,,,,,,f,23,205,en,r,0,raw,2022-05-18_10h29.11.260,oddball,2022.1.2,59.916404609568865,
5,,,,,0,0,0,1,4,0,4,0,19,0,19,0,,,,,,,,,,,,,,,,,643.3148050999735,None,644.0318035997916,644.6322396998294,644.615317999851,646.6157448999584,None,1,0.6123024402186275,2.6126862401142716,increament,0.6,15,standard,None,100,,,,,,,,f,23,205,en,r,0,raw,2022-05-18_10h29.11.260,oddball,2022.1.2,59.916404609568865,
5,,,,,0,0,0,1,4,0,4,0,20,0,20,0,,,,,,,,,,,,,,,,,646.6326798999216,None,647.3664644998498,647.9665410998277,647.9499760998879,649.9506981999148,None,1,0.6125209401361644,2.6132749400567263,increament,0.6,15,standard,None,100,,,,,,,,f,23,205,en,r,0,raw,2022-05-18_10h29.11.260,oddball,2022.1.2,59.916404609568865,
5,,,,,0,0,0,1,4,0,4,0,21,0,21,0,,,,,,,,,,,,,,,,,649.9672455999535,None,650.6673567998223,651.2676540999673,651.2512602999341,653.252499199938,None,1,0.6094258402008563,2.610748140141368,increament,0.6,15,standard,None,100,,,,,,,,f,23,205,en,r,0,raw,2022-05-18_10h29.11.260,oddball,2022.1.2,59.916404609568865,
5,,,,,0,0,0,1,4,0,4,0,22,0,22,0,,,,,,,,,,,,,,,,,653.2684206999838,None,654.0854661997873,654.8191066998988,654.7863191999495,656.7869558997918,None,0,0.7306397401262075,2.7313004401512444,increament,0.72,16,oddball,j,120,,,,,,,,f,23,205,en,r,0,raw,2022-05-18_10h29.11.260,oddball,2022.1.2,59.916404609568865,
5,,,,,0,0,0,1,4,0,4,0,23,0,23,0,,,,,,,,,,,,,,,,,656.8035938998219,None,657.4536509998143,658.0538020997774,658.0370415998623,660.0378832998686,None,1,0.605594540014863,2.6064140400849283,increament,0.6,15,standard,None,100,,,,,,,,f,23,205,en,r,0,raw,2022-05-18_10h29.11.260,oddball,2022.1.2,59.916404609568865,
5,,,,,0,0,0,1,4,0,4,0,24,0,24,0,,,,,,,,,,,,,,,,,660.0545055998955,None,660.7214696998708,661.321655199863,661.3050522999838,663.3057980998419,None,1,0.6121897401753813,2.6130081401206553,increament,0.6,15,standard,None,100,,,,,,,,f,23,205,en,r,0,raw,2022-05-18_10h29.11.260,oddball,2022.1.2,59.916404609568865,
5,,,,,0,0,0,1,4,0,4,0,25,0,25,0,,,,,,,,,,,,,,,,,663.3229558998719,None,663.9059589998797,664.506272399798,664.4894518998917,666.4904112999793,None,1,0.6135519403032959,2.61452514026314,increament,0.6,15,standard,None,100,,,,,,,,f,23,205,en,r,0,raw,2022-05-18_10h29.11.260,oddball,2022.1.2,59.916404609568865,
5,,,,,0,0,0,1,4,0,4,0,26,0,26,0,,,,,,,,,,,,,,,,,666.5070134999696,None,667.0403930998873,667.6405452999752,667.6242172999773,669.6249241998885,None,1,0.6124692403245717,2.6132451402954757,increament,0.6,15,standard,None,100,,,,,,,,f,23,205,en,r,0,raw,2022-05-18_10h29.11.260,oddball,2022.1.2,59.916404609568865,
5,,,,,0,0,0,1,4,0,4,0,27,0,27,0,,,,,,,,,,,,,,,,,669.6413771999069,None,670.225324699888,670.8252370997798,670.8085735999048,672.8091855999082,None,1,0.6123312399722636,2.6129537399392575,increament,0.6,15,standard,None,100,,,,,,,,f,23,205,en,r,0,raw,2022-05-18_10h29.11.260,oddball,2022.1.2,59.916404609568865,
5,,,,,0,0,0,1,4,0,4,0,28,0,28,0,,,,,,,,,,,,,,,,,672.8263441999443,None,673.6098119998351,674.2097947997972,674.1934575999621,676.1941016998608,None,1,0.6116459399927408,2.6122327400371432,increament,0.6,15,standard,None,100,,,,,,,,f,23,205,en,r,0,raw,2022-05-18_10h29.11.260,oddball,2022.1.2,59.916404609568865,
5,,,,,0,0,0,1,4,0,4,0,29,0,29,0,,,,,,,,,,,,,,,,,676.2108144999947,None,676.8442535998765,677.4442760997918,677.428070299793,679.4285547998734,None,1,0.6127989403903484,2.613249040208757,increament,0.6,15,standard,None,100,,,,,,,,f,23,205,en,r,0,raw,2022-05-18_10h29.11.260,oddball,2022.1.2,59.916404609568865,
5,,,,,0,0,0,1,5,0,5,0,0,0,0,0,,,,,,,,,,,,,,,700.6399504998699,None,707.3222960999701,None,708.0892958999611,708.6896572997794,708.6731188998092,710.6735920999199,None,1,0.6105577400885522,2.611029440071434,decreament,0.6,11,standard,None,100,,679.4452774999663,None,,,,,f,23,205,en,r,0,raw,2022-05-18_10h29.11.260,oddball,2022.1.2,59.916404609568865,
5,,,,,0,0,0,1,5,0,5,0,1,0,1,0,,,,,,,,,,,,,,,,,710.6902363998815,None,711.357345999917,711.957431799965,711.9411313999444,713.9417426998261,None,1,0.6135868399869651,2.6142197400331497,decreament,0.6,11,standard,None,100,,,,,,,,f,23,205,en,r,0,raw,2022-05-18_10h29.11.260,oddball,2022.1.2,59.916404609568865,
5,,,,,0,0,0,1,5,0,5,0,2,0,2,0,,,,,,,,,,,,,,,,,713.9583663998637,None,714.5251589999534,715.1257235999219,715.108632999938,717.1097208999563,None,1,0.6113598400261253,2.612526339944452,decreament,0.6,11,standard,None,100,,,,,,,,f,23,205,en,r,0,raw,2022-05-18_10h29.11.260,oddball,2022.1.2,59.916404609568865,
5,,,,,0,0,0,1,5,0,5,0,3,0,3,0,,,,,,,,,,,,,,,,,717.126040399773,None,717.6932337000035,718.2935564999934,718.2766794997733,720.2774146997835,None,1,0.6119929400738329,2.6127454400993884,decreament,0.6,11,standard,None,100,,,,,,,,f,23,205,en,r,0,raw,2022-05-18_10h29.11.260,oddball,2022.1.2,59.916404609568865,
5,,,,,0,0,0,1,5,0,5,0,4,0,4,0,,,,,,,,,,,,,,,,,720.296199799981,None,721.0111447998788,721.6115694998298,721.5946761998348,723.5958391998429,None,1,0.6096726402174681,2.6108867400325835,decreament,0.6,11,standard,None,100,,,,,,,,f,23,205,en,r,0,raw,2022-05-18_10h29.11.260,oddball,2022.1.2,59.916404609568865,
5,,,,,0,0,0,1,5,0,5,0,5,0,5,0,,,,,,,,,,,,,,,,,723.6134005999193,None,724.1454835999757,724.7454016997945,724.7291639999021,726.7298742998391,None,1,0.6096630399115384,2.610415339935571,decreament,0.6,11,standard,None,100,,,,,,,,f,23,205,en,r,0,raw,2022-05-18_10h29.11.260,oddball,2022.1.2,59.916404609568865,
5,,,,,0,0,0,1,5,0,5,0,6,0,6,0,,,,,,,,,,,,,,,,,726.746408799896,None,727.3805487998761,727.9800489000045,727.9635871998034,729.9641959997825,None,1,0.6091925401706249,2.6098111402243376,decreament,0.6,11,standard,None,100,,,,,,,,f,23,205,en,r,0,raw,2022-05-18_10h29.11.260,oddball,2022.1.2,59.916404609568865,
5,,,,,0,0,0,1,5,0,5,0,7,0,7,0,,,,,,,,,,,,,,,,,729.9809289998375,None,730.6313564998563,731.2315176997799,731.214994699927,733.2161427999381,None,1,0.6123880399391055,2.61361514008604,decreament,0.6,11,standard,None,100,,,,,,,,f,23,205,en,r,0,raw,2022-05-18_10h29.11.260,oddball,2022.1.2,59.916404609568865,
5,,,,,0,0,0,1,5,0,5,0,8,0,8,0,,,,,,,,,,,,,,,,,733.2321490999311,None,733.9325647999067,734.5327459999826,734.5159764999989,736.5166380999144,None,1,0.6091809400822967,2.6098333401605487,decreament,0.6,11,standard,None,100,,,,,,,,f,23,205,en,r,0,raw,2022-05-18_10h29.11.260,oddball,2022.1.2,59.916404609568865,
5,,,,,0,0,0,1,5,0,5,0,9,0,9,0,,,,,,,,,,,,,,,,,736.5335188999306,None,737.15043589985,737.7505318999756,737.7337780999951,739.7347151997965,None,1,0.6127848399337381,2.613764740061015,decreament,0.6,11,standard,None,100,,,,,,,,f,23,205,en,r,0,raw,2022-05-18_10h29.11.260,oddball,2022.1.2,59.916404609568865,
5,,,,,0,0,0,1,5,0,5,0,10,0,10,0,,,,,,,,,,,,,,,,,739.7515184998047,None,740.5183002999984,741.1187093998305,741.1017075998243,743.1023888997734,None,1,0.6108008401934057,2.611488940194249,decreament,0.6,11,standard,None,100,,,,,,,,f,23,205,en,r,0,raw,2022-05-18_10h29.11.260,oddball,2022.1.2,59.916404609568865,
5,,,,,0,0,0,1,5,0,5,0,11,0,11,0,,,,,,,,,,,,,,,,,743.119069499895,None,743.7366404999048,744.3362798998132,744.3197145999875,746.3204149999656,None,1,0.6106550397817045,2.611445939866826,decreament,0.6,11,standard,None,100,,,,,,,,f,23,205,en,r,0,raw,2022-05-18_10h29.11.260,oddball,2022.1.2,59.916404609568865,
5,,,,,0,0,0,1,5,0,5,0,12,0,12,0,,,,,,,,,,,,,,,,,746.3372085997835,None,746.9040950997733,747.5041329998057,747.4875514998566,749.4882607997861,None,1,0.6120340400375426,2.61274004005827,decreament,0.6,11,standard,None,100,,,,,,,,f,23,205,en,r,0,raw,2022-05-18_10h29.11.260,oddball,2022.1.2,59.916404609568865,
5,,,,,0,0,0,1,5,0,5,0,13,0,13,0,,,,,,,,,,,,,,,,,749.505156799918,None,750.1384825999849,750.7389063998125,750.7221931999084,752.7228991999291,None,1,0.6123671401292086,2.613024140242487,decreament,0.6,11,standard,None,100,,,,,,,,f,23,205,en,r,0,raw,2022-05-18_10h29.11.260,oddball,2022.1.2,59.916404609568865,
5,,,,,0,0,0,1,5,0,5,0,14,0,14,0,,,,,,,,,,,,,,,,,752.7397380999755,None,753.4231088999659,754.0234789999668,754.0075423999224,756.0076571998652,None,1,0.613550340058282,2.6136224400252104,decreament,0.6,11,standard,None,100,,,,,,,,f,23,205,en,r,0,raw,2022-05-18_10h29.11.260,oddball,2022.1.2,59.916404609568865,
5,,,,,0,0,0,1,5,0,5,0,15,0,15,0,,,,,,,,,,,,,,,,,756.0239334998187,None,756.7579617998563,757.3579762999434,757.3413768999744,759.3420788999647,None,1,0.6129889402072877,2.6136823401320726,decreament,0.6,11,standard,None,100,,,,,,,,f,23,205,en,r,0,raw,2022-05-18_10h29.11.260,oddball,2022.1.2,59.916404609568865,
5,,,,,0,0,0,1,5,0,5,0,16,0,16,0,,,,,,,,,,,,,,,,,759.3587072999217,None,759.9424392997753,760.5424065999687,760.5260944999754,762.5267871997785,None,1,0.6099220402538776,2.6106757402885705,decreament,0.6,11,standard,None,100,,,,,,,,f,23,205,en,r,0,raw,2022-05-18_10h29.11.260,oddball,2022.1.2,59.916404609568865,
5,,,,,0,0,0,1,5,0,5,0,17,0,17,0,,,,,,,,,,,,,,,,,762.5440614998806,None,763.2602790999226,763.6274211998098,763.5937222999055,765.5945114998613,j,1,0.36035153991542757,2.361187139991671,decreament,0.36,13,oddball,j,60,0.6845980000216514,,,,,,,f,23,205,en,r,0,raw,2022-05-18_10h29.11.260,oddball,2022.1.2,59.916404609568865,
5,,,,,0,0,0,1,5,0,5,0,18,0,18,0,,,,,,,,,,,,,,,,,765.6114142998122,None,766.1952275999356,766.7948335998226,766.7782375998795,768.7789072999731,None,1,0.6119434400461614,2.6126099401153624,decreament,0.6,11,standard,None,100,,,,,,,,f,23,205,en,r,0,raw,2022-05-18_10h29.11.260,oddball,2022.1.2,59.916404609568865,
5,,,,,0,0,0,1,5,0,5,0,19,0,19,0,,,,,,,,,,,,,,,,,768.7956663998775,None,769.4460533999372,770.0461980998516,770.0294879998546,772.030551899923,None,1,0.6112034399993718,2.61229814006947,decreament,0.6,11,standard,None,100,,,,,,,,f,23,205,en,r,0,raw,2022-05-18_10h29.11.260,oddball,2022.1.2,59.916404609568865,
5,,,,,0,0,0,1,5,0,5,0,20,0,20,0,,,,,,,,,,,,,,,,,772.0470775999129,None,772.5972215998918,773.1976797999814,773.1811158999335,775.1814600999933,None,1,0.6131919398903847,2.6135101397521794,decreament,0.6,11,standard,None,100,,,,,,,,f,23,205,en,r,0,raw,2022-05-18_10h29.11.260,oddball,2022.1.2,59.916404609568865,
5,,,,,0,0,0,1,5,0,5,0,21,0,21,0,,,,,,,,,,,,,,,,,775.1981852999888,None,775.8652378998231,776.4652551999316,776.4484802999068,778.4495224999264,None,1,0.611925840144977,2.6131188401486725,decreament,0.6,11,standard,None,100,,,,,,,,f,23,205,en,r,0,raw,2022-05-18_10h29.11.260,oddball,2022.1.2,59.916404609568865,
5,,,,,0,0,0,1,5,0,5,0,22,0,22,0,,,,,,,,,,,,,,,,,778.4661114998162,None,779.1333653999027,779.732982999878,779.7166545998771,781.7174535999075,None,1,0.6106991400010884,2.6115716400090605,decreament,0.6,11,standard,None,100,,,,,,,,f,23,205,en,r,0,raw,2022-05-18_10h29.11.260,oddball,2022.1.2,59.916404609568865,
5,,,,,0,0,0,1,5,0,5,0,23,0,23,0,,,,,,,,,,,,,,,,,781.7340332998428,None,782.3007073998451,782.9009154997766,782.8844993999228,784.885398299899,None,1,0.6125379400327802,2.6135049401782453,decreament,0.6,11,standard,None,100,,,,,,,,f,23,205,en,r,0,raw,2022-05-18_10h29.11.260,oddball,2022.1.2,59.916404609568865,
5,,,,,0,0,0,1,5,0,5,0,24,0,24,0,,,,,,,,,,,,,,,,,784.9016391998157,None,785.735452799825,785.985669199843,785.9522129998077,787.9529461998027,j,1,0.2466094398405403,2.247347939759493,decreament,0.24,12,oddball,j,40,0.6206462001428008,,,,,,,f,23,205,en,r,0,raw,2022-05-18_10h29.11.260,oddball,2022.1.2,59.916404609568865,
5,,,,,0,0,0,1,5,0,5,0,25,0,25,0,,,,,,,,,,,,,,,,,787.9698432998266,None,788.5866649998352,789.1867119998205,789.1700915999245,791.1709928999189,None,1,0.6112624402157962,2.6122334401588887,decreament,0.6,11,standard,None,100,,,,,,,,f,23,205,en,r,0,raw,2022-05-18_10h29.11.260,oddball,2022.1.2,59.916404609568865,
5,,,,,0,0,0,1,5,0,5,0,26,0,26,0,,,,,,,,,,,,,,,,,791.187348399777,None,791.8712424999103,792.4713229998015,792.4546587998047,794.4552731998265,None,1,0.6130079401191324,2.6136462402064353,decreament,0.6,11,standard,None,100,,,,,,,,f,23,205,en,r,0,raw,2022-05-18_10h29.11.260,oddball,2022.1.2,59.916404609568865,
5,,,,,0,0,0,1,5,0,5,0,27,0,27,0,,,,,,,,,,,,,,,,,794.4720259997994,None,795.2558050998487,795.8559590999503,795.8391623999923,797.8403274999,None,1,0.6128884402569383,2.614077440230176,decreament,0.6,11,standard,None,100,,,,,,,,f,23,205,en,r,0,raw,2022-05-18_10h29.11.260,oddball,2022.1.2,59.916404609568865,
5,,,,,0,0,0,1,5,0,5,0,28,0,28,0,,,,,,,,,,,,,,,,,797.8567915000021,None,798.5234733999241,799.1238964998629,799.1070714998059,801.1080421998631,None,1,0.6126948399469256,2.6135371399577707,decreament,0.6,11,standard,None,100,,,,,,,,f,23,205,en,r,0,raw,2022-05-18_10h29.11.260,oddball,2022.1.2,59.916404609568865,
5,,,,,0,0,0,1,5,0,5,0,29,0,29,0,,,,,,,,,,,,,,,,,801.124657999957,None,801.8414442997891,802.3248430998065,802.291712799808,804.2924805998337,None,0,0.47945154015906155,2.480224340222776,decreament,0.48,14,oddball,j,80,,,,,,,,f,23,205,en,r,0,raw,2022-05-18_10h29.11.260,oddball,2022.1.2,59.916404609568865,
5,,,,,0,0,0,1,6,0,6,0,0,0,0,0,,,,,,,,,,,,,,,839.0313651999459,None,854.5450294998009,None,855.1951211998239,855.7953311000019,855.7786875998136,857.7794919000007,None,1,0.611665440024808,2.6126264401245862,increament,0.6,15,standard,None,100,,804.3094048998319,None,,,,,f,23,205,en,r,0,raw,2022-05-18_10h29.11.260,oddball,2022.1.2,59.916404609568865,
5,,,,,0,0,0,1,6,0,6,0,1,0,1,0,,,,,,,,,,,,,,,,,857.7960095999297,None,858.3964218997862,858.9963386999443,858.9801161999349,860.9805083998945,None,1,0.6098718401044607,2.6102424401324242,increament,0.6,15,standard,None,100,,,,,,,,f,23,205,en,r,0,raw,2022-05-18_10h29.11.260,oddball,2022.1.2,59.916404609568865,
5,,,,,0,0,0,1,6,0,6,0,2,0,2,0,,,,,,,,,,,,,,,,,860.997323699994,None,861.6140712997876,862.2145251999609,862.1984560999554,864.198452499928,None,1,0.613134539918974,2.613057340029627,increament,0.6,15,standard,None,100,,,,,,,,f,23,205,en,r,0,raw,2022-05-18_10h29.11.260,oddball,2022.1.2,59.916404609568865,
5,,,,,0,0,0,1,6,0,6,0,3,0,3,0,,,,,,,,,,,,,,,,,864.2149933998007,None,864.7487207998056,865.3493266999722,865.332891299855,867.3333207999822,None,1,0.6141124400310218,2.614513740176335,increament,0.6,15,standard,None,100,,,,,,,,f,23,205,en,r,0,raw,2022-05-18_10h29.11.260,oddball,2022.1.2,59.916404609568865,
5,,,,,0,0,0,1,6,0,6,0,4,0,4,0,,,,,,,,,,,,,,,,,867.3503224998713,None,868.0501245998312,868.6503000999801,868.6334789998364,870.6342589999549,None,1,0.6130732400342822,2.6138587398454547,increament,0.6,15,standard,None,100,,,,,,,,f,23,205,en,r,0,raw,2022-05-18_10h29.11.260,oddball,2022.1.2,59.916404609568865,
5,,,,,0,0,0,1,6,0,6,0,5,0,5,0,,,,,,,,,,,,,,,,,870.6511455997825,None,871.2350942997728,871.834917999804,871.8180762999691,873.81841969979,None,1,0.6117456399369985,2.6120062400586903,increament,0.6,15,standard,None,100,,,,,,,,f,23,205,en,r,0,raw,2022-05-18_10h29.11.260,oddball,2022.1.2,59.916404609568865,
5,,,,,0,0,0,1,6,0,6,0,6,0,6,0,,,,,,,,,,,,,,,,,873.8350853999145,None,874.552329899976,875.1524810998235,875.1360221998766,877.1370735999662,None,1,0.6130393403582275,2.6141687403433025,increament,0.6,15,standard,None,100,,,,,,,,f,23,205,en,r,0,raw,2022-05-18_10h29.11.260,oddball,2022.1.2,59.916404609568865,
5,,,,,0,0,0,1,6,0,6,0,7,0,7,0,,,,,,,,,,,,,,,,,877.1533009998966,None,877.8038697999436,878.4037489998154,878.3876298998948,880.3879891999532,None,1,0.6128274400252849,2.6131468401290476,increament,0.6,15,standard,None,100,,,,,,,,f,23,205,en,r,0,raw,2022-05-18_10h29.11.260,oddball,2022.1.2,59.916404609568865,
5,,,,,0,0,0,1,6,0,6,0,8,0,8,0,,,,,,,,,,,,,,,,,880.4046058999375,None,880.9047370997723,881.7553627998568,881.721754899947,883.7224004999734,None,0,0.8462171400897205,2.8468468401115388,increament,0.84,17,oddball,j,140,,,,,,,,f,23,205,en,r,0,raw,2022-05-18_10h29.11.260,oddball,2022.1.2,59.916404609568865,
5,,,,,0,0,0,1,6,0,6,0,9,0,9,0,,,,,,,,,,,,,,,,,883.7393341998104,None,884.2561703999527,884.8567496999167,884.8399462997913,886.8407513999846,None,1,0.6130592401605099,2.613831140100956,increament,0.6,15,standard,None,100,,,,,,,,f,23,205,en,r,0,raw,2022-05-18_10h29.11.260,oddball,2022.1.2,59.916404609568865,
5,,,,,0,0,0,1,6,0,6,0,10,0,10,0,,,,,,,,,,,,,,,,,886.8570186998695,None,887.4742241997737,888.0744343998376,888.0576578998007,890.0584118999541,None,1,0.6109011399094015,2.6116852399427444,increament,0.6,15,standard,None,100,,,,,,,,f,23,205,en,r,0,raw,2022-05-18_10h29.11.260,oddball,2022.1.2,59.916404609568865,
5,,,,,0,0,0,1,6,0,6,0,11,0,11,0,,,,,,,,,,,,,,,,,890.0756320999935,None,890.7086779999081,891.3087565999012,891.2921737998258,893.2928297999315,None,1,0.6137093403376639,2.614339540246874,increament,0.6,15,standard,None,100,,,,,,,,f,23,205,en,r,0,raw,2022-05-18_10h29.11.260,oddball,2022.1.2,59.916404609568865,
5,,,,,0,0,0,1,6,0,6,0,12,0,12,0,,,,,,,,,,,,,,,,,893.3095918998588,None,893.8599529999774,894.4599228999577,894.4431443999056,896.443860600004,None,1,0.6091278400272131,2.609869640087709,increament,0.6,15,standard,None,100,,,,,,,,f,23,205,en,r,0,raw,2022-05-18_10h29.11.260,oddball,2022.1.2,59.916404609568865,
5,,,,,0,0,0,1,6,0,6,0,13,0,13,0,,,,,,,,,,,,,,,,,896.4605669998564,None,897.0943702999502,897.6944396998733,897.677687899908,899.678550099954,None,1,0.6131926400121301,2.6140589399728924,increament,0.6,15,standard,None,100,,,,,,,,f,23,205,en,r,0,raw,2022-05-18_10h29.11.260,oddball,2022.1.2,59.916404609568865,
5,,,,,0,0,0,1,6,0,6,0,14,0,14,0,,,,,,,,,,,,,,,,,899.695308299968,None,900.3623794999439,900.962246999843,900.9456323999912,902.9459752999246,None,1,0.6110390399117023,2.611364939948544,increament,0.6,15,standard,None,100,,,,,,,,f,23,205,en,r,0,raw,2022-05-18_10h29.11.260,oddball,2022.1.2,59.916404609568865,
5,,,,,0,0,0,1,6,0,6,0,15,0,15,0,,,,,,,,,,,,,,,,,902.9627123998944,None,903.5801655999385,904.1805380999576,904.163876199862,906.1648122998886,None,1,0.6119300399441272,2.6128634398337454,increament,0.6,15,standard,None,100,,,,,,,,f,23,205,en,r,0,raw,2022-05-18_10h29.11.260,oddball,2022.1.2,59.916404609568865,
5,,,,,0,0,0,1,6,0,6,0,16,0,16,0,,,,,,,,,,,,,,,,,906.1811086998787,None,906.7482226998545,907.4815014998894,907.4481119997799,909.4491750998423,None,0,0.7261425401084125,2.727283240063116,increament,0.72,16,oddball,j,120,,,,,,,,f,23,205,en,r,0,raw,2022-05-18_10h29.11.260,oddball,2022.1.2,59.916404609568865,
5,,,,,0,0,0,1,6,0,6,0,17,0,17,0,,,,,,,,,,,,,,,,,909.4660575999878,None,910.0993778998964,910.6993167998735,910.6829673999455,912.683367599966,None,1,0.6113470401614904,2.6117752401623875,increament,0.6,15,standard,None,100,,,,,,,,f,23,205,en,r,0,raw,2022-05-18_10h29.11.260,oddball,2022.1.2,59.916404609568865,
5,,,,,0,0,0,1,6,0,6,0,18,0,18,0,,,,,,,,,,,,,,,,,912.7002457999624,None,913.2674312999006,913.8671414998826,913.8506287999917,915.851770499954,None,1,0.6114353402517736,2.6126213402021676,increament,0.6,15,standard,None,100,,,,,,,,f,23,205,en,r,0,raw,2022-05-18_10h29.11.260,oddball,2022.1.2,59.916404609568865,
5,,,,,0,0,0,1,6,0,6,0,19,0,19,0,,,,,,,,,,,,,,,,,915.8682288997807,None,916.4184538999107,917.018544399878,917.0018172999844,919.0025449998211,None,1,0.6095822399947792,2.6102637401781976,increament,0.6,15,standard,None,100,,,,,,,,f,23,205,en,r,0,raw,2022-05-18_10h29.11.260,oddball,2022.1.2,59.916404609568865,
5,,,,,0,0,0,1,6,0,6,0,20,0,20,0,,,,,,,,,,,,,,,,,919.0192141998559,None,919.5695155998692,920.1697102999315,920.1534176999703,922.1537520999555,None,1,0.613079939968884,2.613346840022132,increament,0.6,15,standard,None,100,,,,,,,,f,23,205,en,r,0,raw,2022-05-18_10h29.11.260,oddball,2022.1.2,59.916404609568865,
5,,,,,0,0,0,1,6,0,6,0,21,0,21,0,,,,,,,,,,,,,,,,,922.1705544998404,None,922.837940499885,923.4374281999189,923.4209116999991,925.4216881999746,None,1,0.6095641402062029,2.6103603402152658,increament,0.6,15,standard,None,100,,,,,,,,f,23,205,en,r,0,raw,2022-05-18_10h29.11.260,oddball,2022.1.2,59.916404609568865,
5,,,,,0,0,0,1,6,0,6,0,22,0,22,0,,,,,,,,,,,,,,,,,925.4386031997856,None,926.1057419998106,926.7054796998855,926.6887915998232,928.6893659997731,None,1,0.6091356400866061,2.609673239989206,increament,0.6,15,standard,None,100,,,,,,,,f,23,205,en,r,0,raw,2022-05-18_10h29.11.260,oddball,2022.1.2,59.916404609568865,
5,,,,,0,0,0,1,6,0,6,0,23,0,23,0,,,,,,,,,,,,,,,,,928.7062487998046,None,929.3732688999735,929.973452599952,929.9567732999567,931.9577685999684,None,1,0.6121175400912762,2.6131695399526507,increament,0.6,15,standard,None,100,,,,,,,,f,23,205,en,r,0,raw,2022-05-18_10h29.11.260,oddball,2022.1.2,59.916404609568865,
5,,,,,0,0,0,1,6,0,6,0,24,0,24,0,,,,,,,,,,,,,,,,,931.9740997999907,None,932.6411475997884,933.241674499819,933.2245967998169,935.2255651999731,None,1,0.6132207398768514,2.6141976399812847,increament,0.6,15,standard,None,100,,,,,,,,f,23,205,en,r,0,raw,2022-05-18_10h29.11.260,oddball,2022.1.2,59.916404609568865,
5,,,,,0,0,0,1,6,0,6,0,25,0,25,0,,,,,,,,,,,,,,,,,935.2420013998635,None,935.9087717998773,936.5091705999803,936.4925868997816,938.4934208998457,None,1,0.6139374400954694,2.6147721400484443,increament,0.6,15,standard,None,100,,,,,,,,f,23,205,en,r,0,raw,2022-05-18_10h29.11.260,oddball,2022.1.2,59.916404609568865,
5,,,,,0,0,0,1,6,0,6,0,26,0,26,0,,,,,,,,,,,,,,,,,938.5098602999933,None,939.143502399791,939.7436657999642,939.7270375997759,941.7276966997888,None,1,0.6095990401227027,2.6102643399499357,increament,0.6,15,standard,None,100,,,,,,,,f,23,205,en,r,0,raw,2022-05-18_10h29.11.260,oddball,2022.1.2,59.916404609568865,
5,,,,,0,0,0,1,6,0,6,0,27,0,27,0,,,,,,,,,,,,,,,,,941.7446560999379,None,942.4614820999559,943.4282779998612,943.3950394999702,945.3956871998962,None,0,0.9641738401260227,2.9648144401144236,increament,0.96,18,oddball,j,160,,,,,,,,f,23,205,en,r,0,raw,2022-05-18_10h29.11.260,oddball,2022.1.2,59.916404609568865,
5,,,,,0,0,0,1,6,0,6,0,28,0,28,0,,,,,,,,,,,,,,,,,945.4124127998948,None,945.9961463999934,946.5967755999882,946.5798899999354,948.5803362999577,None,1,0.6127698400523514,2.613148440141231,increament,0.6,15,standard,None,100,,,,,,,,f,23,205,en,r,0,raw,2022-05-18_10h29.11.260,oddball,2022.1.2,59.916404609568865,
5,,,,,0,0,0,1,6,0,6,0,29,0,29,0,,,,,,,,,,,,,,,,,948.5971014997922,None,949.330735599855,949.9308139998466,949.914728499949,951.9153050999157,None,1,0.6130487397313118,2.613692339742556,increament,0.6,15,standard,None,100,,,,,,,,f,23,205,en,r,0,raw,2022-05-18_10h29.11.260,oddball,2022.1.2,59.916404609568865,
5,,,,,0,0,0,1,7,0,7,0,0,0,0,0,,,,,,,,,,,,,,,983.0100506998133,None,985.494239699794,None,986.078054699814,986.6779262998607,986.6613704999909,988.6624989998527,None,1,0.6122756402473897,2.6133910401258618,decreament,0.6,11,standard,None,100,,951.9340430998709,None,,,,,f,23,205,en,r,0,raw,2022-05-18_10h29.11.260,oddball,2022.1.2,59.916404609568865,
5,,,,,0,0,0,1,7,0,7,0,1,0,1,0,,,,,,,,,,,,,,,,,988.6791377998888,None,989.3624376999214,989.9626272998285,989.9461434998084,991.9472040999681,None,1,0.6112393401563168,2.6123549400363117,decreament,0.6,11,standard,None,100,,,,,,,,f,23,205,en,r,0,raw,2022-05-18_10h29.11.260,oddball,2022.1.2,59.916404609568865,
5,,,,,0,0,0,1,7,0,7,0,2,0,2,0,,,,,,,,,,,,,,,,,991.9633573999163,None,992.680546999909,993.280570599949,993.263986799866,995.2648111998569,None,1,0.6125870400574058,2.6133946399204433,decreament,0.6,11,standard,None,100,,,,,,,,f,23,205,en,r,0,raw,2022-05-18_10h29.11.260,oddball,2022.1.2,59.916404609568865,
5,,,,,0,0,0,1,7,0,7,0,3,0,3,0,,,,,,,,,,,,,,,,,995.2813975999597,None,995.9318367999513,996.5320524999406,996.5153000999708,998.5161468998995,None,1,0.6094222399406135,2.6102949399501085,decreament,0.6,11,standard,None,100,,,,,,,,f,23,205,en,r,0,raw,2022-05-18_10h29.11.260,oddball,2022.1.2,59.916404609568865,
5,,,,,0,0,0,1,7,0,7,0,4,0,4,0,,,,,,,,,,,,,,,,,998.5328460999299,None,999.0664206999354,999.6664849999361,999.6496978998184,1001.6504809998441,None,1,0.6124511400703341,2.6132400401402265,decreament,0.6,11,standard,None,100,,,,,,,,f,23,205,en,r,0,raw,2022-05-18_10h29.11.260,oddball,2022.1.2,59.916404609568865,
5,,,,,0,0,0,1,7,0,7,0,5,0,5,0,,,,,,,,,,,,,,,,,1001.667396399891,None,1002.3842901999597,1002.7512068999931,1002.717608399922,1004.7181995999999,None,0,0.3629157398827374,2.363488039933145,decreament,0.36,13,oddball,j,60,,,,,,,,f,23,205,en,r,0,raw,2022-05-18_10h29.11.260,oddball,2022.1.2,59.916404609568865,
5,,,,,0,0,0,1,7,0,7,0,6,0,6,0,,,,,,,,,,,,,,,,,1004.7347787998151,None,1005.4187809999567,1006.019136799965,1006.0024745999835,1008.0035560999531,None,1,0.6099908400792629,2.6111005400307477,decreament,0.6,11,standard,None,100,,,,,,,,f,23,205,en,r,0,raw,2022-05-18_10h29.11.260,oddball,2022.1.2,59.916404609568865,
5,,,,,0,0,0,1,7,0,7,0,7,0,7,0,,,,,,,,,,,,,,,,,1008.0197866999079,None,1008.6037288999651,1009.2034020998981,1009.1867778999731,1011.1876091999002,None,1,0.6108293398283422,2.611712340032682,decreament,0.6,11,standard,None,100,,,,,,,,f,23,205,en,r,0,raw,2022-05-18_10h29.11.260,oddball,2022.1.2,59.916404609568865,
5,,,,,0,0,0,1,7,0,7,0,8,0,8,0,,,,,,,,,,,,,,,,,1011.2048761998303,None,1011.9545392999426,1012.5548861999996,1012.5384070998989,1014.5390758998692,None,1,0.6126240401063114,2.6132691400125623,decreament,0.6,11,standard,None,100,,,,,,,,f,23,205,en,r,0,raw,2022-05-18_10h29.11.260,oddball,2022.1.2,59.916404609568865,
5,,,,,0,0,0,1,7,0,7,0,9,0,9,0,,,,,,,,,,,,,,,,,1014.5552695998922,None,1015.1723947999999,1015.7730984999798,1015.7564462998416,1017.7568889998365,None,1,0.6140229399316013,2.614447939908132,decreament,0.6,11,standard,None,100,,,,,,,,f,23,205,en,r,0,raw,2022-05-18_10h29.11.260,oddball,2022.1.2,59.916404609568865,
5,,,,,0,0,0,1,7,0,7,0,10,0,10,0,,,,,,,,,,,,,,,,,1017.7740265999455,None,1018.3901901999488,1018.87365149986,1018.8402900998481,1020.8409678998869,j,1,0.47909234021790326,2.4797343402169645,decreament,0.48,14,oddball,j,80,0.7001108000986278,,,,,,,f,23,205,en,r,0,raw,2022-05-18_10h29.11.260,oddball,2022.1.2,59.916404609568865,
5,,,,,0,0,0,1,7,0,7,0,11,0,11,0,,,,,,,,,,,,,,,,,1020.8577691998798,None,1021.5413092998788,1022.1415899998974,1022.1248532999307,1024.1257807998918,None,1,0.612941840197891,2.6138837402686477,decreament,0.6,11,standard,None,100,,,,,,,,f,23,205,en,r,0,raw,2022-05-18_10h29.11.260,oddball,2022.1.2,59.916404609568865,
5,,,,,0,0,0,1,7,0,7,0,12,0,12,0,,,,,,,,,,,,,,,,,1024.142407799838,None,1024.8926036998164,1025.492862999905,1025.4762016998138,1027.4768634999637,None,1,0.613007039995864,2.613692339975387,decreament,0.6,11,standard,None,100,,,,,,,,f,23,205,en,r,0,raw,2022-05-18_10h29.11.260,oddball,2022.1.2,59.916404609568865,
5,,,,,0,0,0,1,7,0,7,0,13,0,13,0,,,,,,,,,,,,,,,,,1027.4935180998873,None,1028.1273022999521,1028.7274560998194,1028.710900799837,1030.7114746998996,None,1,0.6119380400050431,2.61250754003413,decreament,0.6,11,standard,None,100,,,,,,,,f,23,205,en,r,0,raw,2022-05-18_10h29.11.260,oddball,2022.1.2,59.916404609568865,
5,,,,,0,0,0,1,7,0,7,0,14,0,14,0,,,,,,,,,,,,,,,,,1030.7282858998515,None,1031.2785943998024,1031.8789921998978,1031.8623690998647,1033.8627903999295,None,1,0.6110507398843765,2.6114637397695333,decreament,0.6,11,standard,None,100,,,,,,,,f,23,205,en,r,0,raw,2022-05-18_10h29.11.260,oddball,2022.1.2,59.916404609568865,
5,,,,,0,0,0,1,7,0,7,0,15,0,15,0,,,,,,,,,,,,,,,,,1033.879313999787,None,1034.5128847998567,1035.1131479998585,1035.0969222998247,1037.0971791998018,None,1,0.6150329399388283,2.6152165399398655,decreament,0.6,11,standard,None,100,,,,,,,,f,23,205,en,r,0,raw,2022-05-18_10h29.11.260,oddball,2022.1.2,59.916404609568865,
5,,,,,0,0,0,1,7,0,7,0,16,0,16,0,,,,,,,,,,,,,,,,,1037.1140121999197,None,1037.7145836998243,1038.3142412998714,1038.2976551000029,1040.2986545998137,None,1,0.6121364398859441,2.61322304001078,decreament,0.6,11,standard,None,100,,,,,,,,f,23,205,en,r,0,raw,2022-05-18_10h29.11.260,oddball,2022.1.2,59.916404609568865,
5,,,,,0,0,0,1,7,0,7,0,17,0,17,0,,,,,,,,,,,,,,,,,1040.316026599845,None,1041.0655272998847,1041.6658266999293,1041.6493857000023,1043.6500829998404,None,1,0.6107117398642004,2.611399139976129,decreament,0.6,11,standard,None,100,,,,,,,,f,23,205,en,r,0,raw,2022-05-18_10h29.11.260,oddball,2022.1.2,59.916404609568865,
5,,,,,0,0,0,1,7,0,7,0,18,0,18,0,,,,,,,,,,,,,,,,,1043.6670834999532,None,1044.3502212997992,1044.9500562998,1044.933525599772,1046.9344706998672,None,1,0.6123639401048422,2.6133633400313556,decreament,0.6,11,standard,None,100,,,,,,,,f,23,205,en,r,0,raw,2022-05-18_10h29.11.260,oddball,2022.1.2,59.916404609568865,
5,,,,,0,0,0,1,7,0,7,0,19,0,19,0,,,,,,,,,,,,,,,,,1046.9512149998918,None,1047.534791899845,1048.1353057997767,1048.118153099902,1050.1187674999237,None,1,0.6095616400707513,2.6101673399098217,decreament,0.6,11,standard,None,100,,,,,,,,f,23,205,en,r,0,raw,2022-05-18_10h29.11.260,oddball,2022.1.2,59.916404609568865,
5,,,,,0,0,0,1,7,0,7,0,20,0,20,0,,,,,,,,,,,,,,,,,1050.1356412000023,None,1050.6861267997883,1051.2864375999197,1051.269547399832,1053.270356999943,j,0,0.6092128399759531,2.610000340035185,decreament,0.6,11,standard,None,100,0.7274067001417279,,,,,,,f,23,205,en,r,0,raw,2022-05-18_10h29.11.260,oddball,2022.1.2,59.916404609568865,
5,,,,,0,0,0,1,7,0,7,0,21,0,21,0,,,,,,,,,,,,,,,,,1053.2867728997953,None,1053.9205278998706,1054.5204002999235,1054.503802599851,1056.5048352999147,None,1,0.61250334023498,2.613577740266919,decreament,0.6,11,standard,None,100,,,,,,,,f,23,205,en,r,0,raw,2022-05-18_10h29.11.260,oddball,2022.1.2,59.916404609568865,
5,,,,,0,0,0,1,7,0,7,0,22,0,22,0,,,,,,,,,,,,,,,,,1056.5216632999945,None,1057.1217145998962,1057.3714692997746,1057.338562999852,1059.3390208999626,None,0,0.24575433996506035,2.2461638399399817,decreament,0.24,12,oddball,j,40,,,,,,,,f,23,205,en,r,0,raw,2022-05-18_10h29.11.260,oddball,2022.1.2,59.916404609568865,
5,,,,,0,0,0,1,7,0,7,0,23,0,23,0,,,,,,,,,,,,,,,,,1059.35576509987,None,1060.056214199867,1060.6559956998099,1060.6397790999617,1062.6402743998915,None,1,0.6114126399625093,2.6119513399899006,decreament,0.6,11,standard,None,100,,,,,,,,f,23,205,en,r,0,raw,2022-05-18_10h29.11.260,oddball,2022.1.2,59.916404609568865,
5,,,,,0,0,0,1,7,0,7,0,24,0,24,0,,,,,,,,,,,,,,,,,1062.6570306997746,None,1063.4075390999205,1064.0073182999622,1063.9907793998718,1065.9917447997723,None,1,0.610309740062803,2.611320439958945,decreament,0.6,11,standard,None,100,,,,,,,,f,23,205,en,r,0,raw,2022-05-18_10h29.11.260,oddball,2022.1.2,59.916404609568865,
5,,,,,0,0,0,1,7,0,7,0,25,0,25,0,,,,,,,,,,,,,,,,,1066.0082852998748,None,1066.6085640999954,1067.2089301999658,1067.192228099797,1069.1929413999896,None,1,0.6124567401129752,2.6131149400025606,decreament,0.6,11,standard,None,100,,,,,,,,f,23,205,en,r,0,raw,2022-05-18_10h29.11.260,oddball,2022.1.2,59.916404609568865,
5,,,,,0,0,0,1,7,0,7,0,26,0,26,0,,,,,,,,,,,,,,,,,1069.209341699956,None,1069.8265094999224,1070.4270448999014,1070.4102343998384,1072.4107996998355,None,1,0.6130096400156617,2.613551640184596,decreament,0.6,11,standard,None,100,,,,,,,,f,23,205,en,r,0,raw,2022-05-18_10h29.11.260,oddball,2022.1.2,59.916404609568865,
5,,,,,0,0,0,1,7,0,7,0,27,0,27,0,,,,,,,,,,,,,,,,,1072.427330999868,None,1073.2444120999426,1073.844676699955,1073.8278815997764,1075.8288244998548,None,1,0.6122604401316494,2.613221340114251,decreament,0.6,11,standard,None,100,,,,,,,,f,23,205,en,r,0,raw,2022-05-18_10h29.11.260,oddball,2022.1.2,59.916404609568865,
5,,,,,0,0,0,1,7,0,7,0,28,0,28,0,,,,,,,,,,,,,,,,,1075.8460157997906,None,1076.3954747999087,1076.9958963999525,1076.9792815998662,1078.9796731998213,None,1,0.6118619400076568,2.612215440021828,decreament,0.6,11,standard,None,100,,,,,,,,f,23,205,en,r,0,raw,2022-05-18_10h29.11.260,oddball,2022.1.2,59.916404609568865,
5,,,,,0,0,0,1,7,0,7,0,29,0,29,0,,,,,,,,,,,,,,,,,1078.9962241998874,None,1079.5801759997848,1080.1803967999294,1080.163632699987,1082.164212499978,None,1,0.6135384398512542,2.614076539874077,decreament,0.6,11,standard,None,100,,,,,,,,f,23,205,en,r,0,raw,2022-05-18_10h29.11.260,oddball,2022.1.2,59.916404609568865,
5,,,,,0,0,0,1,8,0,8,0,0,0,0,0,,,,,,,,,,,,,,,1108.1269524998497,None,1115.894003199879,None,1116.5943115998525,1117.194195699878,1117.1778123998083,1119.1782800999936,None,1,0.6085021400358528,2.6089433399029076,increament,0.6,15,standard,None,100,,1082.1812020998914,None,,,,,f,23,205,en,r,0,raw,2022-05-18_10h29.11.260,oddball,2022.1.2,59.916404609568865,
5,,,,,0,0,0,1,8,0,8,0,1,0,1,0,,,,,,,,,,,,,,,,,1119.1952588998247,None,1119.878913699882,1120.4789580998477,1120.4622456999496,1122.4629334998317,None,1,0.6096646401565522,2.610331640113145,increament,0.6,15,standard,None,100,,,,,,,,f,23,205,en,r,0,raw,2022-05-18_10h29.11.260,oddball,2022.1.2,59.916404609568865,
5,,,,,0,0,0,1,8,0,8,0,2,0,2,0,,,,,,,,,,,,,,,,,1122.4795923999045,None,1123.046601699898,1123.64664739999,1123.6306602999102,1125.6313264998607,None,1,0.6119751399382949,2.6126345398370177,increament,0.6,15,standard,None,100,,,,,,,,f,23,205,en,r,0,raw,2022-05-18_10h29.11.260,oddball,2022.1.2,59.916404609568865,
5,,,,,0,0,0,1,8,0,8,0,3,0,3,0,,,,,,,,,,,,,,,,,1125.6484970999882,None,1126.2478536998387,1126.8480371998157,1126.8313579999376,1128.8318338999525,None,1,0.611320239957422,2.6118142399936914,increament,0.6,15,standard,None,100,,,,,,,,f,23,205,en,r,0,raw,2022-05-18_10h29.11.260,oddball,2022.1.2,59.916404609568865,
5,,,,,0,0,0,1,8,0,8,0,4,0,4,0,,,,,,,,,,,,,,,,,1128.8488424997777,None,1129.4658848999534,1130.0657854999881,1130.0494040998165,1132.050469199894,None,1,0.6100405398756266,2.6111599400173873,increament,0.6,15,standard,None,100,,,,,,,,f,23,205,en,r,0,raw,2022-05-18_10h29.11.260,oddball,2022.1.2,59.916404609568865,
5,,,,,0,0,0,1,8,0,8,0,5,0,5,0,,,,,,,,,,,,,,,,,1132.066568199778,None,1132.733412799891,1133.46705989982,1133.4340788999107,1135.4344901998993,None,0,0.7299270401708782,2.7302784400526434,increament,0.72,16,oddball,j,120,,,,,,,,f,23,205,en,r,0,raw,2022-05-18_10h29.11.260,oddball,2022.1.2,59.916404609568865,
5,,,,,0,0,0,1,8,0,8,0,6,0,6,0,,,,,,,,,,,,,,,,,1135.4512013997883,None,1136.1349959999789,1136.7353658999782,1136.7185635999776,1138.7190074999817,None,1,0.612582040252164,2.6129912401083857,increament,0.6,15,standard,None,100,,,,,,,,f,23,205,en,r,0,raw,2022-05-18_10h29.11.260,oddball,2022.1.2,59.916404609568865,
5,,,,,0,0,0,1,8,0,8,0,7,0,7,0,,,,,,,,,,,,,,,,,1138.7362944998313,None,1139.4694631998427,1140.069552899804,1140.0534597998485,1142.053730199812,None,1,0.6114629399962723,2.6117555401287973,increament,0.6,15,standard,None,100,,,,,,,,f,23,205,en,r,0,raw,2022-05-18_10h29.11.260,oddball,2022.1.2,59.916404609568865,
5,,,,,0,0,0,1,8,0,8,0,8,0,8,0,,,,,,,,,,,,,,,,,1142.070353699848,None,1142.8041398997884,1143.4051698998082,1143.3879141998477,1145.3882901999168,None,1,0.6126711403485388,2.6130069403443485,increament,0.6,15,standard,None,100,,,,,,,,f,23,205,en,r,0,raw,2022-05-18_10h29.11.260,oddball,2022.1.2,59.916404609568865,
5,,,,,0,0,0,1,8,0,8,0,9,0,9,0,,,,,,,,,,,,,,,,,1145.40514349984,None,1146.0718248998746,1146.672314699972,1146.6554780998267,1148.6564160999842,None,1,0.6137126400135458,2.614661340136081,increament,0.6,15,standard,None,100,,,,,,,,f,23,205,en,r,0,raw,2022-05-18_10h29.11.260,oddball,2022.1.2,59.916404609568865,
5,,,,,0,0,0,1,8,0,8,0,10,0,10,0,,,,,,,,,,,,,,,,,1148.6729225998279,None,1149.3231500999536,1149.923439499922,1149.9065821999684,1151.9076679998543,None,1,0.6120537400711328,2.613211639923975,increament,0.6,15,standard,None,100,,,,,,,,f,23,205,en,r,0,raw,2022-05-18_10h29.11.260,oddball,2022.1.2,59.916404609568865,
5,,,,,0,0,0,1,8,0,8,0,11,0,11,0,,,,,,,,,,,,,,,,,1151.9250480998307,None,1152.5908475997858,1153.191465599928,1153.1752067999914,1155.1752465998288,None,1,0.6147017399780452,2.614679340040311,increament,0.6,15,standard,None,100,,,,,,,,f,23,205,en,r,0,raw,2022-05-18_10h29.11.260,oddball,2022.1.2,59.916404609568865,
5,,,,,0,0,0,1,8,0,8,0,12,0,12,0,,,,,,,,,,,,,,,,,1155.1923012000043,None,1155.7754409997724,1156.3759470998775,1156.3594358998816,1158.360108899884,None,1,0.613679839996621,2.6143831401132047,increament,0.6,15,standard,None,100,,,,,,,,f,23,205,en,r,0,raw,2022-05-18_10h29.11.260,oddball,2022.1.2,59.916404609568865,
5,,,,,0,0,0,1,8,0,8,0,13,0,13,0,,,,,,,,,,,,,,,,,1158.376725899987,None,1158.976895299973,1159.5771415999625,1159.560581999831,1161.5614635997918,None,1,0.6112961401231587,2.6122282401192933,increament,0.6,15,standard,None,100,,,,,,,,f,23,205,en,r,0,raw,2022-05-18_10h29.11.260,oddball,2022.1.2,59.916404609568865,
5,,,,,0,0,0,1,8,0,8,0,14,0,14,0,,,,,,,,,,,,,,,,,1161.578502099961,None,1162.2611958999187,1162.861648199847,1162.8448442998342,1164.8455320999492,None,1,0.6129578400868922,2.613665640121326,increament,0.6,15,standard,None,100,,,,,,,,f,23,205,en,r,0,raw,2022-05-18_10h29.11.260,oddball,2022.1.2,59.916404609568865,
5,,,,,0,0,0,1,8,0,8,0,15,0,15,0,,,,,,,,,,,,,,,,,1164.8624205999076,None,1165.5794351999648,1166.1795166998636,1166.163307099836,1168.1638534998056,None,1,0.6125250400509685,2.6130729399155825,increament,0.6,15,standard,None,100,,,,,,,,f,23,205,en,r,0,raw,2022-05-18_10h29.11.260,oddball,2022.1.2,59.916404609568865,
5,,,,,0,0,0,1,8,0,8,0,16,0,16,0,,,,,,,,,,,,,,,,,1168.1803750998806,None,1168.7804157999344,1169.3804608997889,1169.3639120999724,1171.3649316998199,None,1,0.6120990400668234,2.6131895401049405,increament,0.6,15,standard,None,100,,,,,,,,f,23,205,en,r,0,raw,2022-05-18_10h29.11.260,oddball,2022.1.2,59.916404609568865,
5,,,,,0,0,0,1,8,0,8,0,17,0,17,0,,,,,,,,,,,,,,,,,1171.3812341999728,None,1171.8985999999568,1172.49851259985,1172.481793299783,1174.482557399897,None,1,0.6089807401876897,2.6097109401598573,increament,0.6,15,standard,None,100,,,,,,,,f,23,205,en,r,0,raw,2022-05-18_10h29.11.260,oddball,2022.1.2,59.916404609568865,
5,,,,,0,0,0,1,8,0,8,0,18,0,18,0,,,,,,,,,,,,,,,,,1174.4991634998005,None,1175.099515199894,1175.699616999831,1175.6828554999083,1177.6838531999383,None,1,0.6116050402633846,2.612639340106398,increament,0.6,15,standard,None,100,,,,,,,,f,23,205,en,r,0,raw,2022-05-18_10h29.11.260,oddball,2022.1.2,59.916404609568865,
5,,,,,0,0,0,1,8,0,8,0,19,0,19,0,,,,,,,,,,,,,,,,,1177.7005369998515,None,1178.2843024998438,1179.1346624998841,1179.1013760999776,1181.1017573999707,None,0,0.8441522403154522,2.844463640358299,increament,0.84,17,oddball,j,140,,,,,,,,f,23,205,en,r,0,raw,2022-05-18_10h29.11.260,oddball,2022.1.2,59.916404609568865,
5,,,,,0,0,0,1,8,0,8,0,20,0,20,0,,,,,,,,,,,,,,,,,1181.1186493998393,None,1181.7687999999616,1182.368988199858,1182.3522749999538,1184.3531504999846,None,1,0.612487540114671,2.6133881399873644,increament,0.6,15,standard,None,100,,,,,,,,f,23,205,en,r,0,raw,2022-05-18_10h29.11.260,oddball,2022.1.2,59.916404609568865,
5,,,,,0,0,0,1,8,0,8,0,21,0,21,0,,,,,,,,,,,,,,,,,1184.3697527998593,None,1184.9704999998212,1185.5702069997787,1185.553595499834,1187.5543966998812,None,1,0.6093411399051547,2.610178240109235,increament,0.6,15,standard,None,100,,,,,,,,f,23,205,en,r,0,raw,2022-05-18_10h29.11.260,oddball,2022.1.2,59.916404609568865,
5,,,,,0,0,0,1,8,0,8,0,22,0,22,0,,,,,,,,,,,,,,,,,1187.5708561998326,None,1188.1381534999236,1188.7384755997919,1188.721534299897,1190.7225970998406,None,1,0.6125054401345551,2.613646840211004,increament,0.6,15,standard,None,100,,,,,,,,f,23,205,en,r,0,raw,2022-05-18_10h29.11.260,oddball,2022.1.2,59.916404609568865,
5,,,,,0,0,0,1,8,0,8,0,23,0,23,0,,,,,,,,,,,,,,,,,1190.7391101999674,None,1191.3722433999646,1191.9726257999428,1191.9558904999867,1193.9568964999635,None,1,0.6132874400354922,2.614359940169379,increament,0.6,15,standard,None,100,,,,,,,,f,23,205,en,r,0,raw,2022-05-18_10h29.11.260,oddball,2022.1.2,59.916404609568865,
5,,,,,0,0,0,1,8,0,8,0,24,0,24,0,,,,,,,,,,,,,,,,,1193.973819399951,None,1194.7736874998081,1195.7406253998633,1195.7076879998203,1197.7078762999736,None,0,0.9630861401092261,2.9632555400021374,increament,0.96,18,oddball,j,160,,,,,,,,f,23,205,en,r,0,raw,2022-05-18_10h29.11.260,oddball,2022.1.2,59.916404609568865,
5,,,,,0,0,0,1,8,0,8,0,25,0,25,0,,,,,,,,,,,,,,,,,1197.7245438999962,None,1198.4420966999605,1199.0419083999004,1199.025272599887,1201.0257047999185,None,1,0.6111380397342145,2.6115415398962796,increament,0.6,15,standard,None,100,,,,,,,,f,23,205,en,r,0,raw,2022-05-18_10h29.11.260,oddball,2022.1.2,59.916404609568865,
5,,,,,0,0,0,1,8,0,8,0,26,0,26,0,,,,,,,,,,,,,,,,,1201.0424844999798,None,1201.6930946998764,1202.2931629999075,1202.2765750999097,1204.2776025999337,None,1,0.6110906400717795,2.6121209401171654,increament,0.6,15,standard,None,100,,,,,,,,f,23,205,en,r,0,raw,2022-05-18_10h29.11.260,oddball,2022.1.2,59.916404609568865,
5,,,,,0,0,0,1,8,0,8,0,27,0,27,0,,,,,,,,,,,,,,,,,1204.2938790998887,None,1204.9941910998896,1205.5945695999544,1205.5779055999592,1207.5786124998704,None,1,0.6122380401939154,2.612960240105167,increament,0.6,15,standard,None,100,,,,,,,,f,23,205,en,r,0,raw,2022-05-18_10h29.11.260,oddball,2022.1.2,59.916404609568865,
5,,,,,0,0,0,1,8,0,8,0,28,0,28,0,,,,,,,,,,,,,,,,,1207.595276699867,None,1208.3789961999282,1208.9791304999962,1208.962671799818,1210.963253799826,None,1,0.6108962399885058,2.6114509399048984,increament,0.6,15,standard,None,100,,,,,,,,f,23,205,en,r,0,raw,2022-05-18_10h29.11.260,oddball,2022.1.2,59.916404609568865,
5,,,,,0,0,0,1,8,0,8,0,29,0,29,0,,,,,,,,,,,,,,,,,1210.9800515999086,None,1211.746716799913,1212.347194599919,1212.3307526998688,1214.3311820998788,None,1,0.6139443397987634,2.6143417397979647,increament,0.6,15,standard,None,100,,,,,,,,f,23,205,en,r,0,raw,2022-05-18_10h29.11.260,oddball,2022.1.2,59.916404609568865,
5,,,,,0,0,0,1,9,0,9,0,0,0,0,0,,,,,,,,,,,,,,,1231.5543817998841,None,1243.1752608998213,None,1243.725755599793,1244.3257263998967,1244.309123299783,1246.3097099999432,None,1,0.6124600400216877,2.613053440116346,decreament,0.6,11,standard,None,100,,1214.349314399995,None,,,,,f,23,205,en,r,0,raw,2022-05-18_10h29.11.260,oddball,2022.1.2,59.916404609568865,
5,,,,,0,0,0,1,9,0,9,0,1,0,1,0,,,,,,,,,,,,,,,,,1246.326549099991,None,1247.0435674998444,1247.6436196998693,1247.627171699889,1249.6283963997848,None,1,0.6117370401043445,2.613012740155682,decreament,0.6,11,standard,None,100,,,,,,,,f,23,205,en,r,0,raw,2022-05-18_10h29.11.260,oddball,2022.1.2,59.916404609568865,
5,,,,,0,0,0,1,9,0,9,0,2,0,2,0,,,,,,,,,,,,,,,,,1249.6456337999552,None,1250.26174909994,1250.8620664000046,1250.8452160998713,1252.8460449997801,None,1,0.6127047399058938,2.6135518399532884,decreament,0.6,11,standard,None,100,,,,,,,,f,23,205,en,r,0,raw,2022-05-18_10h29.11.260,oddball,2022.1.2,59.916404609568865,
5,,,,,0,0,0,1,9,0,9,0,3,0,3,0,,,,,,,,,,,,,,,,,1252.8623059999663,None,1253.4961382998154,1254.096153399907,1254.0797716998495,1256.0801274999976,None,1,0.6111846400890499,2.611516739940271,decreament,0.6,11,standard,None,100,,,,,,,,f,23,205,en,r,0,raw,2022-05-18_10h29.11.260,oddball,2022.1.2,59.916404609568865,
5,,,,,0,0,0,1,9,0,9,0,4,0,4,0,,,,,,,,,,,,,,,,,1256.0969225999434,None,1256.813910999801,1257.4141882997938,1257.39761489979,1259.3983735998627,None,1,0.6115592401474714,2.6123325403314084,decreament,0.6,11,standard,None,100,,,,,,,,f,23,205,en,r,0,raw,2022-05-18_10h29.11.260,oddball,2022.1.2,59.916404609568865,
5,,,,,0,0,0,1,9,0,9,0,5,0,5,0,,,,,,,,,,,,,,,,,1259.415809399914,None,1260.0322944999207,1260.3987340999302,1260.3655402997974,1262.3663700998295,None,0,0.359636640176177,2.360446540173143,decreament,0.36,13,oddball,j,60,,,,,,,,f,23,205,en,r,0,raw,2022-05-18_10h29.11.260,oddball,2022.1.2,59.916404609568865,
5,,,,,0,0,0,1,9,0,9,0,6,0,6,0,,,,,,,,,,,,,,,,,1262.382452599937,None,1263.016467299778,1263.6164154999424,1263.5997897998895,1265.6007174998522,None,1,0.6094774398952723,2.6104736397974193,decreament,0.6,11,standard,None,100,,,,,,,,f,23,205,en,r,0,raw,2022-05-18_10h29.11.260,oddball,2022.1.2,59.916404609568865,
5,,,,,0,0,0,1,9,0,9,0,7,0,7,0,,,,,,,,,,,,,,,,,1265.617048899876,None,1266.317381199915,1266.9177040997893,1266.9009069998283,1268.901954199886,None,1,0.6131811400409788,2.614288239972666,decreament,0.6,11,standard,None,100,,,,,,,,f,23,205,en,r,0,raw,2022-05-18_10h29.11.260,oddball,2022.1.2,59.916404609568865,
5,,,,,0,0,0,1,9,0,9,0,8,0,8,0,,,,,,,,,,,,,,,,,1268.9183411998674,None,1269.5686568999663,1270.1687996999826,1270.1522888999898,1272.1532263997942,None,1,0.6093947400804609,2.6104131401516497,decreament,0.6,11,standard,None,100,,,,,,,,f,23,205,en,r,0,raw,2022-05-18_10h29.11.260,oddball,2022.1.2,59.916404609568865,
5,,,,,0,0,0,1,9,0,9,0,9,0,9,0,,,,,,,,,,,,,,,,,1272.169530699961,None,1272.7531629998703,1273.003127399832,1272.9702381999232,1274.9706848999485,j,1,0.24586804024875164,2.246360140386969,decreament,0.24,12,oddball,j,40,0.6975472001358867,,,,,,,f,23,205,en,r,0,raw,2022-05-18_10h29.11.260,oddball,2022.1.2,59.916404609568865,
5,,,,,0,0,0,1,9,0,9,0,10,0,10,0,,,,,,,,,,,,,,,,,1274.987379499944,None,1275.6374744998757,1276.238002399914,1276.2218669999857,1278.2223058999516,None,1,0.613813040079549,2.614271840080619,decreament,0.6,11,standard,None,100,,,,,,,,f,23,205,en,r,0,raw,2022-05-18_10h29.11.260,oddball,2022.1.2,59.916404609568865,
5,,,,,0,0,0,1,9,0,9,0,11,0,11,0,,,,,,,,,,,,,,,,,1278.2398834999185,None,1278.922214299906,1279.5224464999046,1279.5055457998533,1281.5067859999835,None,1,0.6116227400489151,2.613087839912623,decreament,0.6,11,standard,None,100,,,,,,,,f,23,205,en,r,0,raw,2022-05-18_10h29.11.260,oddball,2022.1.2,59.916404609568865,
5,,,,,0,0,0,1,9,0,9,0,12,0,12,0,,,,,,,,,,,,,,,,,1281.5236250997987,None,1282.1567855998874,1282.7569261000026,1282.740885199979,1284.741002799943,None,1,0.6097392400261015,2.609810840105638,decreament,0.6,11,standard,None,100,,,,,,,,f,23,205,en,r,0,raw,2022-05-18_10h29.11.260,oddball,2022.1.2,59.916404609568865,
5,,,,,0,0,0,1,9,0,9,0,13,0,13,0,,,,,,,,,,,,,,,,,1284.7578123998828,None,1285.4246799999382,1286.0248450997751,1286.0082717000041,1288.0090386997908,None,1,0.6094985401723534,2.6102723400108516,decreament,0.6,11,standard,None,100,,,,,,,,f,23,205,en,r,0,raw,2022-05-18_10h29.11.260,oddball,2022.1.2,59.916404609568865,
5,,,,,0,0,0,1,9,0,9,0,14,0,14,0,,,,,,,,,,,,,,,,,1288.0257055999245,None,1288.6595589998178,1289.2595430999063,1289.242647799896,1291.2433069997933,None,1,0.6109979399479926,2.6116525400429964,decreament,0.6,11,standard,None,100,,,,,,,,f,23,205,en,r,0,raw,2022-05-18_10h29.11.260,oddball,2022.1.2,59.916404609568865,
5,,,,,0,0,0,1,9,0,9,0,15,0,15,0,,,,,,,,,,,,,,,,,1291.260177699849,None,1291.8773763999343,1292.47741209995,1292.4609651998617,1294.4616839999799,None,1,0.6109126398805529,2.611629039980471,decreament,0.6,11,standard,None,100,,,,,,,,f,23,205,en,r,0,raw,2022-05-18_10h29.11.260,oddball,2022.1.2,59.916404609568865,
5,,,,,0,0,0,1,9,0,9,0,16,0,16,0,,,,,,,,,,,,,,,,,1294.4782945998013,None,1295.1785720000044,1295.778612199938,1295.7620878999587,1297.7628558999859,None,1,0.6112583400681615,2.61208363994956,decreament,0.6,11,standard,None,100,,,,,,,,f,23,205,en,r,0,raw,2022-05-18_10h29.11.260,oddball,2022.1.2,59.916404609568865,
5,,,,,0,0,0,1,9,0,9,0,17,0,17,0,,,,,,,,,,,,,,,,,1297.7791908998042,None,1298.429789399961,1299.0298864999786,1299.0131621998735,1301.0137521999422,None,1,0.6122688401956111,2.6128051402047276,decreament,0.6,11,standard,None,100,,,,,,,,f,23,205,en,r,0,raw,2022-05-18_10h29.11.260,oddball,2022.1.2,59.916404609568865,
5,,,,,0,0,0,1,9,0,9,0,18,0,18,0,,,,,,,,,,,,,,,,,1301.0304618999362,None,1301.6809325998183,1302.2808320999611,1302.2648297999986,1304.2652759999037,None,1,0.6130244398955256,2.6134504398796707,decreament,0.6,11,standard,None,100,,,,,,,,f,23,205,en,r,0,raw,2022-05-18_10h29.11.260,oddball,2022.1.2,59.916404609568865,
5,,,,,0,0,0,1,9,0,9,0,19,0,19,0,,,,,,,,,,,,,,,,,1304.2820063999388,None,1305.132386499783,1305.7322015999816,1305.7158620997798,1307.7164874998853,None,1,0.6115102402400225,2.612197640351951,decreament,0.6,11,standard,None,100,,,,,,,,f,23,205,en,r,0,raw,2022-05-18_10h29.11.260,oddball,2022.1.2,59.916404609568865,
5,,,,,0,0,0,1,9,0,9,0,20,0,20,0,,,,,,,,,,,,,,,,,1307.7332472999115,None,1308.4167324998416,1309.0173654998653,1309.000753399916,1311.0010110998992,None,1,0.6106329399626702,2.6108154400717467,decreament,0.6,11,standard,None,100,,,,,,,,f,23,205,en,r,0,raw,2022-05-18_10h29.11.260,oddball,2022.1.2,59.916404609568865,
5,,,,,0,0,0,1,9,0,9,0,21,0,21,0,,,,,,,,,,,,,,,,,1311.0178896998987,None,1311.684841199778,1312.2848186998162,1312.2680742999073,1314.2690899998415,None,1,0.6086233400274068,2.6096998401917517,decreament,0.6,11,standard,None,100,,,,,,,,f,23,205,en,r,0,raw,2022-05-18_10h29.11.260,oddball,2022.1.2,59.916404609568865,
5,,,,,0,0,0,1,9,0,9,0,22,0,22,0,,,,,,,,,,,,,,,,,1314.2861304997932,None,1315.052482899977,1315.6526614998002,1315.6363409999758,1317.6371092000045,None,1,0.6132344400975853,2.6140565399546176,decreament,0.6,11,standard,None,100,,,,,,,,f,23,205,en,r,0,raw,2022-05-18_10h29.11.260,oddball,2022.1.2,59.916404609568865,
5,,,,,0,0,0,1,9,0,9,0,23,0,23,0,,,,,,,,,,,,,,,,,1317.6544839998242,None,1318.253512899857,1318.8543575999793,1318.8373780997936,1320.8383177998476,None,1,0.6133543401956558,2.6143125400412828,decreament,0.6,11,standard,None,100,,,,,,,,f,23,205,en,r,0,raw,2022-05-18_10h29.11.260,oddball,2022.1.2,59.916404609568865,
5,,,,,0,0,0,1,9,0,9,0,24,0,24,0,,,,,,,,,,,,,,,,,1320.8546923999675,None,1321.455570399994,1322.0552176998463,1322.0386169999838,1324.039534599986,j,0,0.6109413402155042,2.6119387401267886,decreament,0.6,11,standard,None,100,0.7728902001399547,,,,,,,f,23,205,en,r,0,raw,2022-05-18_10h29.11.260,oddball,2022.1.2,59.916404609568865,
5,,,,,0,0,0,1,9,0,9,0,25,0,25,0,,,,,,,,,,,,,,,,,1324.057183599798,None,1324.6062709998805,1325.0898401997983,1325.0734185997862,1327.073750199983,None,0,0.4949911399744451,2.4952592400368303,decreament,0.48,14,oddball,j,80,,,,,,,,f,23,205,en,r,0,raw,2022-05-18_10h29.11.260,oddball,2022.1.2,59.916404609568865,
5,,,,,0,0,0,1,9,0,9,0,26,0,26,0,,,,,,,,,,,,,,,,,1327.0907187999692,None,1327.6574515998363,1328.2576997999568,1328.2410803998355,1330.241828699829,None,1,0.6128359402064234,2.613653640029952,decreament,0.6,11,standard,None,100,,,,,,,,f,23,205,en,r,0,raw,2022-05-18_10h29.11.260,oddball,2022.1.2,59.916404609568865,
5,,,,,0,0,0,1,9,0,9,0,27,0,27,0,,,,,,,,,,,,,,,,,1330.2584245000035,None,1330.925527999876,1331.525729399873,1331.5090519997757,1333.5094961998984,None,1,0.612639739876613,2.6130604399368167,decreament,0.6,11,standard,None,100,,,,,,,,f,23,205,en,r,0,raw,2022-05-18_10h29.11.260,oddball,2022.1.2,59.916404609568865,
5,,,,,0,0,0,1,9,0,9,0,28,0,28,0,,,,,,,,,,,,,,,,,1333.526236299891,None,1334.0763920999598,1334.676531799836,1334.6599602999631,1336.6609484998044,None,1,0.6121080401353538,2.6131147402338684,decreament,0.6,11,standard,None,100,,,,,,,,f,23,205,en,r,0,raw,2022-05-18_10h29.11.260,oddball,2022.1.2,59.916404609568865,
5,,,,,0,0,0,1,9,0,9,0,29,0,29,0,,,,,,,,,,,,,,,,,1336.6775621999986,None,1337.4278483998496,1338.028008399997,1338.0115271999966,1340.012415799778,None,1,0.6109851400833577,2.6118785401340574,decreament,0.6,11,standard,None,100,,,,,,,,f,23,205,en,r,0,raw,2022-05-18_10h29.11.260,oddball,2022.1.2,59.916404609568865,
20,,,,,0,1,1,3,0,0,0,0,0,0,0,0,,,,,,,,,,,,,,,1525.1218839997891,None,1533.9189057999756,None,1534.6024437998421,1535.2024240999017,1535.1861269997898,1537.1868253999855,None,1,0.6110779400914907,2.6117484401911497,increament,0.6,45,standard,None,100,,1520.0636454999913,None,1340.0574391998816,None,,,f,23,205,en,r,0,raw,2022-05-18_10h29.11.260,oddball,2022.1.2,59.916404609568865,
20,,,,,0,1,1,3,0,0,0,0,1,0,1,0,,,,,,,,,,,,,,,,,1537.203612399986,None,1537.769880599808,1538.370286299847,1538.3540834998712,None,None,1,0.5991129400208592,2.5991340400651097,increament,0.6,45,standard,None,100,,,,,,,,f,23,205,en,r,0,raw,2022-05-18_10h29.11.260,oddball,2022.1.2,59.916404609568865,
20,,,,,0,1,1,3,0,0,0,0,2,0,2,0,,,,,,,,,,,,,,,,,1540.3547262998763,None,1540.9548307999503,1541.5548536998685,1541.538244199939,1543.538897599792,None,1,0.6129336401354522,2.6135554402135313,increament,0.6,45,standard,None,100,,,,,,,,f,23,205,en,r,0,raw,2022-05-18_10h29.11.260,oddball,2022.1.2,59.916404609568865,
20,,,,,0,1,1,3,0,0,0,0,3,0,3,0,,,,,,,,,,,,,,,,,1543.5558915999718,None,1544.1727467000019,1544.7726260998752,1544.755997599801,1546.756835799897,None,1,0.6137256401125342,2.614594040205702,increament,0.6,45,standard,None,100,,,,,,,,f,23,205,en,r,0,raw,2022-05-18_10h29.11.260,oddball,2022.1.2,59.916404609568865,
20,,,,,0,1,1,3,0,0,0,0,4,0,4,0,,,,,,,,,,,,,,,,,1546.7738886999432,None,1547.323742199922,1547.9241826999933,1547.9080083000008,1549.9081180999056,None,1,0.6138740400783718,2.6138662400189787,increament,0.6,45,standard,None,100,,,,,,,,f,23,205,en,r,0,raw,2022-05-18_10h29.11.260,oddball,2022.1.2,59.916404609568865,
20,,,,,0,1,1,3,0,0,0,0,5,0,5,0,,,,,,,,,,,,,,,,,1549.9248434999026,None,1550.4919004999101,1551.0922036999837,1551.0753365999553,1553.0759301998187,None,1,0.6106696401257068,2.6112567400559783,increament,0.6,45,standard,None,100,,,,,,,,f,23,205,en,r,0,raw,2022-05-18_10h29.11.260,oddball,2022.1.2,59.916404609568865,
20,,,,,0,1,1,3,0,0,0,0,6,0,6,0,,,,,,,,,,,,,,,,,1553.0929565997794,None,1553.8097446998581,1554.4099519997835,1554.3935410999693,1556.3939013998024,None,1,0.6135467400308698,2.6138284399639815,increament,0.6,45,standard,None,100,,,,,,,,f,23,205,en,r,0,raw,2022-05-18_10h29.11.260,oddball,2022.1.2,59.916404609568865,
20,,,,,0,1,1,3,0,0,0,0,7,0,7,0,,,,,,,,,,,,,,,,,1556.4106707999017,None,1557.027575199958,1557.6277091999073,1557.611101699993,1559.6118541997857,None,1,0.6132314400747418,2.6140099400654435,increament,0.6,45,standard,None,100,,,,,,,,f,23,205,en,r,0,raw,2022-05-18_10h29.11.260,oddball,2022.1.2,59.916404609568865,
20,,,,,0,1,1,3,0,0,0,0,8,0,8,0,,,,,,,,,,,,,,,,,1559.6283066999167,None,1560.4622497998644,1561.062396099791,1561.0455105998553,1563.0469607999548,None,1,0.6120488399174064,2.613583439961076,increament,0.6,45,standard,None,100,,,,,,,,f,23,205,en,r,0,raw,2022-05-18_10h29.11.260,oddball,2022.1.2,59.916404609568865,
20,,,,,0,1,1,3,0,0,0,0,9,0,9,0,,,,,,,,,,,,,,,,,1563.0643291999586,None,1563.7631580999587,1564.3637201997917,1564.3469860998448,1566.347990699811,None,1,0.6100865402258933,2.6111372401937842,increament,0.6,45,standard,None,100,,,,,,,,f,23,205,en,r,0,raw,2022-05-18_10h29.11.260,oddball,2022.1.2,59.916404609568865,
20,,,,,0,1,1,3,0,0,0,0,10,0,10,0,,,,,,,,,,,,,,,,,1566.3645997999702,None,1567.2813619999215,1568.0149713999126,1567.9816713999026,1569.9825580997858,None,0,0.7299038402270526,2.730800540186465,increament,0.72,46,oddball,j,120,,,,,,,,f,23,205,en,r,0,raw,2022-05-18_10h29.11.260,oddball,2022.1.2,59.916404609568865,
20,,,,,0,1,1,3,0,0,0,0,11,0,11,0,,,,,,,,,,,,,,,,,1569.9992642998695,None,1570.7161768998485,1571.3160066998098,1571.299932599999,1573.3004238998983,None,1,0.6126774402800947,2.613213040167466,increament,0.6,45,standard,None,100,,,,,,,,f,23,205,en,r,0,raw,2022-05-18_10h29.11.260,oddball,2022.1.2,59.916404609568865,
20,,,,,0,1,1,3,0,0,0,0,12,0,12,0,,,,,,,,,,,,,,,,,1573.3169660998974,None,1573.9340225998312,1574.5341812998522,1574.518300900003,1576.518450499978,None,1,0.6120281401090324,2.6121113400440663,increament,0.6,45,standard,None,100,,,,,,,,f,23,205,en,r,0,raw,2022-05-18_10h29.11.260,oddball,2022.1.2,59.916404609568865,
20,,,,,0,1,1,3,0,0,0,0,13,0,13,0,,,,,,,,,,,,,,,,,1576.5349284999538,None,1577.1854692997877,1577.785513299983,1577.7690915998537,1579.7697991998866,None,1,0.6112831400241703,2.6119866399094462,increament,0.6,45,standard,None,100,,,,,,,,f,23,205,en,r,0,raw,2022-05-18_10h29.11.260,oddball,2022.1.2,59.916404609568865,
