grating_freq,blocks_prac.thisRepN,blocks_prac.thisTrialN,blocks_prac.thisN,blocks_prac.thisIndex,blocks.thisRepN,blocks.thisTrialN,blocks.thisN,blocks.thisIndex,repeat_freq.thisRepN,repeat_freq.thisTrialN,repeat_freq.thisN,repeat_freq.thisIndex,trials.thisRepN,trials.thisTrialN,trials.thisN,trials.thisIndex,break_loop.thisRepN,break_loop.thisTrialN,break_loop.thisN,break_loop.thisIndex,rest_loop.thisRepN,rest_loop.thisTrialN,rest_loop.thisN,rest_loop.thisIndex,instruct_prac_text.started,instruct_prac_text.stopped,b_instruct_text_2_.started,b_instruct_text_2_.stopped,prac_done_text.started,prac_done_text.stopped,instruct_text.started,instruct_text.stopped,fixation.started,fixation.stopped,grating.started,grating.stopped,blank.started,blank.stopped,resp.keys,resp.corr,resp.started,resp.stopped,direction,duration,trigger,stim_type,corr_ans,scaling,resp.rt,rest_text.started,rest_text.stopped,text_2.started,text_2.stopped,thx_txt.started,thx_txt.stopped,gender,age,participant,language,main_hand,nBlock_prac,file_suffix,date,expName,psychopyVersion,frameRate,
20,,,,,0,0,0,3,0,0,0,0,0,0,0,0,,,,,,,,,33.28337520034984,None,53.85044259997085,None,56.743898699991405,None,63.631696100346744,None,191.78555819997564,None,192.71396190021187,193.31952780019492,193.25300580030307,195.25363530032337,None,1,0.6082840198650956,2.6090232199057937,decreament,0.6,41,standard,None,100,,,,,,,,f,26,210,fr,r,0,raw,2022-05-23_10h14.44.819,oddball,2022.1.2,60.22543582920714,
20,,,,,0,0,0,3,0,0,0,0,1,0,1,0,,,,,,,,,,,,,,,,,195.2702100002207,None,195.93723920034245,196.53732350002974,196.52141509996727,198.52139650005847,None,1,0.6105261202901602,2.6104522203095257,decreament,0.6,41,standard,None,100,,,,,,,,f,26,210,fr,r,0,raw,2022-05-23_10h14.44.819,oddball,2022.1.2,60.22543582920714,
20,,,,,0,0,0,3,0,0,0,0,2,0,2,0,,,,,,,,,,,,,,,,,198.53807220002636,None,199.17159290006384,199.7719649001956,199.75504430010915,201.75602050032467,None,1,0.6108238198794425,2.6118040196597576,decreament,0.6,41,standard,None,100,,,,,,,,f,26,210,fr,r,0,raw,2022-05-23_10h14.44.819,oddball,2022.1.2,60.22543582920714,
20,,,,,0,0,0,3,0,0,0,0,3,0,3,0,,,,,,,,,,,,,,,,,201.77291560033336,None,202.48953050002456,203.08976060012355,203.07344910036772,205.07371680019423,None,1,0.6126931202597916,2.612971920520067,decreament,0.6,41,standard,None,100,,,,,,,,f,26,210,fr,r,0,raw,2022-05-23_10h14.44.819,oddball,2022.1.2,60.22543582920714,
20,,,,,0,0,0,3,0,0,0,0,4,0,4,0,,,,,,,,,,,,,,,,,205.09085950022563,None,205.84085840033367,206.44134660018608,206.42469500005245,208.42543870024383,None,1,0.612911120057106,2.613628120161593,decreament,0.6,41,standard,None,100,,,,,,,,f,26,210,fr,r,0,raw,2022-05-23_10h14.44.819,oddball,2022.1.2,60.22543582920714,
20,,,,,0,0,0,3,0,0,0,0,5,0,5,0,,,,,,,,,,,,,,,,,208.44189340015873,None,209.10860799998045,209.7091008001007,209.69253110000864,211.693065200001,None,1,0.6137416199781001,2.61428991984576,decreament,0.6,41,standard,None,100,,,,,,,,f,26,210,fr,r,0,raw,2022-05-23_10h14.44.819,oddball,2022.1.2,60.22543582920714,
20,,,,,0,0,0,3,0,0,0,0,6,0,6,0,,,,,,,,,,,,,,,,,211.71013300027698,None,212.42684200033545,213.02675139997154,213.0104839000851,215.01098550017923,None,1,0.6131293196231127,2.613627419807017,decreament,0.6,41,standard,None,100,,,,,,,,f,26,210,fr,r,0,raw,2022-05-23_10h14.44.819,oddball,2022.1.2,60.22543582920714,
20,,,,,0,0,0,3,0,0,0,0,7,0,7,0,,,,,,,,,,,,,,,,,215.02773160021752,None,215.64497070014477,216.011629300192,215.97800770029426,217.97885549999774,j,1,0.37593792052939534,2.3765179202891886,decreament,0.36,43,oddball,j,60,0.9196442998945713,,,,,,,f,26,210,fr,r,0,raw,2022-05-23_10h14.44.819,oddball,2022.1.2,60.22543582920714,
20,,,,,0,0,0,3,0,0,0,0,8,0,8,0,,,,,,,,,,,,,,,,,218.01208420004696,None,218.62899150000885,219.22921020025387,219.2128984001465,221.21364470012486,None,1,0.6135326204821467,2.6143475202843547,decreament,0.6,41,standard,None,100,,,,,,,,f,26,210,fr,r,0,raw,2022-05-23_10h14.44.819,oddball,2022.1.2,60.22543582920714,
20,,,,,0,0,0,3,0,0,0,0,9,0,9,0,,,,,,,,,,,,,,,,,221.23021880025044,None,221.93050870019943,222.53052160004154,222.51399570005015,224.51463579991832,None,1,0.612057919614017,2.612727319356054,decreament,0.6,41,standard,None,100,,,,,,,,f,26,210,fr,r,0,raw,2022-05-23_10h14.44.819,oddball,2022.1.2,60.22543582920714,
20,,,,,0,0,0,3,0,0,0,0,10,0,10,0,,,,,,,,,,,,,,,,,224.53131980029866,None,225.2813323000446,225.88209490012378,225.86516660032794,227.8660603002645,None,1,0.6121694198809564,2.6131147197447717,decreament,0.6,41,standard,None,100,,,,,,,,f,26,210,fr,r,0,raw,2022-05-23_10h14.44.819,oddball,2022.1.2,60.22543582920714,
20,,,,,0,0,0,3,0,0,0,0,11,0,11,0,,,,,,,,,,,,,,,,,227.882549200207,None,228.5828781002201,229.0663412003778,229.04959050007164,231.05056030023843,j,1,0.49512961972504854,2.496165219694376,decreament,0.48,44,oddball,j,80,0.5692239999771118,,,,,,,f,26,210,fr,r,0,raw,2022-05-23_10h14.44.819,oddball,2022.1.2,60.22543582920714,
20,,,,,0,0,0,3,0,0,0,0,12,0,12,0,,,,,,,,,,,,,,,,,231.0671442002058,None,231.80055190017447,232.40139020001516,232.38416500017047,234.38484359998256,None,1,0.6144167203456163,2.6150752203539014,decreament,0.6,41,standard,None,100,,,,,,,,f,26,210,fr,r,0,raw,2022-05-23_10h14.44.819,oddball,2022.1.2,60.22543582920714,
20,,,,,0,0,0,3,0,0,0,0,13,0,13,0,,,,,,,,,,,,,,,,,234.40172820026055,None,235.00178109994158,235.60237039998174,235.58593010017648,237.58617280004546,None,1,0.6140806199982762,2.6142393201589584,decreament,0.6,41,standard,None,100,,,,,,,,f,26,210,fr,r,0,raw,2022-05-23_10h14.44.819,oddball,2022.1.2,60.22543582920714,
20,,,,,0,0,0,3,0,0,0,0,14,0,14,0,,,,,,,,,,,,,,,,,237.60314780008048,None,238.203346000053,238.8032728000544,238.78665010025725,240.78738960018381,None,1,0.6094879200682044,2.6102304202504456,decreament,0.6,41,standard,None,100,,,,,,,,f,26,210,fr,r,0,raw,2022-05-23_10h14.44.819,oddball,2022.1.2,60.22543582920714,
20,,,,,0,0,0,3,0,0,0,0,15,0,15,0,,,,,,,,,,,,,,,,,240.80429879995063,None,241.4879799000919,242.08789470000193,242.0715922000818,244.07176520023495,None,1,0.6125095197930932,2.6125885201618075,decreament,0.6,41,standard,None,100,,,,,,,,f,26,210,fr,r,0,raw,2022-05-23_10h14.44.819,oddball,2022.1.2,60.22543582920714,
20,,,,,0,0,0,3,0,0,0,0,16,0,16,0,,,,,,,,,,,,,,,,,244.08857360016555,None,244.65569570008665,245.25593190034851,245.2392150000669,247.23968870006502,j,0,0.6105039198882878,2.6109716198407114,decreament,0.6,41,standard,None,100,1.3407224994152784,,,,,,,f,26,210,fr,r,0,raw,2022-05-23_10h14.44.819,oddball,2022.1.2,60.22543582920714,
20,,,,,0,0,0,3,0,0,0,0,17,0,17,0,,,,,,,,,,,,,,,,,247.25659530004486,None,247.94057899992913,248.1903766002506,248.15723730018362,250.15803610021248,j,1,0.24314922001212835,2.243947320152074,decreament,0.24,42,oddball,j,40,0.5427523995749652,,,,,,,f,26,210,fr,r,0,raw,2022-05-23_10h14.44.819,oddball,2022.1.2,60.22543582920714,
20,,,,,0,0,0,3,0,0,0,0,18,0,18,0,,,,,,,,,,,,,,,,,250.17456160020083,None,250.79120830027387,251.39173689996824,251.3748635002412,253.37531180027872,None,1,0.6097076199948788,2.610108320135623,decreament,0.6,41,standard,None,100,,,,,,,,f,26,210,fr,r,0,raw,2022-05-23_10h14.44.819,oddball,2022.1.2,60.22543582920714,
20,,,,,0,0,0,3,0,0,0,0,19,0,19,0,,,,,,,,,,,,,,,,,253.39223210001364,None,254.20981040038168,254.80936670023948,254.793043800164,256.7937207999639,None,1,0.610826320014894,2.611488920170814,decreament,0.6,41,standard,None,100,,,,,,,,f,26,210,fr,r,0,raw,2022-05-23_10h14.44.819,oddball,2022.1.2,60.22543582920714,
20,,,,,0,0,0,3,0,0,0,0,20,0,20,0,,,,,,,,,,,,,,,,,256.8103394000791,None,257.4274369003251,258.0270394003019,258.0105028003454,260.01118990033865,None,1,0.6114964196458459,2.612203019671142,decreament,0.6,41,standard,None,100,,,,,,,,f,26,210,fr,r,0,raw,2022-05-23_10h14.44.819,oddball,2022.1.2,60.22543582920714,
20,,,,,0,0,0,3,0,0,0,0,21,0,21,0,,,,,,,,,,,,,,,,,260.0279125003144,None,260.6784218000248,261.27865849994123,261.26175960013643,263.2628179001622,None,1,0.6133973198011518,2.614527320023626,decreament,0.6,41,standard,None,100,,,,,,,,f,26,210,fr,r,0,raw,2022-05-23_10h14.44.819,oddball,2022.1.2,60.22543582920714,
20,,,,,0,0,0,3,0,0,0,0,22,0,22,0,,,,,,,,,,,,,,,,,263.2800362003036,None,263.8295068000443,264.4301491002552,264.41321319993585,266.4142005001195,None,1,0.612730719614774,2.61382491979748,decreament,0.6,41,standard,None,100,,,,,,,,f,26,210,fr,r,0,raw,2022-05-23_10h14.44.819,oddball,2022.1.2,60.22543582920714,
20,,,,,0,0,0,3,0,0,0,0,23,0,23,0,,,,,,,,,,,,,,,,,266.4332521003671,None,267.1977153001353,267.79780640034005,267.781390900258,269.78176930034533,None,1,0.6134937200695276,2.613799120299518,decreament,0.6,41,standard,None,100,,,,,,,,f,26,210,fr,r,0,raw,2022-05-23_10h14.44.819,oddball,2022.1.2,60.22543582920714,
20,,,,,0,0,0,3,0,0,0,0,24,0,24,0,,,,,,,,,,,,,,,,,269.7984795002267,None,270.4153575999662,271.0157383000478,270.9987906999886,272.99939610017464,None,1,0.6121669202111661,2.6127622202038765,decreament,0.6,41,standard,None,100,,,,,,,,f,26,210,fr,r,0,raw,2022-05-23_10h14.44.819,oddball,2022.1.2,60.22543582920714,
20,,,,,0,0,0,3,0,0,0,0,25,0,25,0,,,,,,,,,,,,,,,,,273.01602930016816,None,273.70020400034264,274.300404000096,274.2834984003566,276.2840845999308,j,0,0.6097074202261865,2.610263820271939,decreament,0.6,41,standard,None,100,0.5442109992727637,,,,,,,f,26,210,fr,r,0,raw,2022-05-23_10h14.44.819,oddball,2022.1.2,60.22543582920714,
20,,,,,0,0,0,3,0,0,0,0,26,0,26,0,,,,,,,,,,,,,,,,,276.300981500186,None,276.86773640010506,277.468451899942,277.45150140020996,279.4516414999962,None,1,0.6093929200433195,2.6094324202276766,decreament,0.6,41,standard,None,100,,,,,,,,f,26,210,fr,r,0,raw,2022-05-23_10h14.44.819,oddball,2022.1.2,60.22543582920714,
20,,,,,0,0,0,3,0,0,0,0,27,0,27,0,,,,,,,,,,,,,,,,,279.4682944002561,None,280.1026754002087,280.7024429002777,280.6858486002311,282.68667969992384,j,0,0.6119885197840631,2.6128930198028684,decreament,0.6,41,standard,None,100,1.0131129994988441,,,,,,,f,26,210,fr,r,0,raw,2022-05-23_10h14.44.819,oddball,2022.1.2,60.22543582920714,
20,,,,,0,0,0,3,0,0,0,0,28,0,28,0,,,,,,,,,,,,,,,,,282.70350270019844,None,283.5034334999509,284.10393830016255,284.0872614001855,286.0881114001386,None,1,0.6132768201641738,2.6140795201063156,decreament,0.6,41,standard,None,100,,,,,,,,f,26,210,fr,r,0,raw,2022-05-23_10h14.44.819,oddball,2022.1.2,60.22543582920714,
20,,,,,0,0,0,3,0,0,0,0,29,0,29,0,,,,,,,,,,,,,,,,,286.1049306001514,None,286.90484079997987,287.5050484002568,287.48829980008304,289.48925090022385,None,1,0.6147973202168941,2.615778320003301,decreament,0.6,41,standard,None,100,,,,,,,,f,26,210,fr,r,0,raw,2022-05-23_10h14.44.819,oddball,2022.1.2,60.22543582920714,
20,,,,,0,0,0,3,1,0,1,0,0,0,0,0,,,,,,,,,,,,,,,297.287876999937,None,309.3979696002789,None,310.08026059996337,310.6804192001,310.6642175000161,312.66477990010753,None,1,0.6125841201283038,2.613189720083028,increament,0.6,45,standard,None,100,,289.506314500235,None,,,,,f,26,210,fr,r,0,raw,2022-05-23_10h14.44.819,oddball,2022.1.2,60.22543582920714,
20,,,,,0,0,0,3,1,0,1,0,1,0,1,0,,,,,,,,,,,,,,,,,312.6812105001882,None,313.31499919993803,313.9148555002175,313.8982431003824,315.8990678000264,None,1,0.6124395201914012,2.6132726198993623,increament,0.6,45,standard,None,100,,,,,,,,f,26,210,fr,r,0,raw,2022-05-23_10h14.44.819,oddball,2022.1.2,60.22543582920714,
20,,,,,0,0,0,3,1,0,1,0,2,0,2,0,,,,,,,,,,,,,,,,,315.9158149003051,None,316.5493662999943,317.1495554000139,317.1332074999809,319.1342664002441,None,1,0.6121495198458433,2.613317919895053,increament,0.6,45,standard,None,100,,,,,,,,f,26,210,fr,r,0,raw,2022-05-23_10h14.44.819,oddball,2022.1.2,60.22543582920714,
20,,,,,0,0,0,3,1,0,1,0,3,0,3,0,,,,,,,,,,,,,,,,,319.1503550000489,None,319.70059349993244,320.30069760000333,320.28425090014935,322.28533650003374,None,1,0.6132861198857427,2.614453920163214,increament,0.6,45,standard,None,100,,,,,,,,f,26,210,fr,r,0,raw,2022-05-23_10h14.44.819,oddball,2022.1.2,60.22543582920714,
20,,,,,0,0,0,3,1,0,1,0,4,0,4,0,,,,,,,,,,,,,,,,,322.3025195002556,None,322.96873020008206,323.5690492000431,323.5520020001568,325.5532149001956,None,1,0.6102450201287866,2.6115182200446725,increament,0.6,45,standard,None,100,,,,,,,,f,26,210,fr,r,0,raw,2022-05-23_10h14.44.819,oddball,2022.1.2,60.22543582920714,
20,,,,,0,0,0,3,1,0,1,0,5,0,5,0,,,,,,,,,,,,,,,,,325.56991600012407,None,326.4033768000081,327.00333010032773,326.9868200002238,328.98750790022314,None,1,0.6124062202870846,2.6130528203211725,increament,0.6,45,standard,None,100,,,,,,,,f,26,210,fr,r,0,raw,2022-05-23_10h14.44.819,oddball,2022.1.2,60.22543582920714,
20,,,,,0,0,0,3,1,0,1,0,6,0,6,0,,,,,,,,,,,,,,,,,329.0041410000995,None,329.63748010015115,330.23796160006896,330.22119550034404,332.2222770000808,None,1,0.6139155197888613,2.6150746196508408,increament,0.6,45,standard,None,100,,,,,,,,f,26,210,fr,r,0,raw,2022-05-23_10h14.44.819,oddball,2022.1.2,60.22543582920714,
20,,,,,0,0,0,3,1,0,1,0,7,0,7,0,,,,,,,,,,,,,,,,,332.2398697999306,None,332.9229586003348,333.5221478003077,333.50556180020794,335.5067448001355,None,1,0.6092479196377099,2.610517519991845,increament,0.6,45,standard,None,100,,,,,,,,f,26,210,fr,r,0,raw,2022-05-23_10h14.44.819,oddball,2022.1.2,60.22543582920714,
20,,,,,0,0,0,3,1,0,1,0,8,0,8,0,,,,,,,,,,,,,,,,,335.5234717000276,None,336.07380879996344,336.92388440016657,336.89117250032723,338.891922400333,None,0,0.8437846200540662,2.844540120102465,increament,0.84,47,oddball,j,140,,,,,,,,f,26,210,fr,r,0,raw,2022-05-23_10h14.44.819,oddball,2022.1.2,60.22543582920714,
20,,,,,0,0,0,3,1,0,1,0,9,0,9,0,,,,,,,,,,,,,,,,,338.9077877001837,None,339.4752515000291,340.0752734001726,340.05896080005914,342.0596982999705,None,1,0.6106987195089459,2.611433919519186,increament,0.6,45,standard,None,100,,,,,,,,f,26,210,fr,r,0,raw,2022-05-23_10h14.44.819,oddball,2022.1.2,60.22543582920714,
20,,,,,0,0,0,3,1,0,1,0,10,0,10,0,,,,,,,,,,,,,,,,,342.0760783003643,None,342.77633460005745,343.37658470030874,343.360164700076,345.3602615003474,None,1,0.6110500199720263,2.611070319544524,increament,0.6,45,standard,None,100,,,,,,,,f,26,210,fr,r,0,raw,2022-05-23_10h14.44.819,oddball,2022.1.2,60.22543582920714,
20,,,,,0,0,0,3,1,0,1,0,11,0,11,0,,,,,,,,,,,,,,,,,345.3770330003463,None,345.92716989992186,346.52793390024453,346.5112573001534,348.51153929997236,None,1,0.6137120197527111,2.613888019695878,increament,0.6,45,standard,None,100,,,,,,,,f,26,210,fr,r,0,raw,2022-05-23_10h14.44.819,oddball,2022.1.2,60.22543582920714,
20,,,,,0,0,0,3,1,0,1,0,12,0,12,0,,,,,,,,,,,,,,,,,348.52843060018495,None,349.16212789993733,349.7620536000468,349.74550940003246,351.7460940000601,None,1,0.6093043200671673,2.609891219995916,increament,0.6,45,standard,None,100,,,,,,,,f,26,210,fr,r,0,raw,2022-05-23_10h14.44.819,oddball,2022.1.2,60.22543582920714,
20,,,,,0,0,0,3,1,0,1,0,13,0,13,0,,,,,,,,,,,,,,,,,351.76277159992605,None,352.46315110009164,353.0633719000034,353.0464620999992,355.0474207000807,None,1,0.6137799201533198,2.614812219981104,increament,0.6,45,standard,None,100,,,,,,,,f,26,210,fr,r,0,raw,2022-05-23_10h14.44.819,oddball,2022.1.2,60.22543582920714,
20,,,,,0,0,0,3,1,0,1,0,14,0,14,0,,,,,,,,,,,,,,,,,355.0639955000952,None,355.6475619999692,356.24777210038155,356.23147640004754,358.2320525003597,None,1,0.6127431197091937,2.6132850195281208,increament,0.6,45,standard,None,100,,,,,,,,f,26,210,fr,r,0,raw,2022-05-23_10h14.44.819,oddball,2022.1.2,60.22543582920714,
20,,,,,0,0,0,3,1,0,1,0,15,0,15,0,,,,,,,,,,,,,,,,,358.24880800023675,None,358.81610239995643,359.4157634000294,359.39900969993323,361.3998374999501,None,1,0.609507919754833,2.6103600198403,increament,0.6,45,standard,None,100,,,,,,,,f,26,210,fr,r,0,raw,2022-05-23_10h14.44.819,oddball,2022.1.2,60.22543582920714,
20,,,,,0,0,0,3,1,0,1,0,16,0,16,0,,,,,,,,,,,,,,,,,361.41674960032105,None,362.0169506999664,362.98363810032606,362.9509081002325,364.9512971001677,j,1,0.9601419200189412,2.9605141202919185,increament,0.96,48,oddball,j,160,0.41929359966889024,,,,,,,f,26,210,fr,r,0,raw,2022-05-23_10h14.44.819,oddball,2022.1.2,60.22543582920714,
20,,,,,0,0,0,3,1,0,1,0,17,0,17,0,,,,,,,,,,,,,,,,,364.96858510002494,None,365.63431920018047,366.23495500022545,366.20186550030485,368.20243940036744,None,1,0.5991757195442915,2.599768319632858,increament,0.6,45,standard,None,100,,,,,,,,f,26,210,fr,r,0,raw,2022-05-23_10h14.44.819,oddball,2022.1.2,60.22543582920714,
20,,,,,0,0,0,3,1,0,1,0,18,0,18,0,,,,,,,,,,,,,,,,,368.21933960029855,None,368.76912790024653,369.3694747001864,369.35312620038167,371.3535607000813,None,1,0.6145667200908065,2.6149539202451706,increament,0.6,45,standard,None,100,,,,,,,,f,26,210,fr,r,0,raw,2022-05-23_10h14.44.819,oddball,2022.1.2,60.22543582920714,
20,,,,,0,0,0,3,1,0,1,0,19,0,19,0,,,,,,,,,,,,,,,,,371.3702946002595,None,371.88756810035557,372.48726850003004,372.4707969999872,374.47152560018003,None,1,0.6095287199132144,2.6103042201139033,increament,0.6,45,standard,None,100,,,,,,,,f,26,210,fr,r,0,raw,2022-05-23_10h14.44.819,oddball,2022.1.2,60.22543582920714,
20,,,,,0,0,0,3,1,0,1,0,20,0,20,0,,,,,,,,,,,,,,,,,374.488123500254,None,375.1053883000277,375.7050710003823,375.688510700129,377.68931980011985,None,1,0.6105523202568293,2.6113495202735066,increament,0.6,45,standard,None,100,,,,,,,,f,26,210,fr,r,0,raw,2022-05-23_10h14.44.819,oddball,2022.1.2,60.22543582920714,
20,,,,,0,0,0,3,1,0,1,0,21,0,21,0,,,,,,,,,,,,,,,,,377.7060802001506,None,378.2898188000545,379.0232640001923,378.9902492002584,380.9907571999356,j,1,0.7281797202304006,2.7286555198952556,increament,0.72,46,oddball,j,120,0.5481405998580158,,,,,,,f,26,210,fr,r,0,raw,2022-05-23_10h14.44.819,oddball,2022.1.2,60.22543582920714,
20,,,,,0,0,0,3,1,0,1,0,22,0,22,0,,,,,,,,,,,,,,,,,381.00728700030595,None,381.60736960032955,382.20769040007144,382.190842800308,384.19168419996276,None,1,0.6137886205688119,2.6146283205598593,increament,0.6,45,standard,None,100,,,,,,,,f,26,210,fr,r,0,raw,2022-05-23_10h14.44.819,oddball,2022.1.2,60.22543582920714,
20,,,,,0,0,0,3,1,0,1,0,23,0,23,0,,,,,,,,,,,,,,,,,384.2082911999896,None,384.842506099958,385.44200540008023,385.4254991002381,387.42630980024114,None,1,0.6088999197818339,2.6097426200285554,increament,0.6,45,standard,None,100,,,,,,,,f,26,210,fr,r,0,raw,2022-05-23_10h14.44.819,oddball,2022.1.2,60.22543582920714,
20,,,,,0,0,0,3,1,0,1,0,24,0,24,0,,,,,,,,,,,,,,,,,387.4434886001982,None,388.1103504002094,388.70992860011756,388.693452199921,390.6941173002124,j,0,0.609337919857353,2.609999720007181,increament,0.6,45,standard,None,100,0.902192899491638,,,,,,,f,26,210,fr,r,0,raw,2022-05-23_10h14.44.819,oddball,2022.1.2,60.22543582920714,
20,,,,,0,0,0,3,1,0,1,0,25,0,25,0,,,,,,,,,,,,,,,,,390.71105789998546,None,391.37800660030916,391.9781402000226,391.9615195002407,393.9617107002996,None,1,0.6125311199575663,2.6126863197423518,increament,0.6,45,standard,None,100,,,,,,,,f,26,210,fr,r,0,raw,2022-05-23_10h14.44.819,oddball,2022.1.2,60.22543582920714,
20,,,,,0,0,0,3,1,0,1,0,26,0,26,0,,,,,,,,,,,,,,,,,393.97842309996486,None,394.6959387003444,395.2958005000837,395.2792160003446,397.28022630000487,None,1,0.6103560207411647,2.611385020427406,increament,0.6,45,standard,None,100,,,,,,,,f,26,210,fr,r,0,raw,2022-05-23_10h14.44.819,oddball,2022.1.2,60.22543582920714,
20,,,,,0,0,0,3,1,0,1,0,27,0,27,0,,,,,,,,,,,,,,,,,397.2967763999477,None,397.980440299958,398.58046670025215,398.5641074003652,400.5646632001735,j,0,0.6118360199034214,2.612372419796884,increament,0.6,45,standard,None,100,0.7271606000140309,,,,,,,f,26,210,fr,r,0,raw,2022-05-23_10h14.44.819,oddball,2022.1.2,60.22543582920714,
20,,,,,0,0,0,3,1,0,1,0,28,0,28,0,,,,,,,,,,,,,,,,,400.58125569997355,None,401.24844840029255,401.8483147001825,401.8317378000356,403.83259110013023,j,0,0.6125836200080812,2.613465419970453,increament,0.6,45,standard,None,100,0.6185686993412673,,,,,,,f,26,210,fr,r,0,raw,2022-05-23_10h14.44.819,oddball,2022.1.2,60.22543582920714,
20,,,,,0,0,0,3,1,0,1,0,29,0,29,0,,,,,,,,,,,,,,,,,403.84919610014185,None,404.6162658999674,405.2163460999727,405.19953919993713,407.2003498002887,j,0,0.6119791204109788,2.612798920366913,increament,0.6,45,standard,None,100,0.8830265998840332,,,,,,,f,26,210,fr,r,0,raw,2022-05-23_10h14.44.819,oddball,2022.1.2,60.22543582920714,
20,,,,,0,0,0,3,2,0,2,0,0,0,0,0,,,,,,,,,,,,,,,409.26567770028487,None,411.3186278999783,None,411.9022113000974,412.5023392001167,412.4855589000508,414.48658420005813,None,1,0.6083355196751654,2.609441119711846,decreament,0.6,41,standard,None,100,,407.21759389992803,None,,,,,f,26,210,fr,r,0,raw,2022-05-23_10h14.44.819,oddball,2022.1.2,60.22543582920714,
20,,,,,0,0,0,3,2,0,2,0,1,0,1,0,,,,,,,,,,,,,,,,,414.5036591999233,None,415.0370428999886,415.6374626001343,415.6206885003485,417.62113169999793,None,1,0.6103333197534084,2.6106902197934687,decreament,0.6,41,standard,None,100,,,,,,,,f,26,210,fr,r,0,raw,2022-05-23_10h14.44.819,oddball,2022.1.2,60.22543582920714,
20,,,,,0,0,0,3,2,0,2,0,2,0,2,0,,,,,,,,,,,,,,,,,417.6377600003034,None,418.2712538000196,418.87163390032947,418.854954500217,420.8555718003772,None,1,0.6122439200989902,2.6128180199302733,decreament,0.6,41,standard,None,100,,,,,,,,f,26,210,fr,r,0,raw,2022-05-23_10h14.44.819,oddball,2022.1.2,60.22543582920714,
20,,,,,0,0,0,3,2,0,2,0,3,0,3,0,,,,,,,,,,,,,,,,,420.872482100036,None,421.62257230002433,422.22283990029246,422.20601180009544,424.2066949000582,None,1,0.6122362203896046,2.6128960200585425,decreament,0.6,41,standard,None,100,,,,,,,,f,26,210,fr,r,0,raw,2022-05-23_10h14.44.819,oddball,2022.1.2,60.22543582920714,
20,,,,,0,0,0,3,2,0,2,0,4,0,4,0,,,,,,,,,,,,,,,,,424.22346110036597,None,424.9071263000369,425.50756790023297,425.4912533001043,427.4919348000549,None,1,0.6131865200586617,2.6138614201918244,decreament,0.6,41,standard,None,100,,,,,,,,f,26,210,fr,r,0,raw,2022-05-23_10h14.44.819,oddball,2022.1.2,60.22543582920714,
20,,,,,0,0,0,3,2,0,2,0,5,0,5,0,,,,,,,,,,,,,,,,,427.50856740027666,None,428.1253202003427,428.72505900030956,428.7085992000066,430.7092180000618,None,1,0.6131913200952113,2.6138473199680448,decreament,0.6,41,standard,None,100,,,,,,,,f,26,210,fr,r,0,raw,2022-05-23_10h14.44.819,oddball,2022.1.2,60.22543582920714,
20,,,,,0,0,0,3,2,0,2,0,6,0,6,0,,,,,,,,,,,,,,,,,430.72636059997603,None,431.4765074001625,432.0763870002702,432.0600777999498,434.06060880003497,None,1,0.6106031201779842,2.6111264200881124,decreament,0.6,41,standard,None,100,,,,,,,,f,26,210,fr,r,0,raw,2022-05-23_10h14.44.819,oddball,2022.1.2,60.22543582920714,
20,,,,,0,0,0,3,2,0,2,0,7,0,7,0,,,,,,,,,,,,,,,,,434.07724669994786,None,434.71094539994374,435.3108507003635,435.2944934000261,437.2953254003078,None,1,0.6135631198994815,2.614439019933343,decreament,0.6,41,standard,None,100,,,,,,,,f,26,210,fr,r,0,raw,2022-05-23_10h14.44.819,oddball,2022.1.2,60.22543582920714,
20,,,,,0,0,0,3,2,0,2,0,8,0,8,0,,,,,,,,,,,,,,,,,437.3122006999329,None,438.079579600133,438.6790845999494,438.6623551999219,440.66310509992763,None,1,0.6066982196643949,2.607455719728023,decreament,0.6,41,standard,None,100,,,,,,,,f,26,210,fr,r,0,raw,2022-05-23_10h14.44.819,oddball,2022.1.2,60.22543582920714,
20,,,,,0,0,0,3,2,0,2,0,9,0,9,0,,,,,,,,,,,,,,,,,440.679782200139,None,441.33033760031685,441.9301983001642,441.91420730017126,443.91438750037923,None,1,0.6095342198386788,2.6096438197419047,decreament,0.6,41,standard,None,100,,,,,,,,f,26,210,fr,r,0,raw,2022-05-23_10h14.44.819,oddball,2022.1.2,60.22543582920714,
20,,,,,0,0,0,3,2,0,2,0,10,0,10,0,,,,,,,,,,,,,,,,,443.9310842999257,None,444.58186270017177,445.1820738003589,445.16508520022035,447.165573600214,None,1,0.609877219889313,2.6103057200089097,decreament,0.6,41,standard,None,100,,,,,,,,f,26,210,fr,r,0,raw,2022-05-23_10h14.44.819,oddball,2022.1.2,60.22543582920714,
20,,,,,0,0,0,3,2,0,2,0,11,0,11,0,,,,,,,,,,,,,,,,,447.1824598000385,None,447.86611320031807,448.4663194003515,448.4498776001856,450.45051770005375,j,0,0.6096935197710991,2.6103001199662685,decreament,0.6,41,standard,None,100,0.40935209952294827,,,,,,,f,26,210,fr,r,0,raw,2022-05-23_10h14.44.819,oddball,2022.1.2,60.22543582920714,
20,,,,,0,0,0,3,2,0,2,0,12,0,12,0,,,,,,,,,,,,,,,,,450.4667992000468,None,451.1171110002324,451.7173121003434,451.70028770016506,453.7013946999796,None,1,0.6131235198117793,2.6142823197878897,decreament,0.6,41,standard,None,100,,,,,,,,f,26,210,fr,r,0,raw,2022-05-23_10h14.44.819,oddball,2022.1.2,60.22543582920714,
20,,,,,0,0,0,3,2,0,2,0,13,0,13,0,,,,,,,,,,,,,,,,,453.7180365999229,None,454.3179681999609,454.91852980013937,454.9022201001644,456.9029050003737,None,1,0.615355119574815,2.616079119965434,decreament,0.6,41,standard,None,100,,,,,,,,f,26,210,fr,r,0,raw,2022-05-23_10h14.44.819,oddball,2022.1.2,60.22543582920714,
20,,,,,0,0,0,3,2,0,2,0,14,0,14,0,,,,,,,,,,,,,,,,,456.9193990002386,None,457.5197993000038,458.119638199918,458.10329700028524,460.10407850006595,None,1,0.610698520205915,2.6115086199715734,decreament,0.6,41,standard,None,100,,,,,,,,f,26,210,fr,r,0,raw,2022-05-23_10h14.44.819,oddball,2022.1.2,60.22543582920714,
20,,,,,0,0,0,3,2,0,2,0,15,0,15,0,,,,,,,,,,,,,,,,,460.1204119003378,None,460.8207979002036,461.4204989001155,461.4038669001311,463.40523600019515,None,1,0.6120405197143555,2.613518019672483,decreament,0.6,41,standard,None,100,,,,,,,,f,26,210,fr,r,0,raw,2022-05-23_10h14.44.819,oddball,2022.1.2,60.22543582920714,
20,,,,,0,0,0,3,2,0,2,0,16,0,16,0,,,,,,,,,,,,,,,,,463.4217199999839,None,464.1556124999188,464.75582670001313,464.73922450002283,466.74000070011243,None,1,0.6096693202853203,2.6103992201387882,decreament,0.6,41,standard,None,100,,,,,,,,f,26,210,fr,r,0,raw,2022-05-23_10h14.44.819,oddball,2022.1.2,60.22543582920714,
20,,,,,0,0,0,3,2,0,2,0,17,0,17,0,,,,,,,,,,,,,,,,,466.7562538003549,None,467.4401548001915,468.0401854002848,468.02350220037624,470.0241586002521,None,1,0.6120936195366085,2.612756619695574,decreament,0.6,41,standard,None,100,,,,,,,,f,26,210,fr,r,0,raw,2022-05-23_10h14.44.819,oddball,2022.1.2,60.22543582920714,
20,,,,,0,0,0,3,2,0,2,0,18,0,18,0,,,,,,,,,,,,,,,,,470.0410648002289,None,470.558040200267,471.1584112001583,471.14195610024035,473.1424486003816,None,1,0.6102568199858069,2.6106860199943185,decreament,0.6,41,standard,None,100,,,,,,,,f,26,210,fr,r,0,raw,2022-05-23_10h14.44.819,oddball,2022.1.2,60.22543582920714,
20,,,,,0,0,0,3,2,0,2,0,19,0,19,0,,,,,,,,,,,,,,,,,473.15883790003136,None,473.8923734999262,474.49256459996104,474.47587690036744,476.47670669993386,None,1,0.6125586200505495,2.6134251202456653,decreament,0.6,41,standard,None,100,,,,,,,,f,26,210,fr,r,0,raw,2022-05-23_10h14.44.819,oddball,2022.1.2,60.22543582920714,
20,,,,,0,0,0,3,2,0,2,0,20,0,20,0,,,,,,,,,,,,,,,,,476.49369759997353,None,477.14371360000223,477.62719040038064,477.6110062999651,479.61155229993165,j,1,0.4952977206557989,2.495441720355302,decreament,0.48,44,oddball,j,80,1.422386399935931,,,,,,,f,26,210,fr,r,0,raw,2022-05-23_10h14.44.819,oddball,2022.1.2,60.22543582920714,
20,,,,,0,0,0,3,2,0,2,0,21,0,21,0,,,,,,,,,,,,,,,,,479.6277558002621,None,480.24506300035864,480.8452166002244,480.8283986002207,482.8293898999691,None,1,0.6119914199225605,2.613029919564724,decreament,0.6,41,standard,None,100,,,,,,,,f,26,210,fr,r,0,raw,2022-05-23_10h14.44.819,oddball,2022.1.2,60.22543582920714,
20,,,,,0,0,0,3,2,0,2,0,22,0,22,0,,,,,,,,,,,,,,,,,482.8459192002192,None,483.39648560015485,483.9964499003254,483.97946790000424,485.9804569003172,j,0,0.607302320189774,2.6083648204803467,decreament,0.6,41,standard,None,100,0.438189999666065,,,,,,,f,26,210,fr,r,0,raw,2022-05-23_10h14.44.819,oddball,2022.1.2,60.22543582920714,
20,,,,,0,0,0,3,2,0,2,0,23,0,23,0,,,,,,,,,,,,,,,,,485.99694930016994,None,486.5471661002375,487.1474014003761,487.1307492000051,489.1314556002617,j,0,0.612373820040375,2.6131109199486673,decreament,0.6,41,standard,None,100,0.5600586999207735,,,,,,,f,26,210,fr,r,0,raw,2022-05-23_10h14.44.819,oddball,2022.1.2,60.22543582920714,
20,,,,,0,0,0,3,2,0,2,0,24,0,24,0,,,,,,,,,,,,,,,,,489.1482498999685,None,489.71499720029533,490.0817459002137,490.0482841003686,492.0495339999907,j,1,0.3629057202488184,2.364260720089078,decreament,0.36,43,oddball,j,60,0.73011410003528,,,,,,,f,26,210,fr,r,0,raw,2022-05-23_10h14.44.819,oddball,2022.1.2,60.22543582920714,
20,,,,,0,0,0,3,2,0,2,0,25,0,25,0,,,,,,,,,,,,,,,,,492.06708680000156,None,492.68299600016326,493.28322690026835,493.26647200016305,495.267398300115,j,0,0.6123839202336967,2.61331832036376,decreament,0.6,41,standard,None,100,0.736159099265933,,,,,,,f,26,210,fr,r,0,raw,2022-05-23_10h14.44.819,oddball,2022.1.2,60.22543582920714,
20,,,,,0,0,0,3,2,0,2,0,26,0,26,0,,,,,,,,,,,,,,,,,495.2838797001168,None,496.06734900036827,496.6678973999806,496.6510070003569,498.6515309000388,j,0,0.6120237200520933,2.6125251199118793,decreament,0.6,41,standard,None,100,0.6158321998082101,,,,,,,f,26,210,fr,r,0,raw,2022-05-23_10h14.44.819,oddball,2022.1.2,60.22543582920714,
20,,,,,0,0,0,3,2,0,2,0,27,0,27,0,,,,,,,,,,,,,,,,,498.66859519993886,None,499.4355705999769,500.0357816000469,500.01934000011533,502.0197205999866,j,0,0.6127541195601225,2.612985719460994,decreament,0.6,41,standard,None,100,0.6473425994627178,,,,,,,f,26,210,fr,r,0,raw,2022-05-23_10h14.44.819,oddball,2022.1.2,60.22543582920714,
20,,,,,0,0,0,3,2,0,2,0,28,0,28,0,,,,,,,,,,,,,,,,,502.0362414000556,None,502.6868925001472,503.28696019994095,503.2701731999405,505.27138680033386,j,0,0.6119918199256063,2.613251219969243,decreament,0.6,41,standard,None,100,0.8360214997082949,,,,,,,f,26,210,fr,r,0,raw,2022-05-23_10h14.44.819,oddball,2022.1.2,60.22543582920714,
20,,,,,0,0,0,3,2,0,2,0,29,0,29,0,,,,,,,,,,,,,,,,,505.2875477001071,None,506.02105320012197,506.27122980030254,506.2379278000444,508.2387057002634,j,1,0.2466588201932609,2.247461120132357,decreament,0.24,42,oddball,j,40,0.6202305997721851,,,,,,,f,26,210,fr,r,0,raw,2022-05-23_10h14.44.819,oddball,2022.1.2,60.22543582920714,
20,,,,,0,0,0,3,3,0,3,0,0,0,0,0,,,,,,,,,,,,,,,543.9437426999211,None,548.1539607001469,None,548.8375367000699,549.4375519002788,549.4207844003104,551.4215253000148,None,1,0.6114640203304589,2.612215720117092,increament,0.6,45,standard,None,100,,508.2555665001273,None,,,,,f,26,210,fr,r,0,raw,2022-05-23_10h14.44.819,oddball,2022.1.2,60.22543582920714,
20,,,,,0,0,0,3,3,0,3,0,1,0,1,0,,,,,,,,,,,,,,,,,551.4381850003265,None,552.2056836001575,552.8059293003753,552.7890188000165,554.7897339002229,None,1,0.6095353201963007,2.610262120142579,increament,0.6,45,standard,None,100,,,,,,,,f,26,210,fr,r,0,raw,2022-05-23_10h14.44.819,oddball,2022.1.2,60.22543582920714,
20,,,,,0,0,0,3,3,0,3,0,2,0,2,0,,,,,,,,,,,,,,,,,554.8064458002336,None,555.4732576999813,556.0735738002695,556.0569406999275,558.0578899001703,None,1,0.6109453202225268,2.6119164205156267,increament,0.6,45,standard,None,100,,,,,,,,f,26,210,fr,r,0,raw,2022-05-23_10h14.44.819,oddball,2022.1.2,60.22543582920714,
20,,,,,0,0,0,3,3,0,3,0,3,0,3,0,,,,,,,,,,,,,,,,,558.0742359003052,None,558.8243762999773,559.4247167003341,559.4082870003767,561.4090980002657,None,1,0.6135348198004067,2.614485119935125,increament,0.6,45,standard,None,100,,,,,,,,f,26,210,fr,r,0,raw,2022-05-23_10h14.44.819,oddball,2022.1.2,60.22543582920714,
20,,,,,0,0,0,3,3,0,3,0,4,0,4,0,,,,,,,,,,,,,,,,,561.4262107000686,None,561.9426557002589,562.5425712000579,562.5264993002638,564.5269921999425,None,1,0.6101995198987424,2.6106218197382987,increament,0.6,45,standard,None,100,,,,,,,,f,26,210,fr,r,0,raw,2022-05-23_10h14.44.819,oddball,2022.1.2,60.22543582920714,
20,,,,,0,0,0,3,3,0,3,0,5,0,5,0,,,,,,,,,,,,,,,,,564.5436447001994,None,565.227045299951,565.8271587002091,565.8111458001658,567.81112139998,None,1,0.6133968201465905,2.613262420054525,increament,0.6,45,standard,None,100,,,,,,,,f,26,210,fr,r,0,raw,2022-05-23_10h14.44.819,oddball,2022.1.2,60.22543582920714,
20,,,,,0,0,0,3,3,0,3,0,6,0,6,0,,,,,,,,,,,,,,,,,567.827996800188,None,568.4783868002705,569.0783406002447,569.0619510002434,571.0626366003416,None,1,0.610658919904381,2.61136091966182,increament,0.6,45,standard,None,100,,,,,,,,f,26,210,fr,r,0,raw,2022-05-23_10h14.44.819,oddball,2022.1.2,60.22543582920714,
20,,,,,0,0,0,3,3,0,3,0,7,0,7,0,,,,,,,,,,,,,,,,,571.0801436002366,None,571.8797996002249,572.479856800288,572.4630174003541,574.4637720999308,None,1,0.610045219771564,2.6108231195248663,increament,0.6,45,standard,None,100,,,,,,,,f,26,210,fr,r,0,raw,2022-05-23_10h14.44.819,oddball,2022.1.2,60.22543582920714,
20,,,,,0,0,0,3,3,0,3,0,8,0,8,0,,,,,,,,,,,,,,,,,574.4805588000454,None,575.0303286002018,575.7645458001643,575.7308414001018,577.7319986000657,j,1,0.7312954198569059,2.7325173201970756,increament,0.72,46,oddball,j,120,0.6799773992970586,,,,,,,f,26,210,fr,r,0,raw,2022-05-23_10h14.44.819,oddball,2022.1.2,60.22543582920714,
20,,,,,0,0,0,3,3,0,3,0,9,0,9,0,,,,,,,,,,,,,,,,,577.7486061002128,None,578.2990464000031,578.899042500183,578.8822810002603,580.8831652002409,None,1,0.6096924203447998,2.6105964202433825,increament,0.6,45,standard,None,100,,,,,,,,f,26,210,fr,r,0,raw,2022-05-23_10h14.44.819,oddball,2022.1.2,60.22543582920714,
20,,,,,0,0,0,3,3,0,3,0,10,0,10,0,,,,,,,,,,,,,,,,,580.9003171999939,None,581.5997693003155,582.1996712000109,582.1830052002333,584.1839666999876,None,1,0.6118481196463108,2.612838319502771,increament,0.6,45,standard,None,100,,,,,,,,f,26,210,fr,r,0,raw,2022-05-23_10h14.44.819,oddball,2022.1.2,60.22543582920714,
20,,,,,0,0,0,3,3,0,3,0,11,0,11,0,,,,,,,,,,,,,,,,,584.2007542001083,None,584.9682529000565,585.5682864002883,585.5515801999718,587.5523361000232,None,1,0.6113598197698593,2.6121653197333217,increament,0.6,45,standard,None,100,,,,,,,,f,26,210,fr,r,0,raw,2022-05-23_10h14.44.819,oddball,2022.1.2,60.22543582920714,
20,,,,,0,0,0,3,3,0,3,0,12,0,12,0,,,,,,,,,,,,,,,,,587.5695513002574,None,588.25250650011,588.8526798002422,588.8362813000567,590.836709999945,None,1,0.6113967201672494,2.6117686200886965,increament,0.6,45,standard,None,100,,,,,,,,f,26,210,fr,r,0,raw,2022-05-23_10h14.44.819,oddball,2022.1.2,60.22543582920714,
20,,,,,0,0,0,3,3,0,3,0,13,0,13,0,,,,,,,,,,,,,,,,,590.853280799929,None,591.5869035003707,592.1872742003761,592.1707808999345,594.171387700364,None,1,0.6129958205856383,2.6136090205982327,increament,0.6,45,standard,None,100,,,,,,,,f,26,210,fr,r,0,raw,2022-05-23_10h14.44.819,oddball,2022.1.2,60.22543582920714,
20,,,,,0,0,0,3,3,0,3,0,14,0,14,0,,,,,,,,,,,,,,,,,594.1880793003365,None,594.7716751000844,595.3717952999286,595.3550273999572,597.3557450999506,None,1,0.6098157200030982,2.6105452198535204,increament,0.6,45,standard,None,100,,,,,,,,f,26,210,fr,r,0,raw,2022-05-23_10h14.44.819,oddball,2022.1.2,60.22543582920714,
20,,,,,0,0,0,3,3,0,3,0,15,0,15,0,,,,,,,,,,,,,,,,,597.3725924002938,None,598.0059970002621,598.8566090003587,598.823057600297,600.824007499963,j,1,0.8459174199961126,2.8468735199421644,increament,0.84,47,oddball,j,140,0.41034899977967143,,,,,,,f,26,210,fr,r,0,raw,2022-05-23_10h14.44.819,oddball,2022.1.2,60.22543582920714,
20,,,,,0,0,0,3,3,0,3,0,16,0,16,0,,,,,,,,,,,,,,,,,600.8402961003594,None,601.5243077003397,602.1245576003566,602.1081179999746,604.1085795001127,None,1,0.6130885202437639,2.613288020249456,increament,0.6,45,standard,None,100,,,,,,,,f,26,210,fr,r,0,raw,2022-05-23_10h14.44.819,oddball,2022.1.2,60.22543582920714,
20,,,,,0,0,0,3,3,0,3,0,17,0,17,0,,,,,,,,,,,,,,,,,604.1249885000288,None,604.7584198000841,605.3588149002753,605.3424726999365,607.343447400257,j,0,0.6129481205716729,2.613969220314175,increament,0.6,45,standard,None,100,0.539799299556762,,,,,,,f,26,210,fr,r,0,raw,2022-05-23_10h14.44.819,oddball,2022.1.2,60.22543582920714,
20,,,,,0,0,0,3,3,0,3,0,18,0,18,0,,,,,,,,,,,,,,,,,607.3594357999973,None,608.1264680000022,608.7269117003307,608.7103371000849,610.7112668999471,None,1,0.6128174201585352,2.6137730199843645,increament,0.6,45,standard,None,100,,,,,,,,f,26,210,fr,r,0,raw,2022-05-23_10h14.44.819,oddball,2022.1.2,60.22543582920714,
20,,,,,0,0,0,3,3,0,3,0,19,0,19,0,,,,,,,,,,,,,,,,,610.7276417999528,None,611.4283321001567,612.3949387003668,612.3616210999899,614.3622643002309,j,1,0.9602651195600629,2.9611201197840273,increament,0.96,48,oddball,j,160,0.5128664993681014,,,,,,,f,26,210,fr,r,0,raw,2022-05-23_10h14.44.819,oddball,2022.1.2,60.22543582920714,
20,,,,,0,0,0,3,3,0,3,0,20,0,20,0,,,,,,,,,,,,,,,,,614.3788471999578,None,615.112517000176,615.7128981002606,615.6962491003796,617.6970959003083,None,1,0.613457019906491,2.6142910197377205,increament,0.6,45,standard,None,100,,,,,,,,f,26,210,fr,r,0,raw,2022-05-23_10h14.44.819,oddball,2022.1.2,60.22543582920714,
20,,,,,0,0,0,3,3,0,3,0,21,0,21,0,,,,,,,,,,,,,,,,,617.713596700225,None,618.2972055003047,618.8972922000103,618.8806468001567,620.8816377003677,None,1,0.609433819539845,2.6104817194864154,increament,0.6,45,standard,None,100,,,,,,,,f,26,210,fr,r,0,raw,2022-05-23_10h14.44.819,oddball,2022.1.2,60.22543582920714,
20,,,,,0,0,0,3,3,0,3,0,22,0,22,0,,,,,,,,,,,,,,,,,620.8981759003364,None,621.4652981003746,622.0652514002286,622.0489225001074,624.0496018002741,None,1,0.6109152203425765,2.6115923202596605,increament,0.6,45,standard,None,100,,,,,,,,f,26,210,fr,r,0,raw,2022-05-23_10h14.44.819,oddball,2022.1.2,60.22543582920714,
20,,,,,0,0,0,3,3,0,3,0,23,0,23,0,,,,,,,,,,,,,,,,,624.0656610000879,None,624.8495046999305,625.4498928003013,625.4332802002318,627.4341858001426,None,1,0.6118978201411664,2.612872519996017,increament,0.6,45,standard,None,100,,,,,,,,f,26,210,fr,r,0,raw,2022-05-23_10h14.44.819,oddball,2022.1.2,60.22543582920714,
20,,,,,0,0,0,3,3,0,3,0,24,0,24,0,,,,,,,,,,,,,,,,,627.4507105001248,None,628.1675965003669,628.76790169999,628.7512984001078,630.7516823001206,None,1,0.6120203197933733,2.612402420025319,increament,0.6,45,standard,None,100,,,,,,,,f,26,210,fr,r,0,raw,2022-05-23_10h14.44.819,oddball,2022.1.2,60.22543582920714,
20,,,,,0,0,0,3,3,0,3,0,25,0,25,0,,,,,,,,,,,,,,,,,630.7685116003267,None,631.502565599978,632.1022124001756,632.08540250035,634.0864653000608,None,1,0.6095805200748146,2.610712119843811,increament,0.6,45,standard,None,100,,,,,,,,f,26,210,fr,r,0,raw,2022-05-23_10h14.44.819,oddball,2022.1.2,60.22543582920714,
20,,,,,0,0,0,3,3,0,3,0,26,0,26,0,,,,,,,,,,,,,,,,,634.103284300305,None,634.8868937003426,635.4871078999713,635.4702938003466,637.4711032002233,j,0,0.613462720066309,2.614267020020634,increament,0.6,45,standard,None,100,0.4443259993568063,,,,,,,f,26,210,fr,r,0,raw,2022-05-23_10h14.44.819,oddball,2022.1.2,60.22543582920714,
20,,,,,0,0,0,3,3,0,3,0,27,0,27,0,,,,,,,,,,,,,,,,,637.4876033002511,None,638.1044993000105,638.704877300188,638.6887552002445,640.6888685002923,None,1,0.6133316205814481,2.613387020304799,increament,0.6,45,standard,None,100,,,,,,,,f,26,210,fr,r,0,raw,2022-05-23_10h14.44.819,oddball,2022.1.2,60.22543582920714,
20,,,,,0,0,0,3,3,0,3,0,28,0,28,0,,,,,,,,,,,,,,,,,640.7057874002494,None,641.2560565001331,641.8565275003202,641.8397542000748,643.8399919001386,j,0,0.6114153196103871,2.6115144197829068,increament,0.6,45,standard,None,100,0.5457779997959733,,,,,,,f,26,210,fr,r,0,raw,2022-05-23_10h14.44.819,oddball,2022.1.2,60.22543582920714,
20,,,,,0,0,0,3,3,0,3,0,29,0,29,0,,,,,,,,,,,,,,,,,643.8567826999351,None,644.5072358003817,645.1071204002947,645.0910310000181,647.0915573001839,None,1,0.6094315201044083,2.6099152201786637,increament,0.6,45,standard,None,100,,,,,,,,f,26,210,fr,r,0,raw,2022-05-23_10h14.44.819,oddball,2022.1.2,60.22543582920714,
20,,,,,0,0,0,3,4,0,4,0,0,0,0,0,,,,,,,,,,,,,,,648.9171657999977,None,653.0271343002096,None,653.5606428999454,654.1610580999404,654.1442801002413,656.1452238000929,None,1,0.6105084200389683,2.611534920055419,decreament,0.6,41,standard,None,100,,647.1081509003416,None,,,,,f,26,210,fr,r,0,raw,2022-05-23_10h14.44.819,oddball,2022.1.2,60.22543582920714,
20,,,,,0,0,0,3,4,0,4,0,1,0,1,0,,,,,,,,,,,,,,,,,656.1613088999875,None,656.9117340999655,657.511999099981,657.4952507000417,659.4963716003112,None,1,0.6128840199671686,2.614026219584048,decreament,0.6,41,standard,None,100,,,,,,,,f,26,210,fr,r,0,raw,2022-05-23_10h14.44.819,oddball,2022.1.2,60.22543582920714,
20,,,,,0,0,0,3,4,0,4,0,2,0,2,0,,,,,,,,,,,,,,,,,659.5126335001551,None,660.113307800144,660.712853200268,660.6964929001406,662.6971491002478,None,1,0.6099137202836573,2.6105782203376293,decreament,0.6,41,standard,None,100,,,,,,,,f,26,210,fr,r,0,raw,2022-05-23_10h14.44.819,oddball,2022.1.2,60.22543582920714,
20,,,,,0,0,0,3,4,0,4,0,3,0,3,0,,,,,,,,,,,,,,,,,662.7141284001991,None,663.3307369002141,663.9310938003473,663.9149150000885,665.9152889000252,None,1,0.6128730201162398,2.6132467202842236,decreament,0.6,41,standard,None,100,,,,,,,,f,26,210,fr,r,0,raw,2022-05-23_10h14.44.819,oddball,2022.1.2,60.22543582920714,
20,,,,,0,0,0,3,4,0,4,0,4,0,4,0,,,,,,,,,,,,,,,,,665.9316281001084,None,666.6820029001683,667.2825096999295,667.2655967003666,669.2662522001192,None,1,0.6127622202038765,2.613412519916892,decreament,0.6,41,standard,None,100,,,,,,,,f,26,210,fr,r,0,raw,2022-05-23_10h14.44.819,oddball,2022.1.2,60.22543582920714,
20,,,,,0,0,0,3,4,0,4,0,5,0,5,0,,,,,,,,,,,,,,,,,669.2828855002299,None,669.8835652000271,670.4834863003343,670.467004199978,672.4677099999972,None,1,0.6095541198737919,2.6103659202344716,decreament,0.6,41,standard,None,100,,,,,,,,f,26,210,fr,r,0,raw,2022-05-23_10h14.44.819,oddball,2022.1.2,60.22543582920714,
20,,,,,0,0,0,3,4,0,4,0,6,0,6,0,,,,,,,,,,,,,,,,,672.4843796999194,None,673.1845842003822,673.7846166002564,673.7681631003506,675.7689192001708,None,1,0.6127903196029365,2.613552919588983,decreament,0.6,41,standard,None,100,,,,,,,,f,26,210,fr,r,0,raw,2022-05-23_10h14.44.819,oddball,2022.1.2,60.22543582920714,
20,,,,,0,0,0,3,4,0,4,0,7,0,7,0,,,,,,,,,,,,,,,,,675.7856708001345,None,676.4360038000159,677.0360900000669,677.0194053002633,679.0202093003318,None,1,0.6093922196887434,2.6102682198397815,decreament,0.6,41,standard,None,100,,,,,,,,f,26,210,fr,r,0,raw,2022-05-23_10h14.44.819,oddball,2022.1.2,60.22543582920714,
20,,,,,0,0,0,3,4,0,4,0,8,0,8,0,,,,,,,,,,,,,,,,,679.0365822003223,None,679.7038242002018,680.30368370004,680.2872033999301,682.2878908999264,None,1,0.6098437197506428,2.610546319745481,decreament,0.6,41,standard,None,100,,,,,,,,f,26,210,fr,r,0,raw,2022-05-23_10h14.44.819,oddball,2022.1.2,60.22543582920714,
20,,,,,0,0,0,3,4,0,4,0,9,0,9,0,,,,,,,,,,,,,,,,,682.3044680003077,None,682.8714077002369,683.4719831999391,683.4555108002387,685.4558274000883,None,1,0.6138364202342927,2.6140620200894773,decreament,0.6,41,standard,None,100,,,,,,,,f,26,210,fr,r,0,raw,2022-05-23_10h14.44.819,oddball,2022.1.2,60.22543582920714,
20,,,,,0,0,0,3,4,0,4,0,10,0,10,0,,,,,,,,,,,,,,,,,685.4724222002551,None,686.1392406001687,686.7398666003719,686.7232787003741,688.7236465001479,j,0,0.6133404201827943,2.61365272058174,decreament,0.6,41,standard,None,100,0.6467867996543646,,,,,,,f,26,210,fr,r,0,raw,2022-05-23_10h14.44.819,oddball,2022.1.2,60.22543582920714,
20,,,,,0,0,0,3,4,0,4,0,11,0,11,0,,,,,,,,,,,,,,,,,688.7401890000328,None,689.4075595000759,689.8907710001804,689.8742212001234,691.8750134003349,j,1,0.4935640199109912,2.494367319624871,decreament,0.48,44,oddball,j,80,0.6229074997827411,,,,,,,f,26,210,fr,r,0,raw,2022-05-23_10h14.44.819,oddball,2022.1.2,60.22543582920714,
20,,,,,0,0,0,3,4,0,4,0,12,0,12,0,,,,,,,,,,,,,,,,,691.8916506003588,None,692.6751411003061,693.2754265000112,693.2589420001023,695.2598949000239,None,1,0.6136390194296837,2.614647519774735,decreament,0.6,41,standard,None,100,,,,,,,,f,26,210,fr,r,0,raw,2022-05-23_10h14.44.819,oddball,2022.1.2,60.22543582920714,
20,,,,,0,0,0,3,4,0,4,0,13,0,13,0,,,,,,,,,,,,,,,,,695.2761968001723,None,695.8934731003828,696.4933686000295,696.4769751001149,698.4774727001786,None,1,0.611395719461143,2.6118127196095884,decreament,0.6,41,standard,None,100,,,,,,,,f,26,210,fr,r,0,raw,2022-05-23_10h14.44.819,oddball,2022.1.2,60.22543582920714,
20,,,,,0,0,0,3,4,0,4,0,14,0,14,0,,,,,,,,,,,,,,,,,698.4942340999842,None,699.1445997999981,699.7446007002145,699.7280292003416,701.728525900282,None,1,0.6087361201643944,2.6092047202400863,decreament,0.6,41,standard,None,100,,,,,,,,f,26,210,fr,r,0,raw,2022-05-23_10h14.44.819,oddball,2022.1.2,60.22543582920714,
20,,,,,0,0,0,3,4,0,4,0,15,0,15,0,,,,,,,,,,,,,,,,,701.7452782001346,None,702.5456036003307,703.1458654003218,703.1290978002362,705.1301005999558,None,1,0.612388419918716,2.6134652202017605,decreament,0.6,41,standard,None,100,,,,,,,,f,26,210,fr,r,0,raw,2022-05-23_10h14.44.819,oddball,2022.1.2,60.22543582920714,
20,,,,,0,0,0,3,4,0,4,0,16,0,16,0,,,,,,,,,,,,,,,,,705.1478216000833,None,705.7973434999585,706.397694000043,706.3807544000447,708.3811731003225,None,1,0.612112520262599,2.6124677201732993,decreament,0.6,41,standard,None,100,,,,,,,,f,26,210,fr,r,0,raw,2022-05-23_10h14.44.819,oddball,2022.1.2,60.22543582920714,
20,,,,,0,0,0,3,4,0,4,0,17,0,17,0,,,,,,,,,,,,,,,,,708.3981524999253,None,709.165095299948,709.765091100242,709.7484029000625,711.7493948000483,None,1,0.6119695198722184,2.6130088199861348,decreament,0.6,41,standard,None,100,,,,,,,,f,26,210,fr,r,0,raw,2022-05-23_10h14.44.819,oddball,2022.1.2,60.22543582920714,
20,,,,,0,0,0,3,4,0,4,0,18,0,18,0,,,,,,,,,,,,,,,,,711.76590030035,None,712.3998088003136,712.6495273001492,712.6161239999346,714.6166994003579,j,1,0.24346761964261532,2.2440062197856605,decreament,0.24,42,oddball,j,40,0.5140610998496413,,,,,,,f,26,210,fr,r,0,raw,2022-05-23_10h14.44.819,oddball,2022.1.2,60.22543582920714,
20,,,,,0,0,0,3,4,0,4,0,19,0,19,0,,,,,,,,,,,,,,,,,714.6333898003213,None,715.167158300057,715.7672870000824,715.7506478000432,717.7515211999416,None,1,0.6126429196447134,2.613552319817245,decreament,0.6,41,standard,None,100,,,,,,,,f,26,210,fr,r,0,raw,2022-05-23_10h14.44.819,oddball,2022.1.2,60.22543582920714,
20,,,,,0,0,0,3,4,0,4,0,20,0,20,0,,,,,,,,,,,,,,,,,717.7682611001655,None,718.5850446000695,719.1852175001986,719.1686786003411,721.1692548999563,None,1,0.6118956203572452,2.6124468203634024,decreament,0.6,41,standard,None,100,,,,,,,,f,26,210,fr,r,0,raw,2022-05-23_10h14.44.819,oddball,2022.1.2,60.22543582920714,
20,,,,,0,0,0,3,4,0,4,0,21,0,21,0,,,,,,,,,,,,,,,,,721.1863564001396,None,721.7694459999911,722.369839400053,722.3535563000478,724.3537300000899,None,1,0.6144103198312223,2.6145301195792854,decreament,0.6,41,standard,None,100,,,,,,,,f,26,210,fr,r,0,raw,2022-05-23_10h14.44.819,oddball,2022.1.2,60.22543582920714,
20,,,,,0,0,0,3,4,0,4,0,22,0,22,0,,,,,,,,,,,,,,,,,724.3705727001652,None,725.0880901003256,725.6878150999546,725.6713560000062,727.6719202999957,None,1,0.6096500200219452,2.6101380200125277,decreament,0.6,41,standard,None,100,,,,,,,,f,26,210,fr,r,0,raw,2022-05-23_10h14.44.819,oddball,2022.1.2,60.22543582920714,
20,,,,,0,0,0,3,4,0,4,0,23,0,23,0,,,,,,,,,,,,,,,,,727.6884882003069,None,728.2553862999193,728.6224793000147,728.5888534002006,730.5899197999388,j,1,0.36221212055534124,2.3633238202892244,decreament,0.36,43,oddball,j,60,0.6517568998970091,,,,,,,f,26,210,fr,r,0,raw,2022-05-23_10h14.44.819,oddball,2022.1.2,60.22543582920714,
20,,,,,0,0,0,3,4,0,4,0,24,0,24,0,,,,,,,,,,,,,,,,,730.6063259001821,None,731.4238649001345,732.0239850999787,732.0071064000949,734.007618600037,None,1,0.6095781205222011,2.610033720266074,decreament,0.6,41,standard,None,100,,,,,,,,f,26,210,fr,r,0,raw,2022-05-23_10h14.44.819,oddball,2022.1.2,60.22543582920714,
20,,,,,0,0,0,3,4,0,4,0,25,0,25,0,,,,,,,,,,,,,,,,,734.0241777002811,None,734.7580943000503,735.3578846999444,735.3415471003391,737.3420247002505,None,1,0.6116066197864711,2.6120834196917713,decreament,0.6,41,standard,None,100,,,,,,,,f,26,210,fr,r,0,raw,2022-05-23_10h14.44.819,oddball,2022.1.2,60.22543582920714,
20,,,,,0,0,0,3,4,0,4,0,26,0,26,0,,,,,,,,,,,,,,,,,737.3590395003557,None,737.9590569003485,738.5592200001702,738.5431160000153,740.543927800376,j,0,0.6133471196517348,2.614147619344294,decreament,0.6,41,standard,None,100,0.8750345995649695,,,,,,,f,26,210,fr,r,0,raw,2022-05-23_10h14.44.819,oddball,2022.1.2,60.22543582920714,
20,,,,,0,0,0,3,4,0,4,0,27,0,27,0,,,,,,,,,,,,,,,,,740.5612400001846,None,741.1434932001866,741.7437586002052,741.7276842002757,743.7277748002671,None,1,0.6126824198290706,2.612691219896078,decreament,0.6,41,standard,None,100,,,,,,,,f,26,210,fr,r,0,raw,2022-05-23_10h14.44.819,oddball,2022.1.2,60.22543582920714,
20,,,,,0,0,0,3,4,0,4,0,28,0,28,0,,,,,,,,,,,,,,,,,743.7444532001391,None,744.3951326999813,744.9949060003273,744.9785051001236,746.9793938002549,None,1,0.611495119985193,2.612411019857973,decreament,0.6,41,standard,None,100,,,,,,,,f,26,210,fr,r,0,raw,2022-05-23_10h14.44.819,oddball,2022.1.2,60.22543582920714,
20,,,,,0,0,0,3,4,0,4,0,29,0,29,0,,,,,,,,,,,,,,,,,746.9957305002026,None,747.5460366001353,748.1460195002146,748.1294913003221,750.1305070002563,None,1,0.6134437201544642,2.6145125199109316,decreament,0.6,41,standard,None,100,,,,,,,,f,26,210,fr,r,0,raw,2022-05-23_10h14.44.819,oddball,2022.1.2,60.22543582920714,
20,,,,,0,0,0,3,5,0,5,0,0,0,0,0,,,,,,,,,,,,,,,752.0191343999468,None,755.03235949995,None,755.8490651003085,756.4498292002827,756.4332944001071,758.4337234003469,None,1,0.6119547202251852,2.6123890201561153,increament,0.6,45,standard,None,100,,750.1472748001106,None,,,,,f,26,210,fr,r,0,raw,2022-05-23_10h14.44.819,oddball,2022.1.2,60.22543582920714,
20,,,,,0,0,0,3,5,0,5,0,1,0,1,0,,,,,,,,,,,,,,,,,758.4521444002166,None,759.1670133001171,759.7674529002979,759.7511736000888,761.7516987002455,None,1,0.6129817203618586,2.613474120385945,increament,0.6,45,standard,None,100,,,,,,,,f,26,210,fr,r,0,raw,2022-05-23_10h14.44.819,oddball,2022.1.2,60.22543582920714,
20,,,,,0,0,0,3,5,0,5,0,2,0,2,0,,,,,,,,,,,,,,,,,761.768256700132,None,762.4187296000309,763.0188245000318,763.0020992001519,765.0026799002662,None,1,0.6117085199803114,2.612232720013708,increament,0.6,45,standard,None,100,,,,,,,,f,26,210,fr,r,0,raw,2022-05-23_10h14.44.819,oddball,2022.1.2,60.22543582920714,
20,,,,,0,0,0,3,5,0,5,0,3,0,3,0,,,,,,,,,,,,,,,,,765.0195729001425,None,765.6531794001348,766.2536675999872,766.2367773000151,768.2376534002833,None,1,0.6096213199198246,2.610541319940239,increament,0.6,45,standard,None,100,,,,,,,,f,26,210,fr,r,0,raw,2022-05-23_10h14.44.819,oddball,2022.1.2,60.22543582920714,
20,,,,,0,0,0,3,5,0,5,0,4,0,4,0,,,,,,,,,,,,,,,,,768.2551259002648,None,768.8874027002603,769.4879856002517,769.4712641001679,771.4717139001004,None,1,0.6119165201671422,2.612317820545286,increament,0.6,45,standard,None,100,,,,,,,,f,26,210,fr,r,0,raw,2022-05-23_10h14.44.819,oddball,2022.1.2,60.22543582920714,
20,,,,,0,0,0,3,5,0,5,0,5,0,5,0,,,,,,,,,,,,,,,,,771.4885007999837,None,772.0722818002105,772.6723394002765,772.6556946001947,774.6566528002732,None,1,0.6095746196806431,2.610584619920701,increament,0.6,45,standard,None,100,,,,,,,,f,26,210,fr,r,0,raw,2022-05-23_10h14.44.819,oddball,2022.1.2,60.22543582920714,
20,,,,,0,0,0,3,5,0,5,0,6,0,6,0,,,,,,,,,,,,,,,,,774.6728099002503,None,775.3903687000275,775.9900023001246,775.9734342000447,777.9744176003151,None,1,0.6092596198432148,2.6102649201638997,increament,0.6,45,standard,None,100,,,,,,,,f,26,210,fr,r,0,raw,2022-05-23_10h14.44.819,oddball,2022.1.2,60.22543582920714,
20,,,,,0,0,0,3,5,0,5,0,7,0,7,0,,,,,,,,,,,,,,,,,777.9908761000261,None,778.6581522999331,779.2582760001533,779.2419119002298,781.2423195000738,None,1,0.6098956200294197,2.6102695199660957,increament,0.6,45,standard,None,100,,,,,,,,f,26,210,fr,r,0,raw,2022-05-23_10h14.44.819,oddball,2022.1.2,60.22543582920714,
20,,,,,0,0,0,3,5,0,5,0,8,0,8,0,,,,,,,,,,,,,,,,,781.2589120003395,None,781.9423128003255,782.7930319001898,782.7593777002767,784.7599784000777,None,0,0.847299019806087,2.8478688201867044,increament,0.84,47,oddball,j,140,,,,,,,,f,26,210,fr,r,0,raw,2022-05-23_10h14.44.819,oddball,2022.1.2,60.22543582920714,
20,,,,,0,0,0,3,5,0,5,0,9,0,9,0,,,,,,,,,,,,,,,,,784.7769041000865,None,785.4108273000456,786.0109414001927,785.9941262002103,787.9947419003583,None,1,0.6114005199633539,2.6120359199121594,increament,0.6,45,standard,None,100,,,,,,,,f,26,210,fr,r,0,raw,2022-05-23_10h14.44.819,oddball,2022.1.2,60.22543582920714,
20,,,,,0,0,0,3,5,0,5,0,10,0,10,0,,,,,,,,,,,,,,,,,788.0115796001628,None,788.5621413001791,789.1620396999642,789.1457775002345,791.1458831001073,None,1,0.6103511201217771,2.610316920094192,increament,0.6,45,standard,None,100,,,,,,,,f,26,210,fr,r,0,raw,2022-05-23_10h14.44.819,oddball,2022.1.2,60.22543582920714,
20,,,,,0,0,0,3,5,0,5,0,11,0,11,0,,,,,,,,,,,,,,,,,791.1626747003756,None,791.7630552002229,792.3630973999389,792.3463294999674,794.3471540999599,None,1,0.6115547199733555,2.612379419617355,increament,0.6,45,standard,None,100,,,,,,,,f,26,210,fr,r,0,raw,2022-05-23_10h14.44.819,oddball,2022.1.2,60.22543582920714,
20,,,,,0,0,0,3,5,0,5,0,12,0,12,0,,,,,,,,,,,,,,,,,794.3638782002963,None,794.9809977002442,795.5812662001699,795.5644024000503,797.5652264002711,None,1,0.6115486198104918,2.612388619687408,increament,0.6,45,standard,None,100,,,,,,,,f,26,210,fr,r,0,raw,2022-05-23_10h14.44.819,oddball,2022.1.2,60.22543582920714,
20,,,,,0,0,0,3,5,0,5,0,13,0,13,0,,,,,,,,,,,,,,,,,797.5816597002558,None,798.1987331002019,798.7987122000195,798.7820697003044,800.7830583001487,None,1,0.6104960204102099,2.611539320088923,increament,0.6,45,standard,None,100,,,,,,,,f,26,210,fr,r,0,raw,2022-05-23_10h14.44.819,oddball,2022.1.2,60.22543582920714,
20,,,,,0,0,0,3,5,0,5,0,14,0,14,0,,,,,,,,,,,,,,,,,800.7996633001603,None,801.4168352000415,802.0165772000328,802.0002333000302,804.0008930000477,None,1,0.6108261197805405,2.6114916196092963,increament,0.6,45,standard,None,100,,,,,,,,f,26,210,fr,r,0,raw,2022-05-23_10h14.44.819,oddball,2022.1.2,60.22543582920714,
20,,,,,0,0,0,3,5,0,5,0,15,0,15,0,,,,,,,,,,,,,,,,,804.0178859001026,None,804.6345180002972,805.2345977001823,805.2180264000781,807.2184879002161,None,1,0.6094792196527123,2.6099241194315255,increament,0.6,45,standard,None,100,,,,,,,,f,26,210,fr,r,0,raw,2022-05-23_10h14.44.819,oddball,2022.1.2,60.22543582920714,
20,,,,,0,0,0,3,5,0,5,0,16,0,16,0,,,,,,,,,,,,,,,,,807.2355416002683,None,807.9191568000242,808.5191430002451,808.5026150001213,810.5031616999768,j,0,0.6097684199921787,2.6102922200225294,increament,0.6,45,standard,None,100,0.6595477997325361,,,,,,,f,26,210,fr,r,0,raw,2022-05-23_10h14.44.819,oddball,2022.1.2,60.22543582920714,
20,,,,,0,0,0,3,5,0,5,0,17,0,17,0,,,,,,,,,,,,,,,,,810.5196879003197,None,811.2039547003806,811.8039717003703,811.7872707000934,813.788123300299,None,1,0.6094212201423943,2.6103042201139033,increament,0.6,45,standard,None,100,,,,,,,,f,26,210,fr,r,0,raw,2022-05-23_10h14.44.819,oddball,2022.1.2,60.22543582920714,
20,,,,,0,0,0,3,5,0,5,0,18,0,18,0,,,,,,,,,,,,,,,,,813.8056238000281,None,814.4046942000277,815.0050157001242,814.9884188002907,816.9890393000096,None,1,0.6137722195126116,2.614423019811511,increament,0.6,45,standard,None,100,,,,,,,,f,26,210,fr,r,0,raw,2022-05-23_10h14.44.819,oddball,2022.1.2,60.22543582920714,
20,,,,,0,0,0,3,5,0,5,0,19,0,19,0,,,,,,,,,,,,,,,,,817.0058419001289,None,817.5725372000597,818.1727109001949,818.1562089002691,820.1570060001686,j,0,0.6113207200542092,2.612207119818777,increament,0.6,45,standard,None,100,0.38121739961206913,,,,,,,f,26,210,fr,r,0,raw,2022-05-23_10h14.44.819,oddball,2022.1.2,60.22543582920714,
20,,,,,0,0,0,3,5,0,5,0,20,0,20,0,,,,,,,,,,,,,,,,,820.1735760001466,None,820.7907783002593,821.3907199003734,821.374457700178,823.3747709002346,j,0,0.6119701201096177,2.612283519934863,increament,0.6,45,standard,None,100,0.7546649998985231,,,,,,,f,26,210,fr,r,0,raw,2022-05-23_10h14.44.819,oddball,2022.1.2,60.22543582920714,
20,,,,,0,0,0,3,5,0,5,0,21,0,21,0,,,,,,,,,,,,,,,,,823.3911207001656,None,824.1254958002828,824.7254909002222,824.7087789000943,826.7093601003289,None,1,0.6103977202437818,2.6109527200460434,increament,0.6,45,standard,None,100,,,,,,,,f,26,210,fr,r,0,raw,2022-05-23_10h14.44.819,oddball,2022.1.2,60.22543582920714,
20,,,,,0,0,0,3,5,0,5,0,22,0,22,0,,,,,,,,,,,,,,,,,826.7260325001553,None,827.2928030001931,827.8932401002385,827.8767329999246,829.8771802000701,j,0,0.6131530199199915,2.6133306198753417,increament,0.6,45,standard,None,100,0.43589739967137575,,,,,,,f,26,210,fr,r,0,raw,2022-05-23_10h14.44.819,oddball,2022.1.2,60.22543582920714,
20,,,,,0,0,0,3,5,0,5,0,23,0,23,0,,,,,,,,,,,,,,,,,829.8943301001564,None,830.444198100362,831.0443531000055,831.0277708000503,833.0285660000518,j,0,0.6126993196085095,2.613533719908446,increament,0.6,45,standard,None,100,0.49344709934666753,,,,,,,f,26,210,fr,r,0,raw,2022-05-23_10h14.44.819,oddball,2022.1.2,60.22543582920714,
20,,,,,0,0,0,3,5,0,5,0,24,0,24,0,,,,,,,,,,,,,,,,,833.0452943001874,None,833.6951198000461,834.6627616002224,834.6294039003551,836.629938500002,j,1,0.9640802200883627,2.9645946198143065,increament,0.96,48,oddball,j,160,0.4446577997878194,,,,,,,f,26,210,fr,r,0,raw,2022-05-23_10h14.44.819,oddball,2022.1.2,60.22543582920714,
20,,,,,0,0,0,3,5,0,5,0,25,0,25,0,,,,,,,,,,,,,,,,,836.646498200018,None,837.3135645999573,837.9135377001949,837.8968556001782,839.8979541999288,None,1,0.6105063203722239,2.6116624204441905,increament,0.6,45,standard,None,100,,,,,,,,f,26,210,fr,r,0,raw,2022-05-23_10h14.44.819,oddball,2022.1.2,60.22543582920714,
20,,,,,0,0,0,3,5,0,5,0,26,0,26,0,,,,,,,,,,,,,,,,,839.9143798002042,None,840.5317776002921,841.1317688999698,841.1149609000422,843.115894400049,None,1,0.6096953204832971,2.6107867201790214,increament,0.6,45,standard,None,100,,,,,,,,f,26,210,fr,r,0,raw,2022-05-23_10h14.44.819,oddball,2022.1.2,60.22543582920714,
20,,,,,0,0,0,3,5,0,5,0,27,0,27,0,,,,,,,,,,,,,,,,,843.1325456001796,None,843.949315099977,844.5493423999287,844.5327753000893,846.5335654001683,None,1,0.6102304202504456,2.6110573201440275,increament,0.6,45,standard,None,100,,,,,,,,f,26,210,fr,r,0,raw,2022-05-23_10h14.44.819,oddball,2022.1.2,60.22543582920714,
20,,,,,0,0,0,3,5,0,5,0,28,0,28,0,,,,,,,,,,,,,,,,,846.5502344002016,None,847.3338172999211,847.9340059999377,847.9171604001895,849.9181474000216,None,1,0.6139173205010593,2.6149340202100575,increament,0.6,45,standard,None,100,,,,,,,,f,26,210,fr,r,0,raw,2022-05-23_10h14.44.819,oddball,2022.1.2,60.22543582920714,
20,,,,,0,0,0,3,5,0,5,0,29,0,29,0,,,,,,,,,,,,,,,,,849.9348945003003,None,850.5184070002288,851.2519423002377,851.2185889999382,853.2197156003676,None,0,0.7297684201039374,2.7309429203160107,increament,0.72,46,oddball,j,120,,,,,,,,f,26,210,fr,r,0,raw,2022-05-23_10h14.44.819,oddball,2022.1.2,60.22543582920714,
20,,,,,0,0,0,3,6,0,6,0,0,0,0,0,,,,,,,,,,,,,,,856.7447065003216,None,859.6551187001169,None,860.3053429001011,860.905647400301,860.8890673001297,862.8896444002166,None,1,0.6122477198950946,2.612836019601673,decreament,0.6,41,standard,None,100,,853.2365586999804,None,,,,,f,26,210,fr,r,0,raw,2022-05-23_10h14.44.819,oddball,2022.1.2,60.22543582920714,
20,,,,,0,0,0,3,6,0,6,0,1,0,1,0,,,,,,,,,,,,,,,,,862.9071594001725,None,863.5398969999515,864.1401782003231,864.1236944003031,866.1242595999502,None,1,0.6107727200724185,2.611328720115125,decreament,0.6,41,standard,None,100,,,,,,,,f,26,210,fr,r,0,raw,2022-05-23_10h14.44.819,oddball,2022.1.2,60.22543582920714,
20,,,,,0,0,0,3,6,0,6,0,2,0,2,0,,,,,,,,,,,,,,,,,866.1410284000449,None,866.9412483000197,867.5415521999821,867.5252213003114,869.5255833002739,None,1,0.6137206200510263,2.614034519996494,decreament,0.6,41,standard,None,100,,,,,,,,f,26,210,fr,r,0,raw,2022-05-23_10h14.44.819,oddball,2022.1.2,60.22543582920714,
20,,,,,0,0,0,3,6,0,6,0,3,0,3,0,,,,,,,,,,,,,,,,,869.5422580000013,None,870.2596229002811,870.8596813003533,870.8428672002628,872.8436608002521,None,1,0.6123395198956132,2.6131301200948656,decreament,0.6,41,standard,None,100,,,,,,,,f,26,210,fr,r,0,raw,2022-05-23_10h14.44.819,oddball,2022.1.2,60.22543582920714,
20,,,,,0,0,0,3,6,0,6,0,4,0,4,0,,,,,,,,,,,,,,,,,872.8603088003583,None,873.4437454002909,874.0442428002134,874.0274457000196,876.027835899964,None,1,0.6118614198639989,2.6121700196526945,decreament,0.6,41,standard,None,100,,,,,,,,f,26,210,fr,r,0,raw,2022-05-23_10h14.44.819,oddball,2022.1.2,60.22543582920714,
20,,,,,0,0,0,3,6,0,6,0,5,0,5,0,,,,,,,,,,,,,,,,,876.044874000363,None,876.6450458001345,877.2451073001139,877.2283491003327,879.2291061002761,None,1,0.6126416199840605,2.613417519722134,decreament,0.6,41,standard,None,100,,,,,,,,f,26,210,fr,r,0,raw,2022-05-23_10h14.44.819,oddball,2022.1.2,60.22543582920714,
20,,,,,0,0,0,3,6,0,6,0,6,0,6,0,,,,,,,,,,,,,,,,,879.2460783999413,None,879.8465780001134,880.4463051999919,880.4297696002759,882.4304741001688,None,1,0.6124204201623797,2.6131420200690627,decreament,0.6,41,standard,None,100,,,,,,,,f,26,210,fr,r,0,raw,2022-05-23_10h14.44.819,oddball,2022.1.2,60.22543582920714,
20,,,,,0,0,0,3,6,0,6,0,7,0,7,0,,,,,,,,,,,,,,,,,882.4470844999887,None,883.0641515003517,883.6642841999419,883.6475964002311,885.6485941000283,None,1,0.6123326197266579,2.613372619729489,decreament,0.6,41,standard,None,100,,,,,,,,f,26,210,fr,r,0,raw,2022-05-23_10h14.44.819,oddball,2022.1.2,60.22543582920714,
20,,,,,0,0,0,3,6,0,6,0,8,0,8,0,,,,,,,,,,,,,,,,,885.6651214002632,None,886.3151875003241,886.9153784001246,886.8989953999408,888.899534100201,None,1,0.6131098200567067,2.6136688198894262,decreament,0.6,41,standard,None,100,,,,,,,,f,26,210,fr,r,0,raw,2022-05-23_10h14.44.819,oddball,2022.1.2,60.22543582920714,
20,,,,,0,0,0,3,6,0,6,0,9,0,9,0,,,,,,,,,,,,,,,,,888.9165290999226,None,889.5331427999772,890.1332013001665,890.1167003000155,892.1176157002337,None,1,0.6121386201120913,2.6131424200721085,decreament,0.6,41,standard,None,100,,,,,,,,f,26,210,fr,r,0,raw,2022-05-23_10h14.44.819,oddball,2022.1.2,60.22543582920714,
20,,,,,0,0,0,3,6,0,6,0,10,0,10,0,,,,,,,,,,,,,,,,,892.1340844002552,None,892.8843701002188,893.4847661000676,893.4685701001436,895.468796600122,None,1,0.6136054201051593,2.61374672036618,decreament,0.6,41,standard,None,100,,,,,,,,f,26,210,fr,r,0,raw,2022-05-23_10h14.44.819,oddball,2022.1.2,60.22543582920714,
20,,,,,0,0,0,3,6,0,6,0,11,0,11,0,,,,,,,,,,,,,,,,,895.4853742001578,None,896.0524349003099,896.6524319001473,896.6358336000703,898.6367202000692,j,0,0.6101060197688639,2.6110596200451255,decreament,0.6,41,standard,None,100,0.6616506995633245,,,,,,,f,26,210,fr,r,0,raw,2022-05-23_10h14.44.819,oddball,2022.1.2,60.22543582920714,
20,,,,,0,0,0,3,6,0,6,0,12,0,12,0,,,,,,,,,,,,,,,,,898.6531938002445,None,899.3869704003446,899.9870240003802,899.970272900071,901.9709538002498,None,1,0.613151119556278,2.6138032195158303,decreament,0.6,41,standard,None,100,,,,,,,,f,26,210,fr,r,0,raw,2022-05-23_10h14.44.819,oddball,2022.1.2,60.22543582920714,
20,,,,,0,0,0,3,6,0,6,0,13,0,13,0,,,,,,,,,,,,,,,,,901.9879364999942,None,902.7046218002215,903.305128400214,903.2886196002364,905.2896130001172,None,1,0.6140965200029314,2.6151143200695515,decreament,0.6,41,standard,None,100,,,,,,,,f,26,210,fr,r,0,raw,2022-05-23_10h14.44.819,oddball,2022.1.2,60.22543582920714,
20,,,,,0,0,0,3,6,0,6,0,14,0,14,0,,,,,,,,,,,,,,,,,905.3063388001174,None,905.9728391002864,906.573134300299,906.5570396003313,908.5574280000292,j,0,0.612097519915551,2.6124673201702535,decreament,0.6,41,standard,None,100,0.45106449956074357,,,,,,,f,26,210,fr,r,0,raw,2022-05-23_10h14.44.819,oddball,2022.1.2,60.22543582920714,
20,,,,,0,0,0,3,6,0,6,0,15,0,15,0,,,,,,,,,,,,,,,,,908.5737785999663,None,909.274176100269,909.8744727000594,909.8576593003236,911.8588302000426,None,1,0.6097326199524105,2.6109560197219253,decreament,0.6,41,standard,None,100,,,,,,,,f,26,210,fr,r,0,raw,2022-05-23_10h14.44.819,oddball,2022.1.2,60.22543582920714,
20,,,,,0,0,0,3,6,0,6,0,16,0,16,0,,,,,,,,,,,,,,,,,911.8747244002298,None,912.4083307003602,913.0085447002202,912.9922116999514,914.9928741999902,None,1,0.613291319925338,2.613963520154357,decreament,0.6,41,standard,None,100,,,,,,,,f,26,210,fr,r,0,raw,2022-05-23_10h14.44.819,oddball,2022.1.2,60.22543582920714,
20,,,,,0,0,0,3,6,0,6,0,17,0,17,0,,,,,,,,,,,,,,,,,915.0095545002259,None,915.6595616000704,916.2598538999446,916.2431113002822,918.2442846000195,j,0,0.6129382201470435,2.61424012016505,decreament,0.6,41,standard,None,100,0.7898582997731864,,,,,,,f,26,210,fr,r,0,raw,2022-05-23_10h14.44.819,oddball,2022.1.2,60.22543582920714,
20,,,,,0,0,0,3,6,0,6,0,18,0,18,0,,,,,,,,,,,,,,,,,918.2605916000903,None,918.8943799999543,919.1445637000725,919.1109718000516,921.1122020999901,j,1,0.24563342006877065,2.2469290201552212,decreament,0.24,42,oddball,j,40,0.9140286999754608,,,,,,,f,26,210,fr,r,0,raw,2022-05-23_10h14.44.819,oddball,2022.1.2,60.22543582920714,
20,,,,,0,0,0,3,6,0,6,0,19,0,19,0,,,,,,,,,,,,,,,,,921.1287454999983,None,921.7455373001285,922.345812200103,922.329172400292,924.3296039002016,None,1,0.6125465198419988,2.6129312198609114,decreament,0.6,41,standard,None,100,,,,,,,,f,26,210,fr,r,0,raw,2022-05-23_10h14.44.819,oddball,2022.1.2,60.22543582920714,
20,,,,,0,0,0,3,6,0,6,0,20,0,20,0,,,,,,,,,,,,,,,,,924.3463622001,None,924.9134554001503,925.5136820999905,925.4971370999701,927.4976300001144,None,1,0.6114893206395209,2.61196472030133,decreament,0.6,41,standard,None,100,,,,,,,,f,26,210,fr,r,0,raw,2022-05-23_10h14.44.819,oddball,2022.1.2,60.22543582920714,
20,,,,,0,0,0,3,6,0,6,0,21,0,21,0,,,,,,,,,,,,,,,,,927.5143462000415,None,928.1976993000135,928.7978675002232,928.7812189999968,930.7823899001814,None,1,0.6121265199035406,2.6133442199788988,decreament,0.6,41,standard,None,100,,,,,,,,f,26,210,fr,r,0,raw,2022-05-23_10h14.44.819,oddball,2022.1.2,60.22543582920714,
20,,,,,0,0,0,3,6,0,6,0,22,0,22,0,,,,,,,,,,,,,,,,,930.7988144000992,None,931.3323483001441,931.6990577001125,931.6657989001833,933.6668036002666,j,1,0.3632142199203372,2.3642342197708786,decreament,0.36,43,oddball,j,60,1.4390285992994905,,,,,,,f,26,210,fr,r,0,raw,2022-05-23_10h14.44.819,oddball,2022.1.2,60.22543582920714,
20,,,,,0,0,0,3,6,0,6,0,23,0,23,0,,,,,,,,,,,,,,,,,933.6831996999681,None,934.3833822002634,934.983681099955,934.9673116002232,936.9678277000785,None,1,0.6122607202269137,2.612724820151925,decreament,0.6,41,standard,None,100,,,,,,,,f,26,210,fr,r,0,raw,2022-05-23_10h14.44.819,oddball,2022.1.2,60.22543582920714,
20,,,,,0,0,0,3,6,0,6,0,24,0,24,0,,,,,,,,,,,,,,,,,936.9847033000551,None,937.5343665000983,938.134836200159,938.1184266000055,940.1190637000836,None,1,0.6145368199795485,2.615231619682163,decreament,0.6,41,standard,None,100,,,,,,,,f,26,210,fr,r,0,raw,2022-05-23_10h14.44.819,oddball,2022.1.2,60.22543582920714,
20,,,,,0,0,0,3,6,0,6,0,25,0,25,0,,,,,,,,,,,,,,,,,940.1362223001197,None,940.7528062001802,941.3528180001304,941.3361420999281,943.3370695002377,None,1,0.6112839197739959,2.6122348196804523,decreament,0.6,41,standard,None,100,,,,,,,,f,26,210,fr,r,0,raw,2022-05-23_10h14.44.819,oddball,2022.1.2,60.22543582920714,
20,,,,,0,0,0,3,6,0,6,0,26,0,26,0,,,,,,,,,,,,,,,,,943.3551521999761,None,944.0376566001214,944.6374894003384,944.6209732000716,946.6219231002033,None,1,0.6109276199713349,2.6119436197914183,decreament,0.6,41,standard,None,100,,,,,,,,f,26,210,fr,r,0,raw,2022-05-23_10h14.44.819,oddball,2022.1.2,60.22543582920714,
20,,,,,0,0,0,3,6,0,6,0,27,0,27,0,,,,,,,,,,,,,,,,,946.63820330007,None,947.1885188999586,947.6716583999805,947.6387394000776,949.6392969000153,j,1,0.4793621194548905,2.47989521920681,decreament,0.48,44,oddball,j,80,1.9695037994533777,,,,,,,f,26,210,fr,r,0,raw,2022-05-23_10h14.44.819,oddball,2022.1.2,60.22543582920714,
20,,,,,0,0,0,3,6,0,6,0,28,0,28,0,,,,,,,,,,,,,,,,,949.6557916002348,None,950.2894320003688,950.889910500031,950.8733544000424,952.8739511002786,None,1,0.6136237201280892,2.614214519970119,decreament,0.6,41,standard,None,100,,,,,,,,f,26,210,fr,r,0,raw,2022-05-23_10h14.44.819,oddball,2022.1.2,60.22543582920714,
20,,,,,0,0,0,3,6,0,6,0,29,0,29,0,,,,,,,,,,,,,,,,,952.890923100058,None,953.5407644002698,954.1410241001286,954.1248298999853,956.1249855002388,None,1,0.6132262200117111,2.61329801985994,decreament,0.6,41,standard,None,100,,,,,,,,f,26,210,fr,r,0,raw,2022-05-23_10h14.44.819,oddball,2022.1.2,60.22543582920714,
20,,,,,0,0,0,3,7,0,7,0,0,0,0,0,,,,,,,,,,,,,,,967.4189876001328,None,968.6130590001121,None,969.3636595001444,969.9638278000057,969.9472203999758,971.9475720999762,None,1,0.6098681199364364,2.6101776198484004,increament,0.6,45,standard,None,100,,956.1418866002932,None,,,,,f,26,210,fr,r,0,raw,2022-05-23_10h14.44.819,oddball,2022.1.2,60.22543582920714,
20,,,,,0,0,0,3,7,0,7,0,1,0,1,0,,,,,,,,,,,,,,,,,971.9644145001657,None,972.5145573001355,973.1147505003028,973.0981340999715,975.098899200093,None,1,0.6114495201036334,2.6122291199862957,increament,0.6,45,standard,None,100,,,,,,,,f,26,210,fr,r,0,raw,2022-05-23_10h14.44.819,oddball,2022.1.2,60.22543582920714,
20,,,,,0,0,0,3,7,0,7,0,2,0,2,0,,,,,,,,,,,,,,,,,975.1156991003081,None,975.682470000349,976.282944700215,976.2661802000366,978.2670565000735,None,1,0.6121716201305389,2.6131242201663554,increament,0.6,45,standard,None,100,,,,,,,,f,26,210,fr,r,0,raw,2022-05-23_10h14.44.819,oddball,2022.1.2,60.22543582920714,
20,,,,,0,0,0,3,7,0,7,0,3,0,3,0,,,,,,,,,,,,,,,,,978.2833417002112,None,978.8838756000623,979.4838245999999,979.4676819001324,981.4682555003092,None,1,0.6106926202774048,2.6112207202240825,increament,0.6,45,standard,None,100,,,,,,,,f,26,210,fr,r,0,raw,2022-05-23_10h14.44.819,oddball,2022.1.2,60.22543582920714,
20,,,,,0,0,0,3,7,0,7,0,4,0,4,0,,,,,,,,,,,,,,,,,981.4845549003221,None,982.2184816002846,982.8189503001049,982.8020041002892,984.8024035999551,None,1,0.6127111199311912,2.613024619873613,increament,0.6,45,standard,None,100,,,,,,,,f,26,210,fr,r,0,raw,2022-05-23_10h14.44.819,oddball,2022.1.2,60.22543582920714,
20,,,,,0,0,0,3,7,0,7,0,5,0,5,0,,,,,,,,,,,,,,,,,984.8191377003677,None,985.5529293003492,986.4033973002806,986.3700389000587,988.3705573002808,None,0,0.8451029197312891,2.8451542197726667,increament,0.84,47,oddball,j,140,,,,,,,,f,26,210,fr,r,0,raw,2022-05-23_10h14.44.819,oddball,2022.1.2,60.22543582920714,
20,,,,,0,0,0,3,7,0,7,0,6,0,6,0,,,,,,,,,,,,,,,,,988.3871225002222,None,989.0208431002684,989.6209794003516,989.6043478003703,991.6053317002952,None,1,0.6108893197961152,2.611899619922042,increament,0.6,45,standard,None,100,,,,,,,,f,26,210,fr,r,0,raw,2022-05-23_10h14.44.819,oddball,2022.1.2,60.22543582920714,
20,,,,,0,0,0,3,7,0,7,0,7,0,7,0,,,,,,,,,,,,,,,,,991.6218453999609,None,992.2392878001556,992.8388926000334,992.822280399967,994.822940800339,None,1,0.6082565197721124,2.6088761198334396,increament,0.6,45,standard,None,100,,,,,,,,f,26,210,fr,r,0,raw,2022-05-23_10h14.44.819,oddball,2022.1.2,60.22543582920714,
20,,,,,0,0,0,3,7,0,7,0,8,0,8,0,,,,,,,,,,,,,,,,,994.8396153002977,None,995.4569288999774,996.0566974999383,996.0401842002757,998.0411570002325,None,1,0.6123661198653281,2.613386319950223,increament,0.6,45,standard,None,100,,,,,,,,f,26,210,fr,r,0,raw,2022-05-23_10h14.44.819,oddball,2022.1.2,60.22543582920714,
20,,,,,0,0,0,3,7,0,7,0,9,0,9,0,,,,,,,,,,,,,,,,,998.0576555002481,None,998.8080144003034,999.4079625001177,999.3919836003333,1001.3923965999857,None,1,0.6133748199790716,2.613744619768113,increament,0.6,45,standard,None,100,,,,,,,,f,26,210,fr,r,0,raw,2022-05-23_10h14.44.819,oddball,2022.1.2,60.22543582920714,
20,,,,,0,0,0,3,7,0,7,0,10,0,10,0,,,,,,,,,,,,,,,,,1001.4090815000236,None,1001.9758216002956,1002.7093009003438,1002.6761527000926,1004.6764095001854,j,1,0.7278915201313794,2.728142019826919,increament,0.72,46,oddball,j,120,0.8922128994017839,,,,,,,f,26,210,fr,r,0,raw,2022-05-23_10h14.44.819,oddball,2022.1.2,60.22543582920714,
20,,,,,0,0,0,3,7,0,7,0,11,0,11,0,,,,,,,,,,,,,,,,,1004.6929949000478,None,1005.4440516000614,1006.0440950002521,1006.0272782002576,1008.0285338000394,None,1,0.6118630198761821,2.6131675196811557,increament,0.6,45,standard,None,100,,,,,,,,f,26,210,fr,r,0,raw,2022-05-23_10h14.44.819,oddball,2022.1.2,60.22543582920714,
20,,,,,0,0,0,3,7,0,7,0,12,0,12,0,,,,,,,,,,,,,,,,,1008.0449172002263,None,1008.8785430002026,1009.478516000323,1009.4619708000682,1011.4630917003378,None,1,0.612293120007962,2.613472019787878,increament,0.6,45,standard,None,100,,,,,,,,f,26,210,fr,r,0,raw,2022-05-23_10h14.44.819,oddball,2022.1.2,60.22543582920714,
20,,,,,0,0,0,3,7,0,7,0,13,0,13,0,,,,,,,,,,,,,,,,,1011.4792080000043,None,1012.0627351999283,1012.663184300065,1012.6464420002885,1014.6471497002058,None,1,0.6125388196669519,2.6132234199903905,increament,0.6,45,standard,None,100,,,,,,,,f,26,210,fr,r,0,raw,2022-05-23_10h14.44.819,oddball,2022.1.2,60.22543582920714,
20,,,,,0,0,0,3,7,0,7,0,14,0,14,0,,,,,,,,,,,,,,,,,1014.663893900346,None,1015.2806537002325,1016.2475745002739,1016.2146081002429,1018.2152686999179,j,1,0.9613253204151988,2.9619722203351557,increament,0.96,48,oddball,j,160,0.39431099966168404,,,,,,,f,26,210,fr,r,0,raw,2022-05-23_10h14.44.819,oddball,2022.1.2,60.22543582920714,
20,,,,,0,0,0,3,7,0,7,0,15,0,15,0,,,,,,,,,,,,,,,,,1018.2318961001001,None,1018.7656845003366,1019.3654052000493,1019.3488601003774,1021.3498207000084,None,1,0.6075126198120415,2.6085195201449096,increament,0.6,45,standard,None,100,,,,,,,,f,26,210,fr,r,0,raw,2022-05-23_10h14.44.819,oddball,2022.1.2,60.22543582920714,
20,,,,,0,0,0,3,7,0,7,0,16,0,16,0,,,,,,,,,,,,,,,,,1021.3668362000026,None,1022.1168549000286,1022.7168395002373,1022.7003603000194,1024.7008771002293,None,1,0.6114709200337529,2.6119668199680746,increament,0.6,45,standard,None,100,,,,,,,,f,26,210,fr,r,0,raw,2022-05-23_10h14.44.819,oddball,2022.1.2,60.22543582920714,
20,,,,,0,0,0,3,7,0,7,0,17,0,17,0,,,,,,,,,,,,,,,,,1024.7179576000199,None,1025.3344918000512,1025.9350799000822,1025.918341200333,1027.9189540003426,None,1,0.6129260202869773,2.613521120045334,increament,0.6,45,standard,None,100,,,,,,,,f,26,210,fr,r,0,raw,2022-05-23_10h14.44.819,oddball,2022.1.2,60.22543582920714,
20,,,,,0,0,0,3,7,0,7,0,18,0,18,0,,,,,,,,,,,,,,,,,1027.9358116001822,None,1028.502689999994,1029.1026845001616,1029.08595290035,1031.0866602002643,None,1,0.611240420024842,2.6119342199526727,increament,0.6,45,standard,None,100,,,,,,,,f,26,210,fr,r,0,raw,2022-05-23_10h14.44.819,oddball,2022.1.2,60.22543582920714,
20,,,,,0,0,0,3,7,0,7,0,19,0,19,0,,,,,,,,,,,,,,,,,1031.1036278000101,None,1031.8206810001284,1032.4209286002442,1032.403904700186,1034.404890500009,j,0,0.6123050199821591,2.6133630201220512,increament,0.6,45,standard,None,100,1.21975509962067,,,,,,,f,26,210,fr,r,0,raw,2022-05-23_10h14.44.819,oddball,2022.1.2,60.22543582920714,
20,,,,,0,0,0,3,7,0,7,0,20,0,20,0,,,,,,,,,,,,,,,,,1034.4211971000768,None,1034.93824960012,1035.538596200291,1035.5218927003443,1037.5226604002528,j,0,0.6136708203703165,2.6143951201811433,increament,0.6,45,standard,None,100,0.9818813996389508,,,,,,,f,26,210,fr,r,0,raw,2022-05-23_10h14.44.819,oddball,2022.1.2,60.22543582920714,
20,,,,,0,0,0,3,7,0,7,0,21,0,21,0,,,,,,,,,,,,,,,,,1037.5391139001586,None,1038.189445400145,1038.7900956002995,1038.7733640000224,1040.7735282001086,None,1,0.6144622201099992,2.6146123204380274,increament,0.6,45,standard,None,100,,,,,,,,f,26,210,fr,r,0,raw,2022-05-23_10h14.44.819,oddball,2022.1.2,60.22543582920714,
20,,,,,0,0,0,3,7,0,7,0,22,0,22,0,,,,,,,,,,,,,,,,,1040.790546900127,None,1041.3742166999727,1041.9743315000087,1041.957734900061,1043.9582229000516,j,0,0.6129523203708231,2.613372720312327,increament,0.6,45,standard,None,100,0.9786915997974575,,,,,,,f,26,210,fr,r,0,raw,2022-05-23_10h14.44.819,oddball,2022.1.2,60.22543582920714,
20,,,,,0,0,0,3,7,0,7,0,23,0,23,0,,,,,,,,,,,,,,,,,1043.9747792002745,None,1044.725421300158,1045.3255585003644,1045.309288199991,1047.3095718999393,j,0,0.6126476200297475,2.6128582200035453,increament,0.6,45,standard,None,100,0.5063420995138586,,,,,,,f,26,210,fr,r,0,raw,2022-05-23_10h14.44.819,oddball,2022.1.2,60.22543582920714,
20,,,,,0,0,0,3,7,0,7,0,24,0,24,0,,,,,,,,,,,,,,,,,1047.3265577000566,None,1048.1604043003172,1048.7602498000488,1048.7437491002493,1050.744203099981,None,1,0.6098206201568246,2.6102250199764967,increament,0.6,45,standard,None,100,,,,,,,,f,26,210,fr,r,0,raw,2022-05-23_10h14.44.819,oddball,2022.1.2,60.22543582920714,
20,,,,,0,0,0,3,7,0,7,0,25,0,25,0,,,,,,,,,,,,,,,,,1050.7613278999925,None,1051.37805690011,1051.9777913000435,1051.9612020999193,1053.962206600234,None,1,0.609102220274508,2.610143519937992,increament,0.6,45,standard,None,100,,,,,,,,f,26,210,fr,r,0,raw,2022-05-23_10h14.44.819,oddball,2022.1.2,60.22543582920714,
20,,,,,0,0,0,3,7,0,7,0,26,0,26,0,,,,,,,,,,,,,,,,,1053.9788016001694,None,1054.512344100047,1055.1128118000925,1055.0956868003123,1057.0964441001415,None,1,0.6132570202462375,2.6139909201301634,increament,0.6,45,standard,None,100,,,,,,,,f,26,210,fr,r,0,raw,2022-05-23_10h14.44.819,oddball,2022.1.2,60.22543582920714,
20,,,,,0,0,0,3,7,0,7,0,27,0,27,0,,,,,,,,,,,,,,,,,1057.1134518999606,None,1057.7298658001237,1058.3302178001031,1058.3136860001832,1060.3148189000785,j,0,0.6123272203840315,2.6135113202035427,increament,0.6,45,standard,None,100,0.8311714995652437,,,,,,,f,26,210,fr,r,0,raw,2022-05-23_10h14.44.819,oddball,2022.1.2,60.22543582920714,
20,,,,,0,0,0,3,7,0,7,0,28,0,28,0,,,,,,,,,,,,,,,,,1060.3315195003524,None,1060.9817588999867,1061.5819050003774,1061.5648982999846,1063.5657830000855,None,1,0.6101858201436698,2.611077520530671,increament,0.6,45,standard,None,100,,,,,,,,f,26,210,fr,r,0,raw,2022-05-23_10h14.44.819,oddball,2022.1.2,60.22543582920714,
20,,,,,0,0,0,3,7,0,7,0,29,0,29,0,,,,,,,,,,,,,,,,,1063.58226700034,None,1064.1661535999738,1064.766392200254,1064.7498397999443,1066.7505078003742,None,1,0.6097416202537715,2.6104548200964928,increament,0.6,45,standard,None,100,,,,,,,,f,26,210,fr,r,0,raw,2022-05-23_10h14.44.819,oddball,2022.1.2,60.22543582920714,
20,,,,,0,0,0,3,8,0,8,0,0,0,0,0,,,,,,,,,,,,,,,1077.6439400003292,None,1098.1288757002912,None,1098.7456355001777,1099.346245400142,1099.3294578003697,1101.3299226001836,None,1,0.6094560199417174,2.6099302200600505,decreament,0.6,41,standard,None,100,,1066.7694363002665,None,,,,,f,26,210,fr,r,0,raw,2022-05-23_10h14.44.819,oddball,2022.1.2,60.22543582920714,
20,,,,,0,0,0,3,8,0,8,0,1,0,1,0,,,,,,,,,,,,,,,,,1101.3467365000397,None,1101.89674450038,1102.4969367999583,1102.4807881000452,1104.481055600103,None,1,0.6136191198602319,2.6138749197125435,decreament,0.6,41,standard,None,100,,,,,,,,f,26,210,fr,r,0,raw,2022-05-23_10h14.44.819,oddball,2022.1.2,60.22543582920714,
20,,,,,0,0,0,3,8,0,8,0,2,0,2,0,,,,,,,,,,,,,,,,,1104.498262600042,None,1105.198376300279,1105.7988183000125,1105.781872600317,1107.7823604000732,None,1,0.6117232199758291,2.612158919684589,decreament,0.6,41,standard,None,100,,,,,,,,f,26,210,fr,r,0,raw,2022-05-23_10h14.44.819,oddball,2022.1.2,60.22543582920714,
20,,,,,0,0,0,3,8,0,8,0,3,0,3,0,,,,,,,,,,,,,,,,,1107.7992199002765,None,1108.5162051003426,1109.11668560002,1109.099591600243,1111.1003127000295,None,1,0.6120905200950801,2.6128000202588737,decreament,0.6,41,standard,None,100,,,,,,,,f,26,210,fr,r,0,raw,2022-05-23_10h14.44.819,oddball,2022.1.2,60.22543582920714,
20,,,,,0,0,0,3,8,0,8,0,4,0,4,0,,,,,,,,,,,,,,,,,1111.1169769000262,None,1111.767342899926,1112.3675783001818,1112.3509364002384,1114.3517565000802,None,1,0.6112623196095228,2.612062919419259,decreament,0.6,41,standard,None,100,,,,,,,,f,26,210,fr,r,0,raw,2022-05-23_10h14.44.819,oddball,2022.1.2,60.22543582920714,
20,,,,,0,0,0,3,8,0,8,0,5,0,5,0,,,,,,,,,,,,,,,,,1114.3685269001871,None,1114.884900700301,1115.485704000108,1115.4690044000745,1117.4695456000045,None,1,0.6150531200692058,2.615548419766128,decreament,0.6,41,standard,None,100,,,,,,,,f,26,210,fr,r,0,raw,2022-05-23_10h14.44.819,oddball,2022.1.2,60.22543582920714,
20,,,,,0,0,0,3,8,0,8,0,6,0,6,0,,,,,,,,,,,,,,,,,1117.4861976001412,None,1118.0532836001366,1118.6529446002096,1118.6362245003693,1120.637780799996,None,1,0.6107666199095547,2.6124257198534906,decreament,0.6,41,standard,None,100,,,,,,,,f,26,210,fr,r,0,raw,2022-05-23_10h14.44.819,oddball,2022.1.2,60.22543582920714,
20,,,,,0,0,0,3,8,0,8,0,7,0,7,0,,,,,,,,,,,,,,,,,1120.6540843001567,None,1121.3876410000958,1121.9878201000392,1121.9713902003132,1123.9721942003816,None,1,0.6099522202275693,2.610818120185286,decreament,0.6,41,standard,None,100,,,,,,,,f,26,210,fr,r,0,raw,2022-05-23_10h14.44.819,oddball,2022.1.2,60.22543582920714,
20,,,,,0,0,0,3,8,0,8,0,8,0,8,0,,,,,,,,,,,,,,,,,1123.9884072002023,None,1124.6722357003018,1125.038792599924,1125.0059104003012,1127.0065773003735,j,1,0.3617151197977364,2.362453219946474,decreament,0.36,43,oddball,j,60,0.7619682997465134,,,,,,,f,26,210,fr,r,0,raw,2022-05-23_10h14.44.819,oddball,2022.1.2,60.22543582920714,
20,,,,,0,0,0,3,8,0,8,0,9,0,9,0,,,,,,,,,,,,,,,,,1127.023713900242,None,1127.6568656000309,1128.2569750002585,1128.2402783003636,1130.241024600342,None,1,0.6112942197360098,2.612038420047611,decreament,0.6,41,standard,None,100,,,,,,,,f,26,210,fr,r,0,raw,2022-05-23_10h14.44.819,oddball,2022.1.2,60.22543582920714,
20,,,,,0,0,0,3,8,0,8,0,10,0,10,0,,,,,,,,,,,,,,,,,1130.2580190002918,None,1130.9584496002644,1131.5580581002869,1131.5416391002946,1133.5426937001757,None,1,0.6112313200719655,2.612303419969976,decreament,0.6,41,standard,None,100,,,,,,,,f,26,210,fr,r,0,raw,2022-05-23_10h14.44.819,oddball,2022.1.2,60.22543582920714,
20,,,,,0,0,0,3,8,0,8,0,11,0,11,0,,,,,,,,,,,,,,,,,1133.5596853001043,None,1134.2759937001392,1134.8766427002847,1134.859780699946,1136.860135300085,None,1,0.6110770204104483,2.6113775204867125,decreament,0.6,41,standard,None,100,,,,,,,,f,26,210,fr,r,0,raw,2022-05-23_10h14.44.819,oddball,2022.1.2,60.22543582920714,
20,,,,,0,0,0,3,8,0,8,0,12,0,12,0,,,,,,,,,,,,,,,,,1136.8767526000738,None,1137.4941001003608,1138.0938794999383,1138.077527699992,1140.0782003002241,None,1,0.6112413196824491,2.61184841953218,decreament,0.6,41,standard,None,100,,,,,,,,f,26,210,fr,r,0,raw,2022-05-23_10h14.44.819,oddball,2022.1.2,60.22543582920714,
20,,,,,0,0,0,3,8,0,8,0,13,0,13,0,,,,,,,,,,,,,,,,,1140.0945916003548,None,1140.6954481001012,1141.2953087999485,1141.2785722003318,1143.279492000118,j,0,0.6082686199806631,2.609233720228076,decreament,0.6,41,standard,None,100,0.6976179997436702,,,,,,,f,26,210,fr,r,0,raw,2022-05-23_10h14.44.819,oddball,2022.1.2,60.22543582920714,
20,,,,,0,0,0,3,8,0,8,0,14,0,14,0,,,,,,,,,,,,,,,,,1143.2959744003601,None,1143.8459201003425,1144.4464030000381,1144.4298352003098,1146.4302722001448,None,1,0.6145662195049226,2.614992819726467,decreament,0.6,41,standard,None,100,,,,,,,,f,26,210,fr,r,0,raw,2022-05-23_10h14.44.819,oddball,2022.1.2,60.22543582920714,
20,,,,,0,0,0,3,8,0,8,0,15,0,15,0,,,,,,,,,,,,,,,,,1146.4470029002987,None,1147.097268700134,1147.6975080999546,1147.681128800381,1149.6822983999737,None,1,0.6125569199211895,2.613821720238775,decreament,0.6,41,standard,None,100,,,,,,,,f,26,210,fr,r,0,raw,2022-05-23_10h14.44.819,oddball,2022.1.2,60.22543582920714,
20,,,,,0,0,0,3,8,0,8,0,16,0,16,0,,,,,,,,,,,,,,,,,1149.6998181003146,None,1150.348712600302,1150.948678500019,1150.9325994001701,1152.9327850001864,None,1,0.6129309199750423,2.6130388197489083,decreament,0.6,41,standard,None,100,,,,,,,,f,26,210,fr,r,0,raw,2022-05-23_10h14.44.819,oddball,2022.1.2,60.22543582920714,
20,,,,,0,0,0,3,8,0,8,0,17,0,17,0,,,,,,,,,,,,,,,,,1152.9494191003032,None,1153.4997231001034,1154.1001800000668,1154.0837083002552,1156.0840497002937,None,1,0.6130376202054322,2.613312720321119,decreament,0.6,41,standard,None,100,,,,,,,,f,26,210,fr,r,0,raw,2022-05-23_10h14.44.819,oddball,2022.1.2,60.22543582920714,
20,,,,,0,0,0,3,8,0,8,0,18,0,18,0,,,,,,,,,,,,,,,,,1156.10086710006,None,1156.7174853002653,1157.3182459003292,1157.3012879001908,1159.3021138003096,None,1,0.6135100200772285,2.614345720037818,decreament,0.6,41,standard,None,100,,,,,,,,f,26,210,fr,r,0,raw,2022-05-23_10h14.44.819,oddball,2022.1.2,60.22543582920714,
20,,,,,0,0,0,3,8,0,8,0,19,0,19,0,,,,,,,,,,,,,,,,,1159.3186373999342,None,1159.9190340000205,1160.5195539002307,1160.5026013003662,1162.5032085999846,j,0,0.6128969201818109,2.613506920170039,decreament,0.6,41,standard,None,100,0.6576350992545485,,,,,,,f,26,210,fr,r,0,raw,2022-05-23_10h14.44.819,oddball,2022.1.2,60.22543582920714,
20,,,,,0,0,0,3,8,0,8,0,20,0,20,0,,,,,,,,,,,,,,,,,1162.5201396001503,None,1163.2537579000928,1163.7371709002182,1163.7202918003313,1165.7210893002339,j,1,0.492420120164752,2.4932329203002155,decreament,0.48,44,oddball,j,80,0.7282986994832754,,,,,,,f,26,210,fr,r,0,raw,2022-05-23_10h14.44.819,oddball,2022.1.2,60.22543582920714,
20,,,,,0,0,0,3,8,0,8,0,21,0,21,0,,,,,,,,,,,,,,,,,1165.7377877002582,None,1166.3216593000107,1166.921689500101,1166.9053052002564,1168.9054410001263,None,1,0.6114982198923826,2.6116125197149813,decreament,0.6,41,standard,None,100,,,,,,,,f,26,210,fr,r,0,raw,2022-05-23_10h14.44.819,oddball,2022.1.2,60.22543582920714,
20,,,,,0,0,0,3,8,0,8,0,22,0,22,0,,,,,,,,,,,,,,,,,1168.9223323999904,None,1169.5892666000873,1170.1893648002297,1170.1731199002825,1172.1734850001521,None,1,0.6124733192846179,2.612736019305885,decreament,0.6,41,standard,None,100,,,,,,,,f,26,210,fr,r,0,raw,2022-05-23_10h14.44.819,oddball,2022.1.2,60.22543582920714,
20,,,,,0,0,0,3,8,0,8,0,23,0,23,0,,,,,,,,,,,,,,,,,1172.1901619001292,None,1172.9403558000922,1173.5410796999931,1173.5242008003406,1175.5251224003732,None,1,0.614316419698298,2.615252220071852,decreament,0.6,41,standard,None,100,,,,,,,,f,26,210,fr,r,0,raw,2022-05-23_10h14.44.819,oddball,2022.1.2,60.22543582920714,
20,,,,,0,0,0,3,8,0,8,0,24,0,24,0,,,,,,,,,,,,,,,,,1175.541382400319,None,1176.1919623999856,1176.7917055003345,1176.7754899002612,1178.7757111000828,None,1,0.6097062202170491,2.609929719939828,decreament,0.6,41,standard,None,100,,,,,,,,f,26,210,fr,r,0,raw,2022-05-23_10h14.44.819,oddball,2022.1.2,60.22543582920714,
20,,,,,0,0,0,3,8,0,8,0,25,0,25,0,,,,,,,,,,,,,,,,,1178.7927367002703,None,1179.459410100244,1180.0597793003544,1180.0437782001682,1182.0437068999745,None,1,0.6134488205425441,2.613314320333302,decreament,0.6,41,standard,None,100,,,,,,,,f,26,210,fr,r,0,raw,2022-05-23_10h14.44.819,oddball,2022.1.2,60.22543582920714,
20,,,,,0,0,0,3,8,0,8,0,26,0,26,0,,,,,,,,,,,,,,,,,1182.0605457001366,None,1182.860518200323,1183.460799000226,1183.444162200205,1185.4452073001303,j,0,0.6149499197490513,2.6160812196321785,decreament,0.6,41,standard,None,100,0.8050795998424292,,,,,,,f,26,210,fr,r,0,raw,2022-05-23_10h14.44.819,oddball,2022.1.2,60.22543582920714,
20,,,,,0,0,0,3,8,0,8,0,27,0,27,0,,,,,,,,,,,,,,,,,1185.4618937000632,None,1186.062432100065,1186.6625222000293,1186.6461948999204,1188.6462859003805,j,0,0.6130672199651599,2.6130556198768318,decreament,0.6,41,standard,None,100,0.9692991995252669,,,,,,,f,26,210,fr,r,0,raw,2022-05-23_10h14.44.819,oddball,2022.1.2,60.22543582920714,
20,,,,,0,0,0,3,8,0,8,0,28,0,28,0,,,,,,,,,,,,,,,,,1188.663321299944,None,1189.2133818999864,1189.4635691000149,1189.430205100216,1191.4311490999535,j,1,0.24528412008658051,2.2462461199611425,decreament,0.24,42,oddball,j,40,0.5943199000321329,,,,,,,f,26,210,fr,r,0,raw,2022-05-23_10h14.44.819,oddball,2022.1.2,60.22543582920714,
20,,,,,0,0,0,3,8,0,8,0,29,0,29,0,,,,,,,,,,,,,,,,,1191.4474662002176,None,1192.0980413001962,1192.6983547001146,1192.6815801002085,1194.682107000146,None,1,0.613531120121479,2.6139483200386167,decreament,0.6,41,standard,None,100,,,,,,,,f,26,210,fr,r,0,raw,2022-05-23_10h14.44.819,oddball,2022.1.2,60.22543582920714,
20,,,,,0,0,0,3,9,0,9,0,0,0,0,0,,,,,,,,,,,,,,,1195.976107600145,None,1197.7498771999963,None,1198.616743599996,1199.2172655002214,1199.2004458000883,1201.2010452002287,None,1,0.6126915197819471,2.6132317199371755,increament,0.6,45,standard,None,100,,1194.698954500258,None,,,,,f,26,210,fr,r,0,raw,2022-05-23_10h14.44.819,oddball,2022.1.2,60.22543582920714,
20,,,,,0,0,0,3,9,0,9,0,1,0,1,0,,,,,,,,,,,,,,,,,1201.2180163003504,None,1201.8016760000028,1202.4018463999964,1202.385220200289,1204.3858861001208,None,1,0.6128791198134422,2.6135389199480414,increament,0.6,45,standard,None,100,,,,,,,,f,26,210,fr,r,0,raw,2022-05-23_10h14.44.819,oddball,2022.1.2,60.22543582920714,
20,,,,,0,0,0,3,9,0,9,0,2,0,2,0,,,,,,,,,,,,,,,,,1204.4028695002198,None,1205.03599090036,1205.6365693002008,1205.6196675002575,1207.620154000353,None,1,0.6127779204398394,2.6132006202824414,increament,0.6,45,standard,None,100,,,,,,,,f,26,210,fr,r,0,raw,2022-05-23_10h14.44.819,oddball,2022.1.2,60.22543582920714,
20,,,,,0,0,0,3,9,0,9,0,3,0,3,0,,,,,,,,,,,,,,,,,1207.6370076001622,None,1208.2876482000574,1208.8873954000883,1208.8709138999693,1210.871527499985,None,1,0.609956219792366,2.6105667194351554,increament,0.6,45,standard,None,100,,,,,,,,f,26,210,fr,r,0,raw,2022-05-23_10h14.44.819,oddball,2022.1.2,60.22543582920714,
20,,,,,0,0,0,3,9,0,9,0,4,0,4,0,,,,,,,,,,,,,,,,,1210.888054500334,None,1211.4717239001766,1212.0723689999431,1212.055460399948,1214.0559286000207,None,1,0.6127123199403286,2.6131892199628055,increament,0.6,45,standard,None,100,,,,,,,,f,26,210,fr,r,0,raw,2022-05-23_10h14.44.819,oddball,2022.1.2,60.22543582920714,
20,,,,,0,0,0,3,9,0,9,0,5,0,5,0,,,,,,,,,,,,,,,,,1214.072487700265,None,1214.7229312001728,1215.323048400227,1215.3066449002363,1217.3075489001349,None,1,0.6121580200269818,2.6130607202649117,increament,0.6,45,standard,None,100,,,,,,,,f,26,210,fr,r,0,raw,2022-05-23_10h14.44.819,oddball,2022.1.2,60.22543582920714,
20,,,,,0,0,0,3,9,0,9,0,6,0,6,0,,,,,,,,,,,,,,,,,1217.3245397000574,None,1217.9411475001834,1218.5410730000585,1218.5242881001905,1220.5252485000528,None,1,0.6123081198893487,2.6132909199222922,increament,0.6,45,standard,None,100,,,,,,,,f,26,210,fr,r,0,raw,2022-05-23_10h14.44.819,oddball,2022.1.2,60.22543582920714,
20,,,,,0,0,0,3,9,0,9,0,7,0,7,0,,,,,,,,,,,,,,,,,1220.5418851999566,None,1221.1922590001486,1221.7923759999685,1221.7755354000255,1223.7765673999675,None,1,0.6118613197468221,2.612893719691783,increament,0.6,45,standard,None,100,,,,,,,,f,26,210,fr,r,0,raw,2022-05-23_10h14.44.819,oddball,2022.1.2,60.22543582920714,
20,,,,,0,0,0,3,9,0,9,0,8,0,8,0,,,,,,,,,,,,,,,,,1223.7930741999298,None,1224.5769211002626,1225.176905600354,1225.1603872003034,1227.160995699931,None,1,0.6098468201234937,2.6104430202394724,increament,0.6,45,standard,None,100,,,,,,,,f,26,210,fr,r,0,raw,2022-05-23_10h14.44.819,oddball,2022.1.2,60.22543582920714,
20,,,,,0,0,0,3,9,0,9,0,9,0,9,0,,,,,,,,,,,,,,,,,1227.1777576003224,None,1227.8783895000815,1228.4781969999894,1228.4614389003254,1230.4620565003715,None,1,0.6089191203936934,2.609520320314914,increament,0.6,45,standard,None,100,,,,,,,,f,26,210,fr,r,0,raw,2022-05-23_10h14.44.819,oddball,2022.1.2,60.22543582920714,
20,,,,,0,0,0,3,9,0,9,0,10,0,10,0,,,,,,,,,,,,,,,,,1230.478749600239,None,1231.1123842000961,1231.8458692003042,1231.8128809002228,1233.8134278999642,j,1,0.731066320091486,2.7316134199500084,increament,0.72,46,oddball,j,120,0.6995691996999085,,,,,,,f,26,210,fr,r,0,raw,2022-05-23_10h14.44.819,oddball,2022.1.2,60.22543582920714,
20,,,,,0,0,0,3,9,0,9,0,11,0,11,0,,,,,,,,,,,,,,,,,1233.8301305002533,None,1234.481120900251,1235.080602500122,1235.0639194003306,1237.0646728002466,None,1,0.6113371201790869,2.611973320133984,increament,0.6,45,standard,None,100,,,,,,,,f,26,210,fr,r,0,raw,2022-05-23_10h14.44.819,oddball,2022.1.2,60.22543582920714,
20,,,,,0,0,0,3,9,0,9,0,12,0,12,0,,,,,,,,,,,,,,,,,1237.081700900104,None,1237.632253699936,1238.2317611002363,1238.2151407999918,1240.2161218002439,None,1,0.6088100196793675,2.6098249200731516,increament,0.6,45,standard,None,100,,,,,,,,f,26,210,fr,r,0,raw,2022-05-23_10h14.44.819,oddball,2022.1.2,60.22543582920714,
20,,,,,0,0,0,3,9,0,9,0,13,0,13,0,,,,,,,,,,,,,,,,,1240.2329625999555,None,1240.9997781002894,1241.600075500086,1241.5835283999331,1243.5839533000253,None,1,0.6131889196112752,2.613534319680184,increament,0.6,45,standard,None,100,,,,,,,,f,26,210,fr,r,0,raw,2022-05-23_10h14.44.819,oddball,2022.1.2,60.22543582920714,
20,,,,,0,0,0,3,9,0,9,0,14,0,14,0,,,,,,,,,,,,,,,,,1243.6006008000113,None,1244.2675471003167,1245.1177139999345,1245.084391800221,1247.0852115000598,None,0,0.8455988201312721,2.8464043200947344,increament,0.84,47,oddball,j,140,,,,,,,,f,26,210,fr,r,0,raw,2022-05-23_10h14.44.819,oddball,2022.1.2,60.22543582920714,
20,,,,,0,0,0,3,9,0,9,0,15,0,15,0,,,,,,,,,,,,,,,,,1247.1023428002372,None,1247.7023340002634,1248.302451299969,1248.2856407002546,1250.286446900107,j,0,0.6093354197219014,2.6101049198769033,increament,0.6,45,standard,None,100,1.0579193993471563,,,,,,,f,26,210,fr,r,0,raw,2022-05-23_10h14.44.819,oddball,2022.1.2,60.22543582920714,
20,,,,,0,0,0,3,9,0,9,0,16,0,16,0,,,,,,,,,,,,,,,,,1250.303113100119,None,1250.9701525000855,1251.5704788002186,1251.5535014001653,1253.5547780999914,None,1,0.6122740199789405,2.6136159198358655,increament,0.6,45,standard,None,100,,,,,,,,f,26,210,fr,r,0,raw,2022-05-23_10h14.44.819,oddball,2022.1.2,60.22543582920714,
20,,,,,0,0,0,3,9,0,9,0,17,0,17,0,,,,,,,,,,,,,,,,,1253.5717339003459,None,1254.2047506999224,1254.8047290001996,1254.7883242000826,1256.789235800039,None,1,0.6125011197291315,2.6134778200648725,increament,0.6,45,standard,None,100,,,,,,,,f,26,210,fr,r,0,raw,2022-05-23_10h14.44.819,oddball,2022.1.2,60.22543582920714,
20,,,,,0,0,0,3,9,0,9,0,18,0,18,0,,,,,,,,,,,,,,,,,1256.8061071000993,None,1257.522276200354,1258.122596600093,1258.1062004999258,1260.1067055002786,None,1,0.6146373199298978,2.6151362196542323,increament,0.6,45,standard,None,100,,,,,,,,f,26,210,fr,r,0,raw,2022-05-23_10h14.44.819,oddball,2022.1.2,60.22543582920714,
20,,,,,0,0,0,3,9,0,9,0,19,0,19,0,,,,,,,,,,,,,,,,,1260.1232847003266,None,1260.690485900268,1261.2905771001242,1261.2741308999248,1263.274720699992,None,1,0.6120104203000665,2.61256062053144,increament,0.6,45,standard,None,100,,,,,,,,f,26,210,fr,r,0,raw,2022-05-23_10h14.44.819,oddball,2022.1.2,60.22543582920714,
20,,,,,0,0,0,3,9,0,9,0,20,0,20,0,,,,,,,,,,,,,,,,,1263.2913204003125,None,1263.8583601000719,1264.4583153002895,1264.4416125002317,1266.4425477003679,None,1,0.6132474197074771,2.614205519668758,increament,0.6,45,standard,None,100,,,,,,,,f,26,210,fr,r,0,raw,2022-05-23_10h14.44.819,oddball,2022.1.2,60.22543582920714,
20,,,,,0,0,0,3,9,0,9,0,21,0,21,0,,,,,,,,,,,,,,,,,1266.4592367000878,None,1267.2100766999647,1267.8098250003532,1267.793639600277,1269.793943000026,j,0,0.6103714196942747,2.610581920016557,increament,0.6,45,standard,None,100,0.9739186996594071,,,,,,,f,26,210,fr,r,0,raw,2022-05-23_10h14.44.819,oddball,2022.1.2,60.22543582920714,
20,,,,,0,0,0,3,9,0,9,0,22,0,22,0,,,,,,,,,,,,,,,,,1269.810484800022,None,1270.5106681003235,1271.1108445003629,1271.0943420999683,1273.095108800102,None,1,0.6132093197666109,2.6140037197619677,increament,0.6,45,standard,None,100,,,,,,,,f,26,210,fr,r,0,raw,2022-05-23_10h14.44.819,oddball,2022.1.2,60.22543582920714,
20,,,,,0,0,0,3,9,0,9,0,23,0,23,0,,,,,,,,,,,,,,,,,1273.1118950000964,None,1273.8288303003646,1274.429193600081,1274.4125529001467,1276.4127905000933,j,0,0.6133159198798239,2.6134398197755218,increament,0.6,45,standard,None,100,0.7547365995123982,,,,,,,f,26,210,fr,r,0,raw,2022-05-23_10h14.44.819,oddball,2022.1.2,60.22543582920714,
20,,,,,0,0,0,3,9,0,9,0,24,0,24,0,,,,,,,,,,,,,,,,,1276.4299213001505,None,1277.0465759001672,1278.0137742003426,1277.9808080000803,1279.9807665999979,j,1,0.964097120333463,2.963992720004171,increament,0.96,48,oddball,j,160,0.5789945996366441,,,,,,,f,26,210,fr,r,0,raw,2022-05-23_10h14.44.819,oddball,2022.1.2,60.22543582920714,
20,,,,,0,0,0,3,9,0,9,0,25,0,25,0,,,,,,,,,,,,,,,,,1279.9976674001664,None,1280.6480156001635,1281.247945500072,1281.2318735001609,1283.2326283999719,None,1,0.6107740201987326,2.6119937198236585,increament,0.6,45,standard,None,100,,,,,,,,f,26,210,fr,r,0,raw,2022-05-23_10h14.44.819,oddball,2022.1.2,60.22543582920714,
20,,,,,0,0,0,3,9,0,9,0,26,0,26,0,,,,,,,,,,,,,,,,,1283.249977200292,None,1283.882801500149,1284.4829045999795,1284.4663177002221,1286.466889000032,None,1,0.6094987201504409,2.6100251199677587,increament,0.6,45,standard,None,100,,,,,,,,f,26,210,fr,r,0,raw,2022-05-23_10h14.44.819,oddball,2022.1.2,60.22543582920714,
20,,,,,0,0,0,3,9,0,9,0,27,0,27,0,,,,,,,,,,,,,,,,,1286.4835197003558,None,1287.30030969996,1287.9006777000614,1287.8841727003455,1289.8847802001983,None,1,0.61337621929124,2.6139476196840405,increament,0.6,45,standard,None,100,,,,,,,,f,26,210,fr,r,0,raw,2022-05-23_10h14.44.819,oddball,2022.1.2,60.22543582920714,
20,,,,,0,0,0,3,9,0,9,0,28,0,28,0,,,,,,,,,,,,,,,,,1289.901398099959,None,1290.635045800358,1291.2351766000502,1291.2185297003016,1293.2193251000717,None,1,0.6114648198708892,2.612273519858718,increament,0.6,45,standard,None,100,,,,,,,,f,26,210,fr,r,0,raw,2022-05-23_10h14.44.819,oddball,2022.1.2,60.22543582920714,
20,,,,,0,0,0,3,9,0,9,0,29,0,29,0,,,,,,,,,,,,,,,,,1293.2358484999277,None,1293.9030471001752,1294.5031795999967,1294.48657930037,1296.4871898000129,None,1,0.6123828198760748,2.6129869199357927,increament,0.6,45,standard,None,100,,,,,,,,f,26,210,fr,r,0,raw,2022-05-23_10h14.44.819,oddball,2022.1.2,60.22543582920714,
5,,,,,0,1,1,1,0,0,0,0,0,0,0,0,,,,,,,,,,,,,,,1507.35932350019,None,1510.8187363999896,None,1511.3689113003202,1511.9690907001495,1511.9521747999825,1513.9531622999348,None,1,0.6087342202663422,2.6097579202614725,decreament,0.6,11,standard,None,100,,1476.5720963003114,None,1296.5598009000532,None,,,f,26,210,fr,r,0,raw,2022-05-23_10h14.44.819,oddball,2022.1.2,60.22543582920714,
5,,,,,0,1,1,1,0,0,0,0,1,0,1,0,,,,,,,,,,,,,,,,,1513.9696897999384,None,1514.5367221999913,1515.1365322000347,1515.1202469002455,1517.1212204000913,None,1,0.6124617201276124,2.613529419992119,decreament,0.6,11,standard,None,100,,,,,,,,f,26,210,fr,r,0,raw,2022-05-23_10h14.44.819,oddball,2022.1.2,60.22543582920714,
5,,,,,0,1,1,1,0,0,0,0,2,0,2,0,,,,,,,,,,,,,,,,,1517.137591900304,None,1517.838140600361,1518.4379980000667,1518.4215319999494,1520.422233799938,None,1,0.6100310198962688,2.610739219468087,decreament,0.6,11,standard,None,100,,,,,,,,f,26,210,fr,r,0,raw,2022-05-23_10h14.44.819,oddball,2022.1.2,60.22543582920714,
5,,,,,0,1,1,1,0,0,0,0,3,0,3,0,,,,,,,,,,,,,,,,,1520.4389577000402,None,1521.0892409002408,1521.6892981999554,1521.6727801002562,1523.6733967000619,None,1,0.6119100200012326,2.612481419928372,decreament,0.6,11,standard,None,100,,,,,,,,f,26,210,fr,r,0,raw,2022-05-23_10h14.44.819,oddball,2022.1.2,60.22543582920714,
5,,,,,0,1,1,1,0,0,0,0,4,0,4,0,,,,,,,,,,,,,,,,,1523.6902423999272,None,1524.3902559000999,1524.9905286002904,1524.9738406999968,1526.9749386999756,None,1,0.6134771201759577,2.614659620448947,decreament,0.6,11,standard,None,100,,,,,,,,f,26,210,fr,r,0,raw,2022-05-23_10h14.44.819,oddball,2022.1.2,60.22543582920714,
5,,,,,0,1,1,1,0,0,0,0,5,0,5,0,,,,,,,,,,,,,,,,,1526.9930871003307,None,1527.6082105999812,1528.2082932000048,1528.191942000296,1530.1930575999431,None,1,0.6125654201023281,2.6136988196521997,decreament,0.6,11,standard,None,100,,,,,,,,f,26,210,fr,r,0,raw,2022-05-23_10h14.44.819,oddball,2022.1.2,60.22543582920714,
5,,,,,0,1,1,1,0,0,0,0,6,0,6,0,,,,,,,,,,,,,,,,,1530.2089667003602,None,1530.909460700117,1531.5096241999418,1531.4929888001643,1533.4940424999222,None,1,0.610907020047307,2.6120555200614035,decreament,0.6,11,standard,None,100,,,,,,,,f,26,210,fr,r,0,raw,2022-05-23_10h14.44.819,oddball,2022.1.2,60.22543582920714,
5,,,,,0,1,1,1,0,0,0,0,7,0,7,0,,,,,,,,,,,,,,,,,1533.5119264000095,None,1534.0939855999313,1534.6942581003532,1534.6776923001744,1536.6782272001728,None,1,0.6119109196588397,2.612411019857973,decreament,0.6,11,standard,None,100,,,,,,,,f,26,210,fr,r,0,raw,2022-05-23_10h14.44.819,oddball,2022.1.2,60.22543582920714,
5,,,,,0,1,1,1,0,0,0,0,8,0,8,0,,,,,,,,,,,,,,,,,1536.6948235002346,None,1537.445308700204,1538.045675900299,1538.0292053003795,1540.02987139998,None,1,0.6128921201452613,2.6135615203529596,decreament,0.6,11,standard,None,100,,,,,,,,f,26,210,fr,r,0,raw,2022-05-23_10h14.44.819,oddball,2022.1.2,60.22543582920714,
5,,,,,0,1,1,1,0,0,0,0,9,0,9,0,,,,,,,,,,,,,,,,,1540.0486624003388,None,1540.6299998001195,1541.229606400244,1541.212910500355,1543.2141869002953,j,0,0.6090289195999503,2.6103413198143244,decreament,0.6,11,standard,None,100,0.7140875994227827,,,,,,,f,26,210,fr,r,0,raw,2022-05-23_10h14.44.819,oddball,2022.1.2,60.22543582920714,
5,,,,,0,1,1,1,0,0,0,0,10,0,10,0,,,,,,,,,,,,,,,,,1543.230899900198,None,1543.8978892001323,1544.49786530016,1544.4814845002256,1546.4818657999858,j,0,0.6121198199689388,2.6124022197909653,decreament,0.6,11,standard,None,100,1.2046236000023782,,,,,,,f,26,210,fr,r,0,raw,2022-05-23_10h14.44.819,oddball,2022.1.2,60.22543582920714,
5,,,,,0,1,1,1,0,0,0,0,11,0,11,0,,,,,,,,,,,,,,,,,1546.4984452002682,None,1547.049417000264,1547.6495358999819,1547.6330583002418,1549.6332421000116,j,0,0.6112496200948954,2.6113340202718973,decreament,0.6,11,standard,None,100,0.845575999468565,,,,,,,f,26,210,fr,r,0,raw,2022-05-23_10h14.44.819,oddball,2022.1.2,60.22543582920714,
