grating_freq,blocks_prac.thisRepN,blocks_prac.thisTrialN,blocks_prac.thisN,blocks_prac.thisIndex,blocks.thisRepN,blocks.thisTrialN,blocks.thisN,blocks.thisIndex,repeat_freq.thisRepN,repeat_freq.thisTrialN,repeat_freq.thisN,repeat_freq.thisIndex,trials.thisRepN,trials.thisTrialN,trials.thisN,trials.thisIndex,break_loop.thisRepN,break_loop.thisTrialN,break_loop.thisN,break_loop.thisIndex,rest_loop.thisRepN,rest_loop.thisTrialN,rest_loop.thisN,rest_loop.thisIndex,instruct_prac_text.started,instruct_prac_text.stopped,b_instruct_text_2_.started,b_instruct_text_2_.stopped,prac_done_text.started,prac_done_text.stopped,instruct_text.started,instruct_text.stopped,fixation.started,fixation.stopped,grating.started,grating.stopped,blank.started,blank.stopped,resp.keys,resp.corr,resp.started,resp.stopped,direction,duration,trigger,stim_type,corr_ans,scaling,resp.rt,rest_text.started,rest_text.stopped,text_2.started,text_2.stopped,thx_txt.started,thx_txt.stopped,gender,age,participant,language,main_hand,nBlock_prac,file_suffix,date,expName,psychopyVersion,frameRate,
20,,,,,0,0,0,3,0,0,0,0,0,0,0,0,,,,,,,,,19.233035900164396,None,51.55811530025676,None,61.29758190037683,None,68.04252670006827,None,70.31456180009991,None,70.88584540039301,71.49832570040599,71.44822680018842,73.44887630036101,None,1,0.611653040163219,2.6122821401804686,decreament,0.6,41,standard,None,100,,,,,,,,f,28,214,fr,r,0,raw,2022-05-25_14h44.46.599,oddball,2022.1.2,59.9591558749788,
20,,,,,0,0,0,3,0,0,0,0,1,0,1,0,,,,,,,,,,,,,,,,,73.4655892001465,None,74.04927390022203,74.64946890017018,74.63272830005735,76.63374530011788,None,1,0.613334140740335,2.614415340591222,decreament,0.6,41,standard,None,100,,,,,,,,f,28,214,fr,r,0,raw,2022-05-25_14h44.46.599,oddball,2022.1.2,59.9591558749788,
20,,,,,0,0,0,3,0,0,0,0,2,0,2,0,,,,,,,,,,,,,,,,,76.65060800034553,None,77.33393560023978,77.93381140008569,77.91733040008694,79.91804910032079,None,1,0.6122356406413019,2.6129822405055165,decreament,0.6,41,standard,None,100,,,,,,,,f,28,214,fr,r,0,raw,2022-05-25_14h44.46.599,oddball,2022.1.2,59.9591558749788,
20,,,,,0,0,0,3,0,0,0,0,3,0,3,0,,,,,,,,,,,,,,,,,79.93494420032948,None,80.55170560022816,81.15208230027929,81.13563190028071,83.13591250032187,None,1,0.6119084404781461,2.6121096406131983,decreament,0.6,41,standard,None,100,,,,,,,,f,28,214,fr,r,0,raw,2022-05-25_14h44.46.599,oddball,2022.1.2,59.9591558749788,
20,,,,,0,0,0,3,0,0,0,0,4,0,4,0,,,,,,,,,,,,,,,,,83.15254779998213,None,83.88623550022021,84.4866275000386,84.4697071001865,86.47076120041311,None,1,0.6123922397382557,2.613516639918089,decreament,0.6,41,standard,None,100,,,,,,,,f,28,214,fr,r,0,raw,2022-05-25_14h44.46.599,oddball,2022.1.2,59.9591558749788,
20,,,,,0,0,0,3,0,0,0,0,5,0,5,0,,,,,,,,,,,,,,,,,86.48729469999671,None,87.13809450017288,87.73772980039939,87.72101730015129,89.72203940013424,None,1,0.60912283975631,2.610256839543581,decreament,0.6,41,standard,None,100,,,,,,,,f,28,214,fr,r,0,raw,2022-05-25_14h44.46.599,oddball,2022.1.2,59.9591558749788,
20,,,,,0,0,0,3,0,0,0,0,6,0,6,0,,,,,,,,,,,,,,,,,89.73891169996932,None,90.50570440012962,91.10581100033596,91.08899610023946,93.08958890009671,None,1,0.6120448401197791,2.6125956401228905,decreament,0.6,41,standard,None,100,,,,,,,,f,28,214,fr,r,0,raw,2022-05-25_14h44.46.599,oddball,2022.1.2,59.9591558749788,
20,,,,,0,0,0,3,0,0,0,0,7,0,7,0,,,,,,,,,,,,,,,,,93.1061651003547,None,93.62337050028145,94.22330490034074,94.2068994003348,96.2077069003135,None,1,0.6117514404468238,2.6126500400714576,decreament,0.6,41,standard,None,100,,,,,,,,f,28,214,fr,r,0,raw,2022-05-25_14h44.46.599,oddball,2022.1.2,59.9591558749788,
20,,,,,0,0,0,3,0,0,0,0,8,0,8,0,,,,,,,,,,,,,,,,,96.22467810008675,None,96.9247399000451,97.17471490008757,97.14150900021195,99.14266200037673,j,1,0.2436358407139778,2.2448368407785892,decreament,0.24,42,oddball,j,40,0.47266290010884404,,,,,,,f,28,214,fr,r,0,raw,2022-05-25_14h44.46.599,oddball,2022.1.2,59.9591558749788,
20,,,,,0,0,0,3,0,0,0,0,9,0,9,0,,,,,,,,,,,,,,,,,99.16022220021114,None,99.79227440012619,100.39243490016088,100.37582339998335,102.37650790018961,None,1,0.612893040291965,2.613607940264046,decreament,0.6,41,standard,None,100,,,,,,,,f,28,214,fr,r,0,raw,2022-05-25_14h44.46.599,oddball,2022.1.2,59.9591558749788,
20,,,,,0,0,0,3,0,0,0,0,10,0,10,0,,,,,,,,,,,,,,,,,102.39353090012446,None,103.07710480038077,103.67712580040097,103.6602885001339,105.6612878004089,None,1,0.6074730404652655,2.6084831403568387,decreament,0.6,41,standard,None,100,,,,,,,,f,28,214,fr,r,0,raw,2022-05-25_14h44.46.599,oddball,2022.1.2,59.9591558749788,
20,,,,,0,0,0,3,0,0,0,0,11,0,11,0,,,,,,,,,,,,,,,,,105.67800920037553,None,106.19483030028641,106.79488870035857,106.77814320009202,108.77895870013162,None,1,0.6118476400151849,2.612646540161222,decreament,0.6,41,standard,None,100,,,,,,,,f,28,214,fr,r,0,raw,2022-05-25_14h44.46.599,oddball,2022.1.2,59.9591558749788,
20,,,,,0,0,0,3,0,0,0,0,12,0,12,0,,,,,,,,,,,,,,,,,108.79567420016974,None,109.39624160015956,109.99591900035739,109.97981980023906,111.98034890042618,None,1,0.6095289401710033,2.6101087401621044,decreament,0.6,41,standard,None,100,,,,,,,,f,28,214,fr,r,0,raw,2022-05-25_14h44.46.599,oddball,2022.1.2,59.9591558749788,
20,,,,,0,0,0,3,0,0,0,0,13,0,13,0,,,,,,,,,,,,,,,,,111.99716590018943,None,112.68050680030137,113.28113350039348,113.2647092002444,115.26478910027072,None,1,0.6128541403450072,2.612844640389085,decreament,0.6,41,standard,None,100,,,,,,,,f,28,214,fr,r,0,raw,2022-05-25_14h44.46.599,oddball,2022.1.2,59.9591558749788,
20,,,,,0,0,0,3,0,0,0,0,14,0,14,0,,,,,,,,,,,,,,,,,115.28185460017994,None,115.91511319996789,116.51508040027693,116.4985126000829,118.49926399998367,None,1,0.6135274404659867,2.6142730405554175,decreament,0.6,41,standard,None,100,,,,,,,,f,28,214,fr,r,0,raw,2022-05-25_14h44.46.599,oddball,2022.1.2,59.9591558749788,
20,,,,,0,0,0,3,0,0,0,0,15,0,15,0,,,,,,,,,,,,,,,,,118.51604240015149,None,119.1664905003272,119.76674110023305,119.75001000007614,121.7505618003197,None,1,0.6093760398216546,2.6098831398412585,decreament,0.6,41,standard,None,100,,,,,,,,f,28,214,fr,r,0,raw,2022-05-25_14h44.46.599,oddball,2022.1.2,59.9591558749788,
20,,,,,0,0,0,3,0,0,0,0,16,0,16,0,,,,,,,,,,,,,,,,,121.76720630005002,None,122.40087480004877,123.00099990004674,122.98455619998276,124.98505290038884,None,1,0.6123976395465434,2.6129024396650493,decreament,0.6,41,standard,None,100,,,,,,,,f,28,214,fr,r,0,raw,2022-05-25_14h44.46.599,oddball,2022.1.2,59.9591558749788,
20,,,,,0,0,0,3,0,0,0,0,17,0,17,0,,,,,,,,,,,,,,,,,125.00181300006807,None,125.63565450021997,126.2358214003034,126.21932110004127,128.21962860040367,j,0,0.6121588405221701,2.612398440949619,decreament,0.6,41,standard,None,100,0.5225853999145329,,,,,,,f,28,214,fr,r,0,raw,2022-05-25_14h44.46.599,oddball,2022.1.2,59.9591558749788,
20,,,,,0,0,0,3,0,0,0,0,18,0,18,0,,,,,,,,,,,,,,,,,128.23658000025898,None,128.90379690006375,129.50384100014344,129.48702870029956,131.48758570011705,None,1,0.6093779401853681,2.6099028401076794,decreament,0.6,41,standard,None,100,,,,,,,,f,28,214,fr,r,0,raw,2022-05-25_14h44.46.599,oddball,2022.1.2,59.9591558749788,
20,,,,,0,0,0,3,0,0,0,0,19,0,19,0,,,,,,,,,,,,,,,,,131.50443890038878,None,132.13797350041568,132.73788890009746,132.7216423000209,134.7223926000297,None,1,0.6103241401724517,2.6110830400139093,decreament,0.6,41,standard,None,100,,,,,,,,f,28,214,fr,r,0,raw,2022-05-25_14h44.46.599,oddball,2022.1.2,59.9591558749788,
20,,,,,0,0,0,3,0,0,0,0,20,0,20,0,,,,,,,,,,,,,,,,,134.738767800387,None,135.423213200178,136.02255600038916,136.005879400298,138.0068261004053,None,1,0.6079202401451766,2.608899140264839,decreament,0.6,41,standard,None,100,,,,,,,,f,28,214,fr,r,0,raw,2022-05-25_14h44.46.599,oddball,2022.1.2,59.9591558749788,
20,,,,,0,0,0,3,0,0,0,0,21,0,21,0,,,,,,,,,,,,,,,,,138.02349640009925,None,138.60695390030742,138.9740230999887,138.94056690018624,140.9411760000512,j,1,0.36285704048350453,2.36347724031657,decreament,0.36,43,oddball,j,60,0.5767550999298692,,,,,,,f,28,214,fr,r,0,raw,2022-05-25_14h44.46.599,oddball,2022.1.2,59.9591558749788,
20,,,,,0,0,0,3,0,0,0,0,22,0,22,0,,,,,,,,,,,,,,,,,140.95789130032063,None,141.62506330013275,142.22501160018146,142.2086388003081,144.2091014003381,None,1,0.6130229397676885,2.6133690397255123,decreament,0.6,41,standard,None,100,,,,,,,,f,28,214,fr,r,0,raw,2022-05-25_14h44.46.599,oddball,2022.1.2,59.9591558749788,
20,,,,,0,0,0,3,0,0,0,0,23,0,23,0,,,,,,,,,,,,,,,,,144.2256438001059,None,144.84270630031824,145.4430154999718,145.42658059997484,147.4269278002903,j,0,0.6112801400013268,2.6116023398935795,decreament,0.6,41,standard,None,100,0.7074908996000886,,,,,,,f,28,214,fr,r,0,raw,2022-05-25_14h44.46.599,oddball,2022.1.2,59.9591558749788,
20,,,,,0,0,0,3,0,0,0,0,24,0,24,0,,,,,,,,,,,,,,,,,147.44379930011928,None,148.0108909001574,148.61091820010915,148.5944660003297,150.5947263999842,None,1,0.608542540576309,2.6086884401738644,decreament,0.6,41,standard,None,100,,,,,,,,f,28,214,fr,r,0,raw,2022-05-25_14h44.46.599,oddball,2022.1.2,59.9591558749788,
20,,,,,0,0,0,3,0,0,0,0,25,0,25,0,,,,,,,,,,,,,,,,,150.61136220023036,None,151.27859550016,151.8789081000723,151.8624950000085,153.86267370032147,None,1,0.613192240241915,2.613287540152669,decreament,0.6,41,standard,None,100,,,,,,,,f,28,214,fr,r,0,raw,2022-05-25_14h44.46.599,oddball,2022.1.2,59.9591558749788,
20,,,,,0,0,0,3,0,0,0,0,26,0,26,0,,,,,,,,,,,,,,,,,153.87936640018597,None,154.546320900321,155.03027810016647,154.99649120029062,156.9973908001557,j,1,0.4790474399924278,2.4799687401391566,decreament,0.48,44,oddball,j,80,0.8570790002122521,,,,,,,f,28,214,fr,r,0,raw,2022-05-25_14h44.46.599,oddball,2022.1.2,59.9591558749788,
20,,,,,0,0,0,3,0,0,0,0,27,0,27,0,,,,,,,,,,,,,,,,,157.01386890001595,None,157.69771470036358,158.2979040001519,158.28151350002736,160.28179560042918,None,1,0.6124293403699994,2.6126103405840695,decreament,0.6,41,standard,None,100,,,,,,,,f,28,214,fr,r,0,raw,2022-05-25_14h44.46.599,oddball,2022.1.2,59.9591558749788,
20,,,,,0,0,0,3,0,0,0,0,28,0,28,0,,,,,,,,,,,,,,,,,160.29838100029156,None,161.03231170028448,161.63244860013947,161.61568720033392,163.61639149999246,None,1,0.6110210404731333,2.6116947405971587,decreament,0.6,41,standard,None,100,,,,,,,,f,28,214,fr,r,0,raw,2022-05-25_14h44.46.599,oddball,2022.1.2,59.9591558749788,
20,,,,,0,0,0,3,0,0,0,0,29,0,29,0,,,,,,,,,,,,,,,,,163.6333151999861,None,164.16668730042875,164.7668740004301,164.75053820014,166.75092360004783,None,1,0.6134645398706198,2.613775940146297,decreament,0.6,41,standard,None,100,,,,,,,,f,28,214,fr,r,0,raw,2022-05-25_14h44.46.599,oddball,2022.1.2,59.9591558749788,
20,,,,,0,0,0,3,1,0,1,0,0,0,0,0,,,,,,,,,,,,,,,170.86428420012817,None,172.50321730040014,None,173.22017240012065,173.82041420042515,173.8036382002756,175.80467380024493,None,1,0.611877640709281,2.612979340367019,increament,0.6,45,standard,None,100,,166.76781630003825,None,,,,,f,28,214,fr,r,0,raw,2022-05-25_14h44.46.599,oddball,2022.1.2,59.9591558749788,
20,,,,,0,0,0,3,1,0,1,0,1,0,1,0,,,,,,,,,,,,,,,,,175.82128870021552,None,176.63818900007755,177.2382798003964,177.22169320005924,179.22236120002344,None,1,0.6127544404007494,2.613369240425527,increament,0.6,45,standard,None,100,,,,,,,,f,28,214,fr,r,0,raw,2022-05-25_14h44.46.599,oddball,2022.1.2,59.9591558749788,
20,,,,,0,0,0,3,1,0,1,0,2,0,2,0,,,,,,,,,,,,,,,,,179.2388940001838,None,180.0226382999681,180.62291550030932,180.60643470007926,182.60712340008467,None,1,0.6135765397921205,2.6142609398812056,increament,0.6,45,standard,None,100,,,,,,,,f,28,214,fr,r,0,raw,2022-05-25_14h44.46.599,oddball,2022.1.2,59.9591558749788,
20,,,,,0,0,0,3,1,0,1,0,3,0,3,0,,,,,,,,,,,,,,,,,182.6235407004133,None,183.4740726002492,184.0739661003463,184.05736270034686,186.0581913003698,None,1,0.612332840450108,2.613173740450293,increament,0.6,45,standard,None,100,,,,,,,,f,28,214,fr,r,0,raw,2022-05-25_14h44.46.599,oddball,2022.1.2,59.9591558749788,
20,,,,,0,0,0,3,1,0,1,0,4,0,4,0,,,,,,,,,,,,,,,,,186.07510620029643,None,186.87596600037068,187.4753189003095,187.4586106003262,189.45977720012888,None,1,0.60920953983441,2.61042293952778,increament,0.6,45,standard,None,100,,,,,,,,f,28,214,fr,r,0,raw,2022-05-25_14h44.46.599,oddball,2022.1.2,59.9591558749788,
20,,,,,0,0,0,3,1,0,1,0,5,0,5,0,,,,,,,,,,,,,,,,,189.476124800276,None,190.0764353000559,190.67705980036408,190.6600430002436,192.66123050032184,None,1,0.6118510402739048,2.6130825402215123,increament,0.6,45,standard,None,100,,,,,,,,f,28,214,fr,r,0,raw,2022-05-25_14h44.46.599,oddball,2022.1.2,59.9591558749788,
20,,,,,0,0,0,3,1,0,1,0,6,0,6,0,,,,,,,,,,,,,,,,,192.6785973003134,None,193.32816080003977,193.92802980029956,193.91118820011616,195.91213509999216,None,1,0.6091158404015005,2.6100435401313007,increament,0.6,45,standard,None,100,,,,,,,,f,28,214,fr,r,0,raw,2022-05-25_14h44.46.599,oddball,2022.1.2,59.9591558749788,
20,,,,,0,0,0,3,1,0,1,0,7,0,7,0,,,,,,,,,,,,,,,,,195.92884090030566,None,196.61214510025457,197.2124796002172,197.19605710031465,199.19664730038494,None,1,0.6140809403732419,2.6146613406017423,increament,0.6,45,standard,None,100,,,,,,,,f,28,214,fr,r,0,raw,2022-05-25_14h44.46.599,oddball,2022.1.2,59.9591558749788,
20,,,,,0,0,0,3,1,0,1,0,8,0,8,0,,,,,,,,,,,,,,,,,199.2134746001102,None,199.86370220035315,200.4637272004038,200.4469280000776,202.44779390003532,None,1,0.6092640399001539,2.610151239670813,increament,0.6,45,standard,None,100,,,,,,,,f,28,214,fr,r,0,raw,2022-05-25_14h44.46.599,oddball,2022.1.2,59.9591558749788,
20,,,,,0,0,0,3,1,0,1,0,9,0,9,0,,,,,,,,,,,,,,,,,202.4644695003517,None,203.11455410020426,203.71513650007546,203.6986287003383,205.69902490032837,None,1,0.6138663403689861,2.6142739402130246,increament,0.6,45,standard,None,100,,,,,,,,f,28,214,fr,r,0,raw,2022-05-25_14h44.46.599,oddball,2022.1.2,59.9591558749788,
20,,,,,0,0,0,3,1,0,1,0,10,0,10,0,,,,,,,,,,,,,,,,,205.7157641001977,None,206.4493146003224,207.04936410021037,207.03276450000703,209.03371340036392,None,1,0.6119781397283077,2.6130199399776757,increament,0.6,45,standard,None,100,,,,,,,,f,28,214,fr,r,0,raw,2022-05-25_14h44.46.599,oddball,2022.1.2,59.9591558749788,
20,,,,,0,0,0,3,1,0,1,0,11,0,11,0,,,,,,,,,,,,,,,,,209.05110070016235,None,209.70082390028983,210.30120390001684,210.28436530008912,212.28500250028446,None,1,0.6126142400316894,2.6132660401053727,increament,0.6,45,standard,None,100,,,,,,,,f,28,214,fr,r,0,raw,2022-05-25_14h44.46.599,oddball,2022.1.2,59.9591558749788,
20,,,,,0,0,0,3,1,0,1,0,12,0,12,0,,,,,,,,,,,,,,,,,212.30178960040212,None,213.05194520018995,213.65200250037014,213.63556400034577,215.63646770035848,None,1,0.6120396400801837,2.6130015403032303,increament,0.6,45,standard,None,100,,,,,,,,f,28,214,fr,r,0,raw,2022-05-25_14h44.46.599,oddball,2022.1.2,59.9591558749788,
20,,,,,0,0,0,3,1,0,1,0,13,0,13,0,,,,,,,,,,,,,,,,,215.6534057003446,None,216.33640100015327,216.93654440017417,216.9200397003442,218.9209074000828,None,1,0.6117681399919093,2.612760739866644,increament,0.6,45,standard,None,100,,,,,,,,f,28,214,fr,r,0,raw,2022-05-25_14h44.46.599,oddball,2022.1.2,59.9591558749788,
20,,,,,0,0,0,3,1,0,1,0,14,0,14,0,,,,,,,,,,,,,,,,,218.9375836001709,None,219.72123100003228,220.68797100009397,220.65492680016905,222.65555620007217,j,1,0.9614591398276389,2.962087439838797,increament,0.96,48,oddball,j,160,0.3422866999171674,,,,,,,f,28,214,fr,r,0,raw,2022-05-25_14h44.46.599,oddball,2022.1.2,59.9591558749788,
20,,,,,0,0,0,3,1,0,1,0,15,0,15,0,,,,,,,,,,,,,,,,,222.67214690009132,None,223.35603450005874,223.95586860040203,223.93940290017053,225.9397746999748,None,1,0.6113046398386359,2.6116032395511866,increament,0.6,45,standard,None,100,,,,,,,,f,28,214,fr,r,0,raw,2022-05-25_14h44.46.599,oddball,2022.1.2,59.9591558749788,
20,,,,,0,0,0,3,1,0,1,0,16,0,16,0,,,,,,,,,,,,,,,,,225.9567550001666,None,226.8070179000497,227.40746400039643,227.3906634002924,229.39164640009403,j,0,0.61270154081285,2.613706740550697,increament,0.6,45,standard,None,100,1.7176089002750814,,,,,,,f,28,214,fr,r,0,raw,2022-05-25_14h44.46.599,oddball,2022.1.2,59.9591558749788,
20,,,,,0,0,0,3,1,0,1,0,17,0,17,0,,,,,,,,,,,,,,,,,229.40820130007342,None,230.0589654999785,230.65872520022094,230.64243500027806,232.64280210016295,None,1,0.6096983407624066,2.61002334067598,increament,0.6,45,standard,None,100,,,,,,,,f,28,214,fr,r,0,raw,2022-05-25_14h44.46.599,oddball,2022.1.2,59.9591558749788,
20,,,,,0,0,0,3,1,0,1,0,18,0,18,0,,,,,,,,,,,,,,,,,232.65927730035037,None,233.32616880023852,233.92651490028948,233.91028800001368,235.91054770024493,None,1,0.61336713982746,2.613547539804131,increament,0.6,45,standard,None,100,,,,,,,,f,28,214,fr,r,0,raw,2022-05-25_14h44.46.599,oddball,2022.1.2,59.9591558749788,
20,,,,,0,0,0,3,1,0,1,0,19,0,19,0,,,,,,,,,,,,,,,,,235.9271575002931,None,236.6277098003775,237.227630100213,237.21152400039136,239.21198970032856,None,1,0.6124411402270198,2.612915340345353,increament,0.6,45,standard,None,100,,,,,,,,f,28,214,fr,r,0,raw,2022-05-25_14h44.46.599,oddball,2022.1.2,59.9591558749788,
20,,,,,0,0,0,3,1,0,1,0,20,0,20,0,,,,,,,,,,,,,,,,,239.22954550012946,None,239.8453208003193,240.4454103000462,240.42900340026245,242.43010730016977,None,1,0.6133273397572339,2.6145336399786174,increament,0.6,45,standard,None,100,,,,,,,,f,28,214,fr,r,0,raw,2022-05-25_14h44.46.599,oddball,2022.1.2,59.9591558749788,
20,,,,,0,0,0,3,1,0,1,0,21,0,21,0,,,,,,,,,,,,,,,,,242.44782340014353,None,243.09668860025704,243.69681360013783,243.6802656003274,245.68074040021747,None,1,0.6124711399897933,2.6129353400319815,increament,0.6,45,standard,None,100,,,,,,,,f,28,214,fr,r,0,raw,2022-05-25_14h44.46.599,oddball,2022.1.2,59.9591558749788,
20,,,,,0,0,0,3,1,0,1,0,22,0,22,0,,,,,,,,,,,,,,,,,245.6974597000517,None,246.3810996999964,246.98132280027494,246.96494089998305,248.96529410034418,j,0,0.612321540247649,2.612675739917904,increament,0.6,45,standard,None,100,0.6314795999787748,,,,,,,f,28,214,fr,r,0,raw,2022-05-25_14h44.46.599,oddball,2022.1.2,59.9591558749788,
20,,,,,0,0,0,3,1,0,1,0,23,0,23,0,,,,,,,,,,,,,,,,,248.9823871003464,None,249.64911040011793,250.38292790018022,250.3498949003406,252.35029410012066,None,0,0.728221139870584,2.7286320398561656,increament,0.72,46,oddball,j,120,,,,,,,,f,28,214,fr,r,0,raw,2022-05-25_14h44.46.599,oddball,2022.1.2,59.9591558749788,
20,,,,,0,0,0,3,1,0,1,0,24,0,24,0,,,,,,,,,,,,,,,,,252.36759420018643,None,252.91684920014814,253.5170706002973,253.5005137003027,255.5014539002441,None,1,0.613107240293175,2.6141209406778216,increament,0.6,45,standard,None,100,,,,,,,,f,28,214,fr,r,0,raw,2022-05-25_14h44.46.599,oddball,2022.1.2,59.9591558749788,
20,,,,,0,0,0,3,1,0,1,0,25,0,25,0,,,,,,,,,,,,,,,,,255.5180369000882,None,256.1016446002759,256.7016887003556,256.6856158999726,258.6857397002168,None,1,0.6133289402350783,2.6133743403479457,increament,0.6,45,standard,None,100,,,,,,,,f,28,214,fr,r,0,raw,2022-05-25_14h44.46.599,oddball,2022.1.2,59.9591558749788,
20,,,,,0,0,0,3,1,0,1,0,26,0,26,0,,,,,,,,,,,,,,,,,258.70251510012895,None,259.3195190001279,259.91979780001566,259.9031037003733,261.90371540002525,None,1,0.6131111402064562,2.6136382399126887,increament,0.6,45,standard,None,100,,,,,,,,f,28,214,fr,r,0,raw,2022-05-25_14h44.46.599,oddball,2022.1.2,59.9591558749788,
20,,,,,0,0,0,3,1,0,1,0,27,0,27,0,,,,,,,,,,,,,,,,,261.9203425999731,None,262.4705797000788,263.0710946000181,263.0542558003217,265.05509030027315,None,1,0.6130900396965444,2.613750039599836,increament,0.6,45,standard,None,100,,,,,,,,f,28,214,fr,r,0,raw,2022-05-25_14h44.46.599,oddball,2022.1.2,59.9591558749788,
20,,,,,0,0,0,3,1,0,1,0,28,0,28,0,,,,,,,,,,,,,,,,,265.0715666003525,None,265.8384724999778,266.4387350003235,266.4220995004289,268.4226326001808,j,0,0.6132872402667999,2.6138263405300677,increament,0.6,45,standard,None,100,0.10423530032858253,,,,,,,f,28,214,fr,r,0,raw,2022-05-25_14h44.46.599,oddball,2022.1.2,59.9591558749788,
20,,,,,0,0,0,3,1,0,1,0,29,0,29,0,,,,,,,,,,,,,,,,,268.4392902003601,None,269.03971220040694,269.890286100097,269.85715740034357,271.8572189002298,j,1,0.8462869399227202,2.8462530402466655,increament,0.84,47,oddball,j,140,0.22774540027603507,,,,,,,f,28,214,fr,r,0,raw,2022-05-25_14h44.46.599,oddball,2022.1.2,59.9591558749788,
20,,,,,0,0,0,3,2,0,2,0,0,0,0,0,,,,,,,,,,,,,,,274.18105220003054,None,277.5260976999998,None,278.15990040032193,278.7599142002873,278.74323710007593,280.7439787001349,None,1,0.6136329397559166,2.614360440056771,decreament,0.6,41,standard,None,100,,271.8745262003504,None,,,,,f,28,214,fr,r,0,raw,2022-05-25_14h44.46.599,oddball,2022.1.2,59.9591558749788,
20,,,,,0,0,0,3,2,0,2,0,1,0,1,0,,,,,,,,,,,,,,,,,280.7607841002755,None,281.49475400010124,282.0946406000294,282.07819870021194,284.07864359999076,None,1,0.6124168406240642,2.6128485407680273,decreament,0.6,41,standard,None,100,,,,,,,,f,28,214,fr,r,0,raw,2022-05-25_14h44.46.599,oddball,2022.1.2,59.9591558749788,
20,,,,,0,0,0,3,2,0,2,0,2,0,2,0,,,,,,,,,,,,,,,,,284.09567560022697,None,284.8622287004255,285.462988300249,285.4463139004074,287.4469391000457,None,1,0.6104979398660362,2.611049340106547,decreament,0.6,41,standard,None,100,,,,,,,,f,28,214,fr,r,0,raw,2022-05-25_14h44.46.599,oddball,2022.1.2,59.9591558749788,
20,,,,,0,0,0,3,2,0,2,0,3,0,3,0,,,,,,,,,,,,,,,,,287.46341730002314,None,288.1301896004006,288.73040860006586,288.71393300034106,290.71509880013764,None,1,0.6144799403846264,2.6157102403230965,decreament,0.6,41,standard,None,100,,,,,,,,f,28,214,fr,r,0,raw,2022-05-25_14h44.46.599,oddball,2022.1.2,59.9591558749788,
20,,,,,0,0,0,3,2,0,2,0,4,0,4,0,,,,,,,,,,,,,,,,,290.73254980007187,None,291.3483188999817,291.9483722001314,291.9319144003093,293.93262900039554,None,1,0.6093472405336797,2.610066340304911,decreament,0.6,41,standard,None,100,,,,,,,,f,28,214,fr,r,0,raw,2022-05-25_14h44.46.599,oddball,2022.1.2,59.9591558749788,
20,,,,,0,0,0,3,2,0,2,0,5,0,5,0,,,,,,,,,,,,,,,,,293.94906820030883,None,294.6664240001701,295.26595380017534,295.2492694002576,297.25075580039993,None,1,0.609978140797466,2.6115549406968057,decreament,0.6,41,standard,None,100,,,,,,,,f,28,214,fr,r,0,raw,2022-05-25_14h44.46.599,oddball,2022.1.2,59.9591558749788,
20,,,,,0,0,0,3,2,0,2,0,6,0,6,0,,,,,,,,,,,,,,,,,297.26695389999077,None,297.95071860030293,298.5509425001219,298.5341801000759,300.535040799994,None,1,0.6125911399722099,2.6134642399847507,decreament,0.6,41,standard,None,100,,,,,,,,f,28,214,fr,r,0,raw,2022-05-25_14h44.46.599,oddball,2022.1.2,59.9591558749788,
20,,,,,0,0,0,3,2,0,2,0,7,0,7,0,,,,,,,,,,,,,,,,,300.5517063001171,None,301.2352283000946,301.6023734002374,301.56880480004475,303.57009170018137,None,0,0.36255124071612954,2.36386344069615,decreament,0.36,43,oddball,j,60,,,,,,,,f,28,214,fr,r,0,raw,2022-05-25_14h44.46.599,oddball,2022.1.2,59.9591558749788,
20,,,,,0,0,0,3,2,0,2,0,8,0,8,0,,,,,,,,,,,,,,,,,303.586100500077,None,304.3031132002361,304.90293520037085,304.8862792002037,306.8872719001956,None,1,0.6124865408055484,2.6135354405269027,decreament,0.6,41,standard,None,100,,,,,,,,f,28,214,fr,r,0,raw,2022-05-25_14h44.46.599,oddball,2022.1.2,59.9591558749788,
20,,,,,0,0,0,3,2,0,2,0,9,0,9,0,,,,,,,,,,,,,,,,,306.9040369000286,None,307.6710218000226,308.2717246003449,308.2545620002784,310.25543370004743,None,1,0.6128122401423752,2.6136595401912928,decreament,0.6,41,standard,None,100,,,,,,,,f,28,214,fr,r,0,raw,2022-05-25_14h44.46.599,oddball,2022.1.2,59.9591558749788,
20,,,,,0,0,0,3,2,0,2,0,10,0,10,0,,,,,,,,,,,,,,,,,310.27191100036725,None,310.8728505000472,311.47285700030625,311.45595300011337,313.4564386000857,None,1,0.6093621402978897,2.6097746402956545,decreament,0.6,41,standard,None,100,,,,,,,,f,28,214,fr,r,0,raw,2022-05-25_14h44.46.599,oddball,2022.1.2,59.9591558749788,
20,,,,,0,0,0,3,2,0,2,0,11,0,11,0,,,,,,,,,,,,,,,,,313.47329750005156,None,313.99024600023404,314.5904726004228,314.5738349002786,316.5742146000266,None,1,0.6122046401724219,2.6125594400800765,decreament,0.6,41,standard,None,100,,,,,,,,f,28,214,fr,r,0,raw,2022-05-25_14h44.46.599,oddball,2022.1.2,59.9591558749788,
20,,,,,0,0,0,3,2,0,2,0,12,0,12,0,,,,,,,,,,,,,,,,,316.5909101003781,None,317.3915672004223,317.99148910027,317.9751197001897,319.97557720029727,None,1,0.6124718403443694,2.612908239942044,decreament,0.6,41,standard,None,100,,,,,,,,f,28,214,fr,r,0,raw,2022-05-25_14h44.46.599,oddball,2022.1.2,59.9591558749788,
20,,,,,0,0,0,3,2,0,2,0,13,0,13,0,,,,,,,,,,,,,,,,,319.99233960034326,None,320.54250760003924,321.14236900024116,321.1259288000874,323.127058500424,None,1,0.6120820404030383,2.613250140566379,decreament,0.6,41,standard,None,100,,,,,,,,f,28,214,fr,r,0,raw,2022-05-25_14h44.46.599,oddball,2022.1.2,59.9591558749788,
20,,,,,0,0,0,3,2,0,2,0,14,0,14,0,,,,,,,,,,,,,,,,,323.1434677001089,None,323.77717690030113,324.3771780002862,324.3608022001572,326.3613507002592,None,1,0.6128469398245215,2.6134406398050487,decreament,0.6,41,standard,None,100,,,,,,,,f,28,214,fr,r,0,raw,2022-05-25_14h44.46.599,oddball,2022.1.2,59.9591558749788,
20,,,,,0,0,0,3,2,0,2,0,15,0,15,0,,,,,,,,,,,,,,,,,326.37790750013664,None,326.96134570008144,327.5617087003775,327.5449763000943,329.5463335001841,None,1,0.613869640044868,2.6153445402160287,decreament,0.6,41,standard,None,100,,,,,,,,f,28,214,fr,r,0,raw,2022-05-25_14h44.46.599,oddball,2022.1.2,59.9591558749788,
20,,,,,0,0,0,3,2,0,2,0,16,0,16,0,,,,,,,,,,,,,,,,,329.5637373002246,None,330.14620540011674,330.7466087001376,330.73021360021085,332.73075410025194,j,0,0.6131815398111939,2.613722240086645,decreament,0.6,41,standard,None,100,1.8100447999313474,,,,,,,f,28,214,fr,r,0,raw,2022-05-25_14h44.46.599,oddball,2022.1.2,59.9591558749788,
20,,,,,0,0,0,3,2,0,2,0,17,0,17,0,,,,,,,,,,,,,,,,,332.74705280037597,None,333.41415029997006,334.0148284002207,333.99801420001313,335.9981746003032,None,1,0.6139410403557122,2.613980240188539,decreament,0.6,41,standard,None,100,,,,,,,,f,28,214,fr,r,0,raw,2022-05-25_14h44.46.599,oddball,2022.1.2,59.9591558749788,
20,,,,,0,0,0,3,2,0,2,0,18,0,18,0,,,,,,,,,,,,,,,,,336.0150181003846,None,336.6486546001397,337.24885170022026,337.2323752003722,339.23351750010625,None,1,0.6120233405381441,2.613208840601146,decreament,0.6,41,standard,None,100,,,,,,,,f,28,214,fr,r,0,raw,2022-05-25_14h44.46.599,oddball,2022.1.2,59.9591558749788,
20,,,,,0,0,0,3,2,0,2,0,19,0,19,0,,,,,,,,,,,,,,,,,339.2499354002066,None,339.9332212000154,340.53340720012784,340.5169877000153,342.51771440031007,None,1,0.6095132404007018,2.610253340099007,decreament,0.6,41,standard,None,100,,,,,,,,f,28,214,fr,r,0,raw,2022-05-25_14h44.46.599,oddball,2022.1.2,59.9591558749788,
20,,,,,0,0,0,3,2,0,2,0,20,0,20,0,,,,,,,,,,,,,,,,,342.5344916000031,None,343.2014884003438,343.80183910019696,343.785005800426,345.78552020015195,None,1,0.6104327398352325,2.610933039803058,decreament,0.6,41,standard,None,100,,,,,,,,f,28,214,fr,r,0,raw,2022-05-25_14h44.46.599,oddball,2022.1.2,59.9591558749788,
20,,,,,0,0,0,3,2,0,2,0,21,0,21,0,,,,,,,,,,,,,,,,,345.8025430999696,None,346.4853699002415,346.7358504002914,346.70256120013073,348.7031558002345,j,1,0.2482401398010552,2.2488158396445215,decreament,0.24,42,oddball,j,40,0.6227011000737548,,,,,,,f,28,214,fr,r,0,raw,2022-05-25_14h44.46.599,oddball,2022.1.2,59.9591558749788,
20,,,,,0,0,0,3,2,0,2,0,22,0,22,0,,,,,,,,,,,,,,,,,348.7200409001671,None,349.4201972000301,350.02062109997496,350.0035779001191,352.00460470002145,None,1,0.612655539996922,2.613683740142733,decreament,0.6,41,standard,None,100,,,,,,,,f,28,214,fr,r,0,raw,2022-05-25_14h44.46.599,oddball,2022.1.2,59.9591558749788,
20,,,,,0,0,0,3,2,0,2,0,23,0,23,0,,,,,,,,,,,,,,,,,352.02113610040396,None,352.8883746000938,353.4887644001283,353.47176860040054,355.4722325000912,None,1,0.6095061399973929,2.609938540030271,decreament,0.6,41,standard,None,100,,,,,,,,f,28,214,fr,r,0,raw,2022-05-25_14h44.46.599,oddball,2022.1.2,59.9591558749788,
20,,,,,0,0,0,3,2,0,2,0,24,0,24,0,,,,,,,,,,,,,,,,,355.48890010034665,None,356.20596580021083,356.8060684003867,356.7896948000416,358.7903428999707,None,1,0.6127567403018475,2.6134252403862774,decreament,0.6,41,standard,None,100,,,,,,,,f,28,214,fr,r,0,raw,2022-05-25_14h44.46.599,oddball,2022.1.2,59.9591558749788,
20,,,,,0,0,0,3,2,0,2,0,25,0,25,0,,,,,,,,,,,,,,,,,358.8071292000823,None,359.37392819998786,359.9746405002661,359.9576573004015,361.9580954001285,None,1,0.6135654402896762,2.6139611401595175,decreament,0.6,41,standard,None,100,,,,,,,,f,28,214,fr,r,0,raw,2022-05-25_14h44.46.599,oddball,2022.1.2,59.9591558749788,
20,,,,,0,0,0,3,2,0,2,0,26,0,26,0,,,,,,,,,,,,,,,,,361.975029299967,None,362.6750436001457,363.2752369004302,363.25858750008047,365.25938699999824,j,0,0.6131126401014626,2.6139033404178917,decreament,0.6,41,standard,None,100,0.7223642999306321,,,,,,,f,28,214,fr,r,0,raw,2022-05-25_14h44.46.599,oddball,2022.1.2,59.9591558749788,
20,,,,,0,0,0,3,2,0,2,0,27,0,27,0,,,,,,,,,,,,,,,,,365.2762859002687,None,365.92677080025896,366.4098436003551,366.3934131003916,368.3938007000834,None,0,0.49477304005995393,2.49506534030661,decreament,0.48,44,oddball,j,80,,,,,,,,f,28,214,fr,r,0,raw,2022-05-25_14h44.46.599,oddball,2022.1.2,59.9591558749788,
20,,,,,0,0,0,3,2,0,2,0,28,0,28,0,,,,,,,,,,,,,,,,,368.410599200055,None,368.9778518001549,369.57803560001776,369.56152920005843,371.5621655001305,None,1,0.6097976402379572,2.610391140449792,decreament,0.6,41,standard,None,100,,,,,,,,f,28,214,fr,r,0,raw,2022-05-25_14h44.46.599,oddball,2022.1.2,59.9591558749788,
20,,,,,0,0,0,3,2,0,2,0,29,0,29,0,,,,,,,,,,,,,,,,,371.5788476001471,None,372.11261680023745,372.7124099000357,372.6956111001782,374.69641150021926,None,1,0.6122151403687894,2.6130396402440965,decreament,0.6,41,standard,None,100,,,,,,,,f,28,214,fr,r,0,raw,2022-05-25_14h44.46.599,oddball,2022.1.2,59.9591558749788,
20,,,,,0,0,0,3,3,0,3,0,0,0,0,0,,,,,,,,,,,,,,,379.6683777002618,None,380.7321046004072,None,381.3324926001951,381.93302130000666,381.91613809997216,383.9164719004184,None,1,0.6104071401059628,2.610675340052694,increament,0.6,45,standard,None,100,,374.7134850001894,None,,,,,f,28,214,fr,r,0,raw,2022-05-25_14h44.46.599,oddball,2022.1.2,59.9591558749788,
20,,,,,0,0,0,3,3,0,3,0,1,0,1,0,,,,,,,,,,,,,,,,,383.93355670012534,None,384.6001445003785,385.20033000037074,385.1838090000674,387.1850662003271,None,1,0.6129374406300485,2.614303040318191,increament,0.6,45,standard,None,100,,,,,,,,f,28,214,fr,r,0,raw,2022-05-25_14h44.46.599,oddball,2022.1.2,59.9591558749788,
20,,,,,0,0,0,3,3,0,3,0,2,0,2,0,,,,,,,,,,,,,,,,,387.2017008000985,None,387.8347502001561,388.4352584001608,388.41860770015046,390.4188927002251,None,1,0.6133646401576698,2.613601040560752,increament,0.6,45,standard,None,100,,,,,,,,f,28,214,fr,r,0,raw,2022-05-25_14h44.46.599,oddball,2022.1.2,59.9591558749788,
20,,,,,0,0,0,3,3,0,3,0,3,0,3,0,,,,,,,,,,,,,,,,,390.4359438000247,None,391.2693826002069,391.8698697001673,391.8528115004301,393.8539214003831,None,1,0.6129753403365612,2.614141440484673,increament,0.6,45,standard,None,100,,,,,,,,f,28,214,fr,r,0,raw,2022-05-25_14h44.46.599,oddball,2022.1.2,59.9591558749788,
20,,,,,0,0,0,3,3,0,3,0,4,0,4,0,,,,,,,,,,,,,,,,,393.8707382003777,None,394.53753310022876,395.1374829001725,395.1210464001633,397.1216301000677,None,1,0.6127045406028628,2.613365940283984,increament,0.6,45,standard,None,100,,,,,,,,f,28,214,fr,r,0,raw,2022-05-25_14h44.46.599,oddball,2022.1.2,59.9591558749788,
20,,,,,0,0,0,3,3,0,3,0,5,0,5,0,,,,,,,,,,,,,,,,,397.1383286002092,None,397.771850600373,398.3721074000932,398.355313600041,400.3566429000348,None,1,0.6110136401839554,2.6123823397792876,increament,0.6,45,standard,None,100,,,,,,,,f,28,214,fr,r,0,raw,2022-05-25_14h44.46.599,oddball,2022.1.2,59.9591558749788,
20,,,,,0,0,0,3,3,0,3,0,6,0,6,0,,,,,,,,,,,,,,,,,400.37299620034173,None,401.1731204004027,401.7732476000674,401.7564703002572,403.75766420038417,None,1,0.6126982402056456,2.6140245404094458,increament,0.6,45,standard,None,100,,,,,,,,f,28,214,fr,r,0,raw,2022-05-25_14h44.46.599,oddball,2022.1.2,59.9591558749788,
20,,,,,0,0,0,3,3,0,3,0,7,0,7,0,,,,,,,,,,,,,,,,,403.7742032003589,None,404.4411951000802,405.0413310001604,405.0245731002651,407.0254605002701,None,1,0.6125414399430156,2.6135048400610685,increament,0.6,45,standard,None,100,,,,,,,,f,28,214,fr,r,0,raw,2022-05-25_14h44.46.599,oddball,2022.1.2,59.9591558749788,
20,,,,,0,0,0,3,3,0,3,0,8,0,8,0,,,,,,,,,,,,,,,,,407.0418353001587,None,407.67554160021245,408.2758500999771,408.25941860023886,410.2598677002825,None,1,0.6123781399801373,2.612797740381211,increament,0.6,45,standard,None,100,,,,,,,,f,28,214,fr,r,0,raw,2022-05-25_14h44.46.599,oddball,2022.1.2,59.9591558749788,
20,,,,,0,0,0,3,3,0,3,0,9,0,9,0,,,,,,,,,,,,,,,,,410.2765348004177,None,410.943555300124,411.91067290026695,411.8771744002588,413.8782362001948,j,1,0.96283153956756,2.9639518395997584,increament,0.96,48,oddball,j,160,0.0796627001836896,,,,,,,f,28,214,fr,r,0,raw,2022-05-25_14h44.46.599,oddball,2022.1.2,59.9591558749788,
20,,,,,0,0,0,3,3,0,3,0,10,0,10,0,,,,,,,,,,,,,,,,,413.8946193000302,None,414.44511780003086,415.04522560024634,415.02870020037517,417.0289374003187,None,1,0.6132235401310027,2.613331740256399,increament,0.6,45,standard,None,100,,,,,,,,f,28,214,fr,r,0,raw,2022-05-25_14h44.46.599,oddball,2022.1.2,59.9591558749788,
20,,,,,0,0,0,3,3,0,3,0,11,0,11,0,,,,,,,,,,,,,,,,,417.0459889001213,None,417.72945960005745,418.3293859004043,418.312798100058,420.31367740035057,None,1,0.61221964051947,2.6131340404972434,increament,0.6,45,standard,None,100,,,,,,,,f,28,214,fr,r,0,raw,2022-05-25_14h44.46.599,oddball,2022.1.2,59.9591558749788,
20,,,,,0,0,0,3,3,0,3,0,12,0,12,0,,,,,,,,,,,,,,,,,420.33032280020416,None,421.0972701003775,421.6974923000671,421.68085320014507,423.6820962000638,None,1,0.612207539845258,2.6135450396686792,increament,0.6,45,standard,None,100,,,,,,,,f,28,214,fr,r,0,raw,2022-05-25_14h44.46.599,oddball,2022.1.2,59.9591558749788,
20,,,,,0,0,0,3,3,0,3,0,13,0,13,0,,,,,,,,,,,,,,,,,423.6984020001255,None,424.331901000347,424.93230570014566,424.9156326004304,426.9163340004161,None,1,0.6128444406203926,2.6136009404435754,increament,0.6,45,standard,None,100,,,,,,,,f,28,214,fr,r,0,raw,2022-05-25_14h44.46.599,oddball,2022.1.2,59.9591558749788,
20,,,,,0,0,0,3,3,0,3,0,14,0,14,0,,,,,,,,,,,,,,,,,426.93339570006356,None,427.66638369997963,428.2664813003503,428.2502816002816,430.25081000011414,None,1,0.6122267399914563,2.612785639706999,increament,0.6,45,standard,None,100,,,,,,,,f,28,214,fr,r,0,raw,2022-05-25_14h44.46.599,oddball,2022.1.2,59.9591558749788,
20,,,,,0,0,0,3,3,0,3,0,15,0,15,0,,,,,,,,,,,,,,,,,430.2675857003778,None,430.951252900064,431.5512182000093,431.53478550026193,433.53532570041716,None,1,0.6095462404191494,2.6100539402104914,increament,0.6,45,standard,None,100,,,,,,,,f,28,214,fr,r,0,raw,2022-05-25_14h44.46.599,oddball,2022.1.2,59.9591558749788,
20,,,,,0,0,0,3,3,0,3,0,16,0,16,0,,,,,,,,,,,,,,,,,433.55220760032535,None,434.11905490001664,434.7192484000698,434.7024961002171,436.70342480018735,None,1,0.6130974404513836,2.614085940644145,increament,0.6,45,standard,None,100,,,,,,,,f,28,214,fr,r,0,raw,2022-05-25_14h44.46.599,oddball,2022.1.2,59.9591558749788,
20,,,,,0,0,0,3,3,0,3,0,17,0,17,0,,,,,,,,,,,,,,,,,436.71979340026155,None,437.40357300033793,438.0038934000768,437.9875481002964,439.9881007000804,None,1,0.6108343405649066,2.6113388403318822,increament,0.6,45,standard,None,100,,,,,,,,f,28,214,fr,r,0,raw,2022-05-25_14h44.46.599,oddball,2022.1.2,59.9591558749788,
20,,,,,0,0,0,3,3,0,3,0,18,0,18,0,,,,,,,,,,,,,,,,,440.0044034002349,None,440.60524390032515,441.20486759999767,441.1883616000414,443.1889043999836,None,1,0.6090248404070735,2.6095909401774406,increament,0.6,45,standard,None,100,,,,,,,,f,28,214,fr,r,0,raw,2022-05-25_14h44.46.599,oddball,2022.1.2,59.9591558749788,
20,,,,,0,0,0,3,3,0,3,0,19,0,19,0,,,,,,,,,,,,,,,,,443.2058236002922,None,443.77248490042984,444.50616280036047,444.4728721003048,446.47366580041125,j,1,0.7289885403588414,2.7297600405290723,increament,0.72,46,oddball,j,120,0.3477302002720535,,,,,,,f,28,214,fr,r,0,raw,2022-05-25_14h44.46.599,oddball,2022.1.2,59.9591558749788,
20,,,,,0,0,0,3,3,0,3,0,20,0,20,0,,,,,,,,,,,,,,,,,446.490209300071,None,447.07391450041905,447.6739034000784,447.65782790025696,449.65800210041925,None,1,0.6117047402076423,2.6118972403928638,increament,0.6,45,standard,None,100,,,,,,,,f,28,214,fr,r,0,raw,2022-05-25_14h44.46.599,oddball,2022.1.2,59.9591558749788,
20,,,,,0,0,0,3,3,0,3,0,21,0,21,0,,,,,,,,,,,,,,,,,449.6749549000524,None,450.30842840019614,450.90898460010067,450.892197499983,452.8924895999953,None,1,0.6134082400240004,2.6136227399110794,increament,0.6,45,standard,None,100,,,,,,,,f,28,214,fr,r,0,raw,2022-05-25_14h44.46.599,oddball,2022.1.2,59.9591558749788,
20,,,,,0,0,0,3,3,0,3,0,22,0,22,0,,,,,,,,,,,,,,,,,452.9092314001173,None,453.67641580011696,454.2762996000238,454.259767500218,456.2611994002946,None,1,0.6132932403124869,2.614805140066892,increament,0.6,45,standard,None,100,,,,,,,,f,28,214,fr,r,0,raw,2022-05-25_14h44.46.599,oddball,2022.1.2,59.9591558749788,
20,,,,,0,0,0,3,3,0,3,0,23,0,23,0,,,,,,,,,,,,,,,,,456.27779160020873,None,456.9276893003844,457.52791150007397,457.51138920011,459.51205680007115,None,1,0.6127071403898299,2.613306540530175,increament,0.6,45,standard,None,100,,,,,,,,f,28,214,fr,r,0,raw,2022-05-25_14h44.46.599,oddball,2022.1.2,59.9591558749788,
20,,,,,0,0,0,3,3,0,3,0,24,0,24,0,,,,,,,,,,,,,,,,,459.5285643003881,None,460.0954990000464,460.69583120010793,460.6790407001972,462.67991900024936,None,1,0.6120070395991206,2.612924539949745,increament,0.6,45,standard,None,100,,,,,,,,f,28,214,fr,r,0,raw,2022-05-25_14h44.46.599,oddball,2022.1.2,59.9591558749788,
20,,,,,0,0,0,3,3,0,3,0,25,0,25,0,,,,,,,,,,,,,,,,,462.69627510011196,None,463.34692040039226,463.9471961003728,463.9302999000065,465.9308951999992,None,1,0.6096947402693331,2.6102332402952015,increament,0.6,45,standard,None,100,,,,,,,,f,28,214,fr,r,0,raw,2022-05-25_14h44.46.599,oddball,2022.1.2,59.9591558749788,
20,,,,,0,0,0,3,3,0,3,0,26,0,26,0,,,,,,,,,,,,,,,,,465.9475723002106,None,466.5813899002969,467.18100900016725,467.16435840027407,469.16507900040597,j,0,0.6086870403960347,2.6094252401962876,increament,0.6,45,standard,None,100,0.2803159998729825,,,,,,,f,28,214,fr,r,0,raw,2022-05-25_14h44.46.599,oddball,2022.1.2,59.9591558749788,
20,,,,,0,0,0,3,3,0,3,0,27,0,27,0,,,,,,,,,,,,,,,,,469.1817901004106,None,469.78214740008116,470.38238950027153,470.36560640018433,472.366290200036,None,1,0.6154084401205182,2.6160814403556287,increament,0.6,45,standard,None,100,,,,,,,,f,28,214,fr,r,0,raw,2022-05-25_14h44.46.599,oddball,2022.1.2,59.9591558749788,
20,,,,,0,0,0,3,3,0,3,0,28,0,28,0,,,,,,,,,,,,,,,,,472.38298610039055,None,473.10050110006705,473.7000302001834,473.683504300192,475.68447219999507,None,1,0.6115013402886689,2.6125030401162803,increament,0.6,45,standard,None,100,,,,,,,,f,28,214,fr,r,0,raw,2022-05-25_14h44.46.599,oddball,2022.1.2,59.9591558749788,
20,,,,,0,0,0,3,3,0,3,0,29,0,29,0,,,,,,,,,,,,,,,,,475.7012203000486,None,476.4345806003548,477.28530010022223,477.25230670021847,479.2531598000787,j,1,0.8484753402881324,2.8493921402841806,increament,0.84,47,oddball,j,140,0.5678273001685739,,,,,,,f,28,214,fr,r,0,raw,2022-05-25_14h44.46.599,oddball,2022.1.2,59.9591558749788,
20,,,,,0,0,0,3,4,0,4,0,0,0,0,0,,,,,,,,,,,,,,,483.6576674003154,None,484.7045464999974,None,485.2553250002675,485.8553583002649,485.8384302002378,487.8394193002023,None,1,0.6101897405460477,2.611243940424174,decreament,0.6,41,standard,None,100,,479.26947640022263,None,,,,,f,28,214,fr,r,0,raw,2022-05-25_14h44.46.599,oddball,2022.1.2,59.9591558749788,
20,,,,,0,0,0,3,4,0,4,0,1,0,1,0,,,,,,,,,,,,,,,,,487.85582980001345,None,488.473201200366,489.0731468000449,489.0584903000854,None,None,1,0.6133539406582713,2.612306640483439,decreament,0.6,41,standard,None,100,,,,,,,,f,28,214,fr,r,0,raw,2022-05-25_14h44.46.599,oddball,2022.1.2,59.9591558749788,
20,,,,,0,0,0,3,4,0,4,0,2,0,2,0,,,,,,,,,,,,,,,,,491.07415170036256,None,491.757700400427,492.35750670032576,492.3411660003476,494.3421684000641,None,1,0.6126472405157983,2.613795940298587,decreament,0.6,41,standard,None,100,,,,,,,,f,28,214,fr,r,0,raw,2022-05-25_14h44.46.599,oddball,2022.1.2,59.9591558749788,
20,,,,,0,0,0,3,4,0,4,0,3,0,3,0,,,,,,,,,,,,,,,,,494.3583154003136,None,494.9589731004089,495.5587377003394,495.5421178000979,497.54312669998035,None,1,0.6114007402211428,2.612483240198344,decreament,0.6,41,standard,None,100,,,,,,,,f,28,214,fr,r,0,raw,2022-05-25_14h44.46.599,oddball,2022.1.2,59.9591558749788,
20,,,,,0,0,0,3,4,0,4,0,4,0,4,0,,,,,,,,,,,,,,,,,497.55943090002984,None,498.17678190022707,498.77649540035054,498.7599715003744,500.760609799996,None,1,0.6116649396717548,2.612315139733255,decreament,0.6,41,standard,None,100,,,,,,,,f,28,214,fr,r,0,raw,2022-05-25_14h44.46.599,oddball,2022.1.2,59.9591558749788,
20,,,,,0,0,0,3,4,0,4,0,5,0,5,0,,,,,,,,,,,,,,,,,500.7775332001038,None,501.3943054000847,501.6444389000535,501.6112158000469,503.61209030030295,None,0,0.2470627403818071,2.247868040576577,decreament,0.24,42,oddball,j,40,,,,,,,,f,28,214,fr,r,0,raw,2022-05-25_14h44.46.599,oddball,2022.1.2,59.9591558749788,
20,,,,,0,0,0,3,4,0,4,0,6,0,6,0,,,,,,,,,,,,,,,,,503.6287573999725,None,504.3122457000427,504.91233810037374,504.89561860030517,506.8967003002763,None,1,0.6105832401663065,2.61168624041602,decreament,0.6,41,standard,None,100,,,,,,,,f,28,214,fr,r,0,raw,2022-05-25_14h44.46.599,oddball,2022.1.2,59.9591558749788,
20,,,,,0,0,0,3,4,0,4,0,7,0,7,0,,,,,,,,,,,,,,,,,506.9131667003967,None,507.73060140013695,508.3305385001004,508.31371110025793,510.3144343001768,None,1,0.6106117404997349,2.611328340601176,decreament,0.6,41,standard,None,100,,,,,,,,f,28,214,fr,r,0,raw,2022-05-25_14h44.46.599,oddball,2022.1.2,59.9591558749788,
20,,,,,0,0,0,3,4,0,4,0,8,0,8,0,,,,,,,,,,,,,,,,,510.33116800012067,None,510.84781630011275,511.448118600063,511.43162360042334,513.4322864999995,None,1,0.6123650404624641,2.6129822405055165,decreament,0.6,41,standard,None,100,,,,,,,,f,28,214,fr,r,0,raw,2022-05-25_14h44.46.599,oddball,2022.1.2,59.9591558749788,
20,,,,,0,0,0,3,4,0,4,0,9,0,9,0,,,,,,,,,,,,,,,,,513.4489739001729,None,514.098978199996,514.6992887002416,514.6827233000658,516.6837037000805,None,1,0.6138597405515611,2.614920740481466,decreament,0.6,41,standard,None,100,,,,,,,,f,28,214,fr,r,0,raw,2022-05-25_14h44.46.599,oddball,2022.1.2,59.9591558749788,
20,,,,,0,0,0,3,4,0,4,0,10,0,10,0,,,,,,,,,,,,,,,,,516.7003889000043,None,517.3009534003213,517.9007155001163,517.8842892004177,519.8849780000746,None,1,0.6100063407793641,2.610694140661508,decreament,0.6,41,standard,None,100,,,,,,,,f,28,214,fr,r,0,raw,2022-05-25_14h44.46.599,oddball,2022.1.2,59.9591558749788,
20,,,,,0,0,0,3,4,0,4,0,11,0,11,0,,,,,,,,,,,,,,,,,519.9016283000819,None,520.6852509002201,521.2851705001667,521.2687316001393,523.2698165001348,None,1,0.610568240750581,2.6116831405088305,decreament,0.6,41,standard,None,100,,,,,,,,f,28,214,fr,r,0,raw,2022-05-25_14h44.46.599,oddball,2022.1.2,59.9591558749788,
20,,,,,0,0,0,3,4,0,4,0,12,0,12,0,,,,,,,,,,,,,,,,,523.2865526000969,None,523.8867493001744,524.4862116002478,524.4697330002673,526.4706051000394,None,1,0.6109444401226938,2.6118311402387917,decreament,0.6,41,standard,None,100,,,,,,,,f,28,214,fr,r,0,raw,2022-05-25_14h44.46.599,oddball,2022.1.2,59.9591558749788,
20,,,,,0,0,0,3,4,0,4,0,13,0,13,0,,,,,,,,,,,,,,,,,526.4875505003147,None,527.187361500226,527.671012100298,527.637408000417,529.6385408001952,None,0,0.4793985397554934,2.4805419398471713,decreament,0.48,44,oddball,j,80,,,,,,,,f,28,214,fr,r,0,raw,2022-05-25_14h44.46.599,oddball,2022.1.2,59.9591558749788,
20,,,,,0,0,0,3,4,0,4,0,14,0,14,0,,,,,,,,,,,,,,,,,529.6550110001117,None,530.3390558003448,530.9391514002346,530.9221803001128,532.9231674000621,None,1,0.6112171402201056,2.6122277402319014,decreament,0.6,41,standard,None,100,,,,,,,,f,28,214,fr,r,0,raw,2022-05-25_14h44.46.599,oddball,2022.1.2,59.9591558749788,
20,,,,,0,0,0,3,4,0,4,0,15,0,15,0,,,,,,,,,,,,,,,,,532.9400689001195,None,533.7400935003534,534.3405989003368,534.3236624002457,536.3245480000041,None,1,0.6119734402745962,2.6128898402675986,decreament,0.6,41,standard,None,100,,,,,,,,f,28,214,fr,r,0,raw,2022-05-25_14h44.46.599,oddball,2022.1.2,59.9591558749788,
20,,,,,0,0,0,3,4,0,4,0,16,0,16,0,,,,,,,,,,,,,,,,,536.341632200405,None,536.9242714000866,537.5248482003808,537.5083062001504,539.5088376002386,None,1,0.614863540045917,2.6153260399587452,decreament,0.6,41,standard,None,100,,,,,,,,f,28,214,fr,r,0,raw,2022-05-25_14h44.46.599,oddball,2022.1.2,59.9591558749788,
20,,,,,0,0,0,3,4,0,4,0,17,0,17,0,,,,,,,,,,,,,,,,,539.5254521002062,None,540.2258435999975,540.8259359002113,540.8093651002273,542.8103877003305,None,1,0.611519240308553,2.6125555401667953,decreament,0.6,41,standard,None,100,,,,,,,,f,28,214,fr,r,0,raw,2022-05-25_14h44.46.599,oddball,2022.1.2,59.9591558749788,
20,,,,,0,0,0,3,4,0,4,0,18,0,18,0,,,,,,,,,,,,,,,,,542.8271421003155,None,543.4105058000423,543.7766865002923,543.7601868002675,545.7609682003967,j,1,0.37441714061424136,2.375220540445298,decreament,0.36,43,oddball,j,60,0.6834460999816656,,,,,,,f,28,214,fr,r,0,raw,2022-05-25_14h44.46.599,oddball,2022.1.2,59.9591558749788,
20,,,,,0,0,0,3,4,0,4,0,19,0,19,0,,,,,,,,,,,,,,,,,545.7777671003714,None,546.4787447000854,547.078332700301,547.06158400001,549.0628918004222,None,1,0.6074313404969871,2.6088647404685616,decreament,0.6,41,standard,None,100,,,,,,,,f,28,214,fr,r,0,raw,2022-05-25_14h44.46.599,oddball,2022.1.2,59.9591558749788,
20,,,,,0,0,0,3,4,0,4,0,20,0,20,0,,,,,,,,,,,,,,,,,549.0794676002115,None,549.6794785000384,550.279731400311,550.2637045001611,552.2636574003845,None,1,0.6131082400679588,2.6129898400977254,decreament,0.6,41,standard,None,100,,,,,,,,f,28,214,fr,r,0,raw,2022-05-25_14h44.46.599,oddball,2022.1.2,59.9591558749788,
20,,,,,0,0,0,3,4,0,4,0,21,0,21,0,,,,,,,,,,,,,,,,,552.2806174000725,None,552.9638355001807,553.564011500217,553.5478010000661,555.5483624003828,None,1,0.6131572402082384,2.613746739923954,decreament,0.6,41,standard,None,100,,,,,,,,f,28,214,fr,r,0,raw,2022-05-25_14h44.46.599,oddball,2022.1.2,59.9591558749788,
20,,,,,0,0,0,3,4,0,4,0,22,0,22,0,,,,,,,,,,,,,,,,,555.5652426001616,None,556.4320044000633,557.0319372001104,557.0158677003346,559.0161201003939,j,0,0.6113060396164656,2.611482239793986,decreament,0.6,41,standard,None,100,0.5320472000166774,,,,,,,f,28,214,fr,r,0,raw,2022-05-25_14h44.46.599,oddball,2022.1.2,59.9591558749788,
20,,,,,0,0,0,3,4,0,4,0,23,0,23,0,,,,,,,,,,,,,,,,,559.033196200151,None,559.5833881003782,560.1832442004234,560.1665756003931,562.1673318003304,None,1,0.6095609404146671,2.6103292400948703,decreament,0.6,41,standard,None,100,,,,,,,,f,28,214,fr,r,0,raw,2022-05-25_14h44.46.599,oddball,2022.1.2,59.9591558749788,
20,,,,,0,0,0,3,4,0,4,0,24,0,24,0,,,,,,,,,,,,,,,,,562.1842491002753,None,562.9181983000599,563.518012100365,563.5013117003255,565.5023701000027,None,1,0.6105306399986148,2.6115930401720107,decreament,0.6,41,standard,None,100,,,,,,,,f,28,214,fr,r,0,raw,2022-05-25_14h44.46.599,oddball,2022.1.2,59.9591558749788,
20,,,,,0,0,0,3,4,0,4,0,25,0,25,0,,,,,,,,,,,,,,,,,565.5186524000019,None,566.1525910003111,566.7524100001901,566.7360290000215,568.736395300366,None,1,0.6129283402115107,2.6132005401887,decreament,0.6,41,standard,None,100,,,,,,,,f,28,214,fr,r,0,raw,2022-05-25_14h44.46.599,oddball,2022.1.2,59.9591558749788,
20,,,,,0,0,0,3,4,0,4,0,26,0,26,0,,,,,,,,,,,,,,,,,568.7534523000941,None,569.3035795004107,569.9035334000364,569.8872580002062,571.887707200367,None,1,0.6124305399134755,2.6129526402801275,decreament,0.6,41,standard,None,100,,,,,,,,f,28,214,fr,r,0,raw,2022-05-25_14h44.46.599,oddball,2022.1.2,59.9591558749788,
20,,,,,0,0,0,3,4,0,4,0,27,0,27,0,,,,,,,,,,,,,,,,,571.9045056002215,None,572.4381878999993,573.0381673001684,573.02185020037,575.0227030999959,None,1,0.612867440097034,2.6137913400307298,decreament,0.6,41,standard,None,100,,,,,,,,f,28,214,fr,r,0,raw,2022-05-25_14h44.46.599,oddball,2022.1.2,59.9591558749788,
20,,,,,0,0,0,3,4,0,4,0,28,0,28,0,,,,,,,,,,,,,,,,,575.0398246003315,None,575.7230203002691,576.3228183002211,576.3061133003794,578.3067086003721,None,1,0.6098522404208779,2.6104516400955617,decreament,0.6,41,standard,None,100,,,,,,,,f,28,214,fr,r,0,raw,2022-05-25_14h44.46.599,oddball,2022.1.2,59.9591558749788,
20,,,,,0,0,0,3,4,0,4,0,29,0,29,0,,,,,,,,,,,,,,,,,578.3235736000352,None,578.9573171003722,579.5573794003576,579.540806800127,581.5411865999922,None,1,0.6122892396524549,2.6126144398003817,decreament,0.6,41,standard,None,100,,,,,,,,f,28,214,fr,r,0,raw,2022-05-25_14h44.46.599,oddball,2022.1.2,59.9591558749788,
20,,,,,0,0,0,3,5,0,5,0,0,0,0,0,,,,,,,,,,,,,,,585.9830432999879,None,599.248350400012,None,599.9315899000503,600.5318764001131,600.5154558001086,602.5162284001708,None,1,0.6130470400676131,2.613856340292841,increament,0.6,45,standard,None,100,,581.5582473999821,None,,,,,f,28,214,fr,r,0,raw,2022-05-25_14h44.46.599,oddball,2022.1.2,59.9591558749788,
20,,,,,0,0,0,3,5,0,5,0,1,0,1,0,,,,,,,,,,,,,,,,,602.5326922000386,None,603.2162089999765,603.8163692001253,603.8000167002901,605.8004833003506,None,1,0.6134297400712967,2.6138929398730397,increament,0.6,45,standard,None,100,,,,,,,,f,28,214,fr,r,0,raw,2022-05-25_14h44.46.599,oddball,2022.1.2,59.9591558749788,
20,,,,,0,0,0,3,5,0,5,0,2,0,2,0,,,,,,,,,,,,,,,,,605.8175511001609,None,606.4507380002178,607.0512070003897,607.0349953002296,609.0351154003292,None,1,0.6097894399426877,2.609856740105897,increament,0.6,45,standard,None,100,,,,,,,,f,28,214,fr,r,0,raw,2022-05-25_14h44.46.599,oddball,2022.1.2,59.9591558749788,
20,,,,,0,0,0,3,5,0,5,0,3,0,3,0,,,,,,,,,,,,,,,,,609.0521441004239,None,609.7356332000345,610.3353749001399,610.3188694003038,612.3196174004115,None,1,0.6111311400309205,2.6119145397096872,increament,0.6,45,standard,None,100,,,,,,,,f,28,214,fr,r,0,raw,2022-05-25_14h44.46.599,oddball,2022.1.2,59.9591558749788,
20,,,,,0,0,0,3,5,0,5,0,4,0,4,0,,,,,,,,,,,,,,,,,612.3366404003464,None,612.9538462003693,613.553588300012,613.5370375001803,615.5380563000217,None,1,0.612016340252012,2.6130839404650033,increament,0.6,45,standard,None,100,,,,,,,,f,28,214,fr,r,0,raw,2022-05-25_14h44.46.599,oddball,2022.1.2,59.9591558749788,
20,,,,,0,0,0,3,5,0,5,0,5,0,5,0,,,,,,,,,,,,,,,,,615.5558012002148,None,616.1212202999741,616.7211988000199,616.7047740002163,618.7057298002765,None,1,0.6105859405361116,2.6116091404110193,increament,0.6,45,standard,None,100,,,,,,,,f,28,214,fr,r,0,raw,2022-05-25_14h44.46.599,oddball,2022.1.2,59.9591558749788,
20,,,,,0,0,0,3,5,0,5,0,6,0,6,0,,,,,,,,,,,,,,,,,618.7224028999917,None,619.3891278002411,620.1228030002676,620.0892328000627,622.0905850003473,None,0,0.7299029403366148,2.731327840127051,increament,0.72,46,oddball,j,120,,,,,,,,f,28,214,fr,r,0,raw,2022-05-25_14h44.46.599,oddball,2022.1.2,59.9591558749788,
20,,,,,0,0,0,3,5,0,5,0,7,0,7,0,,,,,,,,,,,,,,,,,622.1070008003153,None,622.6572953001596,623.2570817000233,623.2406855002046,625.2415015003644,None,1,0.6125212400220335,2.613425639923662,increament,0.6,45,standard,None,100,,,,,,,,f,28,214,fr,r,0,raw,2022-05-25_14h44.46.599,oddball,2022.1.2,59.9591558749788,
20,,,,,0,0,0,3,5,0,5,0,8,0,8,0,,,,,,,,,,,,,,,,,625.2591961002909,None,625.8250084002502,626.4251258000731,626.4087811000645,628.4093549000099,None,1,0.6132517401129007,2.613796240184456,increament,0.6,45,standard,None,100,,,,,,,,f,28,214,fr,r,0,raw,2022-05-25_14h44.46.599,oddball,2022.1.2,59.9591558749788,
20,,,,,0,0,0,3,5,0,5,0,9,0,9,0,,,,,,,,,,,,,,,,,628.4260548003949,None,629.0594723001122,629.6595022003166,629.6429950003512,631.6438975003548,None,1,0.6115008401684463,2.612407439853996,increament,0.6,45,standard,None,100,,,,,,,,f,28,214,fr,r,0,raw,2022-05-25_14h44.46.599,oddball,2022.1.2,59.9591558749788,
20,,,,,0,0,0,3,5,0,5,0,10,0,10,0,,,,,,,,,,,,,,,,,631.660442000255,None,632.3275851001963,632.927680300083,632.9107677000575,634.9118506000377,None,1,0.6091902395710349,2.6103041395545006,increament,0.6,45,standard,None,100,,,,,,,,f,28,214,fr,r,0,raw,2022-05-25_14h44.46.599,oddball,2022.1.2,59.9591558749788,
20,,,,,0,0,0,3,5,0,5,0,11,0,11,0,,,,,,,,,,,,,,,,,634.928258900065,None,635.7286678003147,636.3290059003048,636.3124822000973,638.3129863003269,None,1,0.6114538400433958,2.6119399396702647,increament,0.6,45,standard,None,100,,,,,,,,f,28,214,fr,r,0,raw,2022-05-25_14h44.46.599,oddball,2022.1.2,59.9591558749788,
20,,,,,0,0,0,3,5,0,5,0,12,0,12,0,,,,,,,,,,,,,,,,,638.3296547001228,None,638.9798259004019,639.5799786001444,639.5633857003413,641.5645072003826,None,1,0.6113534397445619,2.612510439939797,increament,0.6,45,standard,None,100,,,,,,,,f,28,214,fr,r,0,raw,2022-05-25_14h44.46.599,oddball,2022.1.2,59.9591558749788,
20,,,,,0,0,0,3,5,0,5,0,13,0,13,0,,,,,,,,,,,,,,,,,641.580947900191,None,642.214640900027,642.814616900403,642.797891900409,644.798859400209,None,1,0.6114438404329121,2.612434140406549,increament,0.6,45,standard,None,100,,,,,,,,f,28,214,fr,r,0,raw,2022-05-25_14h44.46.599,oddball,2022.1.2,59.9591558749788,
20,,,,,0,0,0,3,5,0,5,0,14,0,14,0,,,,,,,,,,,,,,,,,644.8156650001183,None,645.466029800009,646.0657918001525,646.0492172003724,648.0495284004137,None,1,0.609439339954406,2.6096865399740636,increament,0.6,45,standard,None,100,,,,,,,,f,28,214,fr,r,0,raw,2022-05-25_14h44.46.599,oddball,2022.1.2,59.9591558749788,
20,,,,,0,0,0,3,5,0,5,0,15,0,15,0,,,,,,,,,,,,,,,,,648.0662311003543,None,648.7335869004019,649.3337538000196,649.3169888001867,651.3181903003715,j,0,0.6111301402561367,2.61241384036839,increament,0.6,45,standard,None,100,0.3184911999851465,,,,,,,f,28,214,fr,r,0,raw,2022-05-25_14h44.46.599,oddball,2022.1.2,59.9591558749788,
20,,,,,0,0,0,3,5,0,5,0,16,0,16,0,,,,,,,,,,,,,,,,,651.3363434001803,None,651.9349951003678,652.534919900354,652.5186170004308,654.5190509003587,None,1,0.609978239517659,2.6103622396476567,increament,0.6,45,standard,None,100,,,,,,,,f,28,214,fr,r,0,raw,2022-05-25_14h44.46.599,oddball,2022.1.2,59.9591558749788,
20,,,,,0,0,0,3,5,0,5,0,17,0,17,0,,,,,,,,,,,,,,,,,654.5359269999899,None,655.3193264002912,656.1696380004287,656.1362359002233,658.1370843001641,j,1,0.8462908403016627,2.847182740457356,increament,0.84,47,oddball,j,140,0.6589585999026895,,,,,,,f,28,214,fr,r,0,raw,2022-05-25_14h44.46.599,oddball,2022.1.2,59.9591558749788,
20,,,,,0,0,0,3,5,0,5,0,18,0,18,0,,,,,,,,,,,,,,,,,658.1537854000926,None,658.7541088000871,659.3540539001115,659.3373886002228,661.3387392000295,None,1,0.6109956400468946,2.6124409399926662,increament,0.6,45,standard,None,100,,,,,,,,f,28,214,fr,r,0,raw,2022-05-25_14h44.46.599,oddball,2022.1.2,59.9591558749788,
20,,,,,0,0,0,3,5,0,5,0,19,0,19,0,,,,,,,,,,,,,,,,,661.35552620003,None,661.9388067000546,662.5385665004142,662.5222176001407,664.5229645003565,None,1,0.6093974402174354,2.6102316402830184,increament,0.6,45,standard,None,100,,,,,,,,f,28,214,fr,r,0,raw,2022-05-25_14h44.46.599,oddball,2022.1.2,59.9591558749788,
20,,,,,0,0,0,3,5,0,5,0,20,0,20,0,,,,,,,,,,,,,,,,,664.5395069001243,None,665.2897930000909,665.8899305001833,665.873462700285,667.8741086004302,None,1,0.6135137402452528,2.6141105401329696,increament,0.6,45,standard,None,100,,,,,,,,f,28,214,fr,r,0,raw,2022-05-25_14h44.46.599,oddball,2022.1.2,59.9591558749788,
20,,,,,0,0,0,3,5,0,5,0,21,0,21,0,,,,,,,,,,,,,,,,,667.8907355000265,None,668.5910015003756,669.1911838999949,669.1745786000974,671.1755184000358,None,1,0.6142050405032933,2.6151576405391097,increament,0.6,45,standard,None,100,,,,,,,,f,28,214,fr,r,0,raw,2022-05-25_14h44.46.599,oddball,2022.1.2,59.9591558749788,
20,,,,,0,0,0,3,5,0,5,0,22,0,22,0,,,,,,,,,,,,,,,,,671.1921098004095,None,671.8089073002338,672.7759190001525,672.7426516003907,674.7433443004265,j,1,0.9636696404777467,2.964348640292883,increament,0.96,48,oddball,j,160,0.10858080023899674,,,,,,,f,28,214,fr,r,0,raw,2022-05-25_14h44.46.599,oddball,2022.1.2,59.9591558749788,
20,,,,,0,0,0,3,5,0,5,0,23,0,23,0,,,,,,,,,,,,,,,,,674.7600657003932,None,675.3937742002308,675.9938923004083,675.9772320003249,677.9777355999686,None,1,0.6077217399142683,2.608146839775145,increament,0.6,45,standard,None,100,,,,,,,,f,28,214,fr,r,0,raw,2022-05-25_14h44.46.599,oddball,2022.1.2,59.9591558749788,
20,,,,,0,0,0,3,5,0,5,0,24,0,24,0,,,,,,,,,,,,,,,,,677.9946545003913,None,678.6950174001977,679.2950285002589,679.2787911002524,681.2789671001956,None,1,0.6134238406084478,2.6135234404355288,increament,0.6,45,standard,None,100,,,,,,,,f,28,214,fr,r,0,raw,2022-05-25_14h44.46.599,oddball,2022.1.2,59.9591558749788,
20,,,,,0,0,0,3,5,0,5,0,25,0,25,0,,,,,,,,,,,,,,,,,681.295638800133,None,681.8295498001389,682.4296617000364,682.4131797002628,684.41390829999,None,1,0.6130158402957022,2.6138121401891112,increament,0.6,45,standard,None,100,,,,,,,,f,28,214,fr,r,0,raw,2022-05-25_14h44.46.599,oddball,2022.1.2,59.9591558749788,
20,,,,,0,0,0,3,5,0,5,0,26,0,26,0,,,,,,,,,,,,,,,,,684.4310203003697,None,685.0306667000987,685.6308579002507,685.6144790002145,687.6151774004102,None,1,0.6115824398584664,2.612352340016514,increament,0.6,45,standard,None,100,,,,,,,,f,28,214,fr,r,0,raw,2022-05-25_14h44.46.599,oddball,2022.1.2,59.9591558749788,
20,,,,,0,0,0,3,5,0,5,0,27,0,27,0,,,,,,,,,,,,,,,,,687.6316627999768,None,688.4151261001825,689.0153797999956,688.9989193002693,690.999477900099,None,1,0.6129959402605891,2.613527640234679,increament,0.6,45,standard,None,100,,,,,,,,f,28,214,fr,r,0,raw,2022-05-25_14h44.46.599,oddball,2022.1.2,59.9591558749788,
20,,,,,0,0,0,3,5,0,5,0,28,0,28,0,,,,,,,,,,,,,,,,,691.0162808001041,None,691.5997510002926,692.20020140009,692.1838559000753,694.1841784999706,None,1,0.6130097396671772,2.6133368397131562,increament,0.6,45,standard,None,100,,,,,,,,f,28,214,fr,r,0,raw,2022-05-25_14h44.46.599,oddball,2022.1.2,59.9591558749788,
20,,,,,0,0,0,3,5,0,5,0,29,0,29,0,,,,,,,,,,,,,,,,,694.2011529002339,None,694.7843071003444,695.3844631002285,695.3684294000268,697.3686051000841,None,1,0.6138740400783718,2.614023440051824,increament,0.6,45,standard,None,100,,,,,,,,f,28,214,fr,r,0,raw,2022-05-25_14h44.46.599,oddball,2022.1.2,59.9591558749788,
20,,,,,0,0,0,3,6,0,6,0,0,0,0,0,,,,,,,,,,,,,,,702.7982792002149,None,708.2557651000097,None,708.8564611002803,709.4564529000781,709.4401138001122,711.4405171000399,None,1,0.612920940387994,2.613301740027964,decreament,0.6,41,standard,None,100,,697.3854546002112,None,,,,,f,28,214,fr,r,0,raw,2022-05-25_14h44.46.599,oddball,2022.1.2,59.9591558749788,
20,,,,,0,0,0,3,6,0,6,0,1,0,1,0,,,,,,,,,,,,,,,,,711.4573759003542,None,712.090844000224,712.6911146002822,712.6747964001261,714.6752164000645,None,1,0.6136565404012799,2.6140083405189216,decreament,0.6,41,standard,None,100,,,,,,,,f,28,214,fr,r,0,raw,2022-05-25_14h44.46.599,oddball,2022.1.2,59.9591558749788,
20,,,,,0,0,0,3,6,0,6,0,2,0,2,0,,,,,,,,,,,,,,,,,714.6920479000546,None,715.2587266000919,715.8587297000922,715.8422905001789,717.8426304003224,None,1,0.6128286402672529,2.6131380405277014,decreament,0.6,41,standard,None,100,,,,,,,,f,28,214,fr,r,0,raw,2022-05-25_14h44.46.599,oddball,2022.1.2,59.9591558749788,
20,,,,,0,0,0,3,6,0,6,0,3,0,3,0,,,,,,,,,,,,,,,,,717.8593747001141,None,718.4769163001329,719.0768397999927,719.0600644000806,721.0607956000604,None,1,0.6116980402730405,2.6124136401340365,decreament,0.6,41,standard,None,100,,,,,,,,f,28,214,fr,r,0,raw,2022-05-25_14h44.46.599,oddball,2022.1.2,59.9591558749788,
20,,,,,0,0,0,3,6,0,6,0,4,0,4,0,,,,,,,,,,,,,,,,,721.0776190999895,None,721.6781160002574,722.2779141003266,722.2612752001733,724.2621139003895,None,1,0.6117261406034231,2.6126020406372845,decreament,0.6,41,standard,None,100,,,,,,,,f,28,214,fr,r,0,raw,2022-05-25_14h44.46.599,oddball,2022.1.2,59.9591558749788,
20,,,,,0,0,0,3,6,0,6,0,5,0,5,0,,,,,,,,,,,,,,,,,724.2784492000937,None,725.0458124000579,725.6461342000403,725.6293300003745,727.6305984002538,None,1,0.6128647401928902,2.614182440098375,decreament,0.6,41,standard,None,100,,,,,,,,f,28,214,fr,r,0,raw,2022-05-25_14h44.46.599,oddball,2022.1.2,59.9591558749788,
20,,,,,0,0,0,3,6,0,6,0,6,0,6,0,,,,,,,,,,,,,,,,,727.6468580001965,None,728.2305984999985,728.8306504003704,728.8141875001602,730.8147797002457,None,1,0.6097353403456509,2.610280940309167,decreament,0.6,41,standard,None,100,,,,,,,,f,28,214,fr,r,0,raw,2022-05-25_14h44.46.599,oddball,2022.1.2,59.9591558749788,
20,,,,,0,0,0,3,6,0,6,0,7,0,7,0,,,,,,,,,,,,,,,,,730.8313567000441,None,731.5482772001997,732.1485227001831,732.1320526003838,734.1327212001197,None,1,0.6129857399500906,2.6137573402374983,decreament,0.6,41,standard,None,100,,,,,,,,f,28,214,fr,r,0,raw,2022-05-25_14h44.46.599,oddball,2022.1.2,59.9591558749788,
20,,,,,0,0,0,3,6,0,6,0,8,0,8,0,,,,,,,,,,,,,,,,,734.1492972001433,None,734.9495586003177,735.5494938003831,735.5330341001973,737.5337547003292,None,1,0.6128486404195428,2.6135888402350247,decreament,0.6,41,standard,None,100,,,,,,,,f,28,214,fr,r,0,raw,2022-05-25_14h44.46.599,oddball,2022.1.2,59.9591558749788,
20,,,,,0,0,0,3,6,0,6,0,9,0,9,0,,,,,,,,,,,,,,,,,737.5506347003393,None,738.2179072001018,738.817684000358,738.8009790000506,740.8019306003116,None,1,0.6100249402225018,2.6109629403799772,decreament,0.6,41,standard,None,100,,,,,,,,f,28,214,fr,r,0,raw,2022-05-25_14h44.46.599,oddball,2022.1.2,59.9591558749788,
20,,,,,0,0,0,3,6,0,6,0,10,0,10,0,,,,,,,,,,,,,,,,,740.8183743003756,None,741.3352581001818,741.9355458002537,741.9190134000964,743.9194843000732,None,1,0.6146818404085934,2.6150789400562644,decreament,0.6,41,standard,None,100,,,,,,,,f,28,214,fr,r,0,raw,2022-05-25_14h44.46.599,oddball,2022.1.2,59.9591558749788,
20,,,,,0,0,0,3,6,0,6,0,11,0,11,0,,,,,,,,,,,,,,,,,743.9360319999978,None,744.5703987004235,745.1700324001722,745.1538901003078,747.1542080002837,None,1,0.6087325401604176,2.6090650404803455,decreament,0.6,41,standard,None,100,,,,,,,,f,28,214,fr,r,0,raw,2022-05-25_14h44.46.599,oddball,2022.1.2,59.9591558749788,
20,,,,,0,0,0,3,6,0,6,0,12,0,12,0,,,,,,,,,,,,,,,,,747.172458300367,None,747.7047079000622,748.3045661002398,748.2879445999861,750.2889613001607,None,1,0.6112010404467583,2.612316940445453,decreament,0.6,41,standard,None,100,,,,,,,,f,28,214,fr,r,0,raw,2022-05-25_14h44.46.599,oddball,2022.1.2,59.9591558749788,
20,,,,,0,0,0,3,6,0,6,0,13,0,13,0,,,,,,,,,,,,,,,,,750.3054224001244,None,750.98896170035,751.5892674000934,751.57273740042,753.5731012001634,None,1,0.6123939398676157,2.6127177397720516,decreament,0.6,41,standard,None,100,,,,,,,,f,28,214,fr,r,0,raw,2022-05-25_14h44.46.599,oddball,2022.1.2,59.9591558749788,
20,,,,,0,0,0,3,6,0,6,0,14,0,14,0,,,,,,,,,,,,,,,,,753.5898163001984,None,754.157175600063,754.7573752002791,754.7406552000903,756.7409963002428,None,1,0.6102933399379253,2.6105682398192585,decreament,0.6,41,standard,None,100,,,,,,,,f,28,214,fr,r,0,raw,2022-05-25_14h44.46.599,oddball,2022.1.2,59.9591558749788,
20,,,,,0,0,0,3,6,0,6,0,15,0,15,0,,,,,,,,,,,,,,,,,756.7580282003619,None,757.5251264004037,758.1247281003743,758.1082668001764,760.1089176000096,None,1,0.6113276402465999,2.6119162403047085,decreament,0.6,41,standard,None,100,,,,,,,,f,28,214,fr,r,0,raw,2022-05-25_14h44.46.599,oddball,2022.1.2,59.9591558749788,
20,,,,,0,0,0,3,6,0,6,0,16,0,16,0,,,,,,,,,,,,,,,,,760.1255670003593,None,760.8594935000874,761.3427343000658,761.3260448002256,763.3270872002468,j,1,0.49273094022646546,2.493832240346819,decreament,0.48,44,oddball,j,80,0.8779420997016132,,,,,,,f,28,214,fr,r,0,raw,2022-05-25_14h44.46.599,oddball,2022.1.2,59.9591558749788,
20,,,,,0,0,0,3,6,0,6,0,17,0,17,0,,,,,,,,,,,,,,,,,763.3435919000767,None,764.0104911001399,764.61098040035,764.5940817003138,766.5948417000473,None,1,0.6114648398943245,2.612286239862442,decreament,0.6,41,standard,None,100,,,,,,,,f,28,214,fr,r,0,raw,2022-05-25_14h44.46.599,oddball,2022.1.2,59.9591558749788,
20,,,,,0,0,0,3,6,0,6,0,18,0,18,0,,,,,,,,,,,,,,,,,766.6114774001762,None,767.2615656000562,767.8618817999959,767.8451092001051,769.8460844000801,None,1,0.6123580397106707,2.613364439457655,decreament,0.6,41,standard,None,100,,,,,,,,f,28,214,fr,r,0,raw,2022-05-25_14h44.46.599,oddball,2022.1.2,59.9591558749788,
20,,,,,0,0,0,3,6,0,6,0,19,0,19,0,,,,,,,,,,,,,,,,,769.8627312001772,None,770.4966040002182,771.0966323004104,771.0798770003021,773.0809630001895,None,1,0.6095379404723644,2.610671740490943,decreament,0.6,41,standard,None,100,,,,,,,,f,28,214,fr,r,0,raw,2022-05-25_14h44.46.599,oddball,2022.1.2,59.9591558749788,
20,,,,,0,0,0,3,6,0,6,0,20,0,20,0,,,,,,,,,,,,,,,,,773.0978544000536,None,773.6477634999901,774.24769020034,774.2310538999736,776.2316837003455,None,1,0.6094530401751399,2.6100828400813043,decreament,0.6,41,standard,None,100,,,,,,,,f,28,214,fr,r,0,raw,2022-05-25_14h44.46.599,oddball,2022.1.2,59.9591558749788,
20,,,,,0,0,0,3,6,0,6,0,21,0,21,0,,,,,,,,,,,,,,,,,776.24846120039,None,776.848948400002,777.2159037003294,777.182330599986,779.1831130003557,j,1,0.36255634017288685,2.3633341398090124,decreament,0.36,43,oddball,j,60,0.5880873003043234,,,,,,,f,28,214,fr,r,0,raw,2022-05-25_14h44.46.599,oddball,2022.1.2,59.9591558749788,
20,,,,,0,0,0,3,6,0,6,0,22,0,22,0,,,,,,,,,,,,,,,,,779.1995353000239,None,779.9165777000599,780.5168989002705,780.500081000384,782.5010510003194,None,1,0.6120223398320377,2.6130446400493383,decreament,0.6,41,standard,None,100,,,,,,,,f,28,214,fr,r,0,raw,2022-05-25_14h44.46.599,oddball,2022.1.2,59.9591558749788,
20,,,,,0,0,0,3,6,0,6,0,23,0,23,0,,,,,,,,,,,,,,,,,782.5174017003737,None,783.1178280999884,783.7179229999892,783.7012860001996,785.7021580999717,None,1,0.6123235397972167,2.613222339656204,decreament,0.6,41,standard,None,100,,,,,,,,f,28,214,fr,r,0,raw,2022-05-25_14h44.46.599,oddball,2022.1.2,59.9591558749788,
20,,,,,0,0,0,3,6,0,6,0,24,0,24,0,,,,,,,,,,,,,,,,,785.7189112002961,None,786.4360227002762,787.0357823004015,787.0192810003646,789.0201587001793,None,1,0.6104907402768731,2.611448140349239,decreament,0.6,41,standard,None,100,,,,,,,,f,28,214,fr,r,0,raw,2022-05-25_14h44.46.599,oddball,2022.1.2,59.9591558749788,
20,,,,,0,0,0,3,6,0,6,0,25,0,25,0,,,,,,,,,,,,,,,,,789.0365571002476,None,789.7036310001276,789.9533917000517,789.9204087001272,791.9211357003078,j,1,0.2455830406397581,2.2463350403122604,decreament,0.24,42,oddball,j,40,0.4353235000744462,,,,,,,f,28,214,fr,r,0,raw,2022-05-25_14h44.46.599,oddball,2022.1.2,59.9591558749788,
20,,,,,0,0,0,3,6,0,6,0,26,0,26,0,,,,,,,,,,,,,,,,,791.9377026003785,None,792.5714259003289,793.1723555000499,793.1551503003575,795.1557248001918,None,1,0.6138250404037535,2.614430340472609,decreament,0.6,41,standard,None,100,,,,,,,,f,28,214,fr,r,0,raw,2022-05-25_14h44.46.599,oddball,2022.1.2,59.9591558749788,
20,,,,,0,0,0,3,6,0,6,0,27,0,27,0,,,,,,,,,,,,,,,,,795.1724303001538,None,795.7560563003644,796.3563396004029,796.3396605001763,798.3401266001165,None,1,0.6122994399629533,2.612664139829576,decreament,0.6,41,standard,None,100,,,,,,,,f,28,214,fr,r,0,raw,2022-05-25_14h44.46.599,oddball,2022.1.2,59.9591558749788,
20,,,,,0,0,0,3,6,0,6,0,28,0,28,0,,,,,,,,,,,,,,,,,798.3568799002096,None,798.990523900371,799.5905416002497,799.5743168001063,801.5746626001783,None,1,0.6124153402633965,2.6127500403672457,decreament,0.6,41,standard,None,100,,,,,,,,f,28,214,fr,r,0,raw,2022-05-25_14h44.46.599,oddball,2022.1.2,59.9591558749788,
20,,,,,0,0,0,3,6,0,6,0,29,0,29,0,,,,,,,,,,,,,,,,,801.5916485004127,None,802.1249959999695,802.7259207000025,802.70893610036,804.709576100111,None,1,0.6116696400567889,2.612282640300691,decreament,0.6,41,standard,None,100,,,,,,,,f,28,214,fr,r,0,raw,2022-05-25_14h44.46.599,oddball,2022.1.2,59.9591558749788,
20,,,,,0,0,0,3,7,0,7,0,0,0,0,0,,,,,,,,,,,,,,,813.413305000402,None,814.5129688000306,None,815.2299999003299,815.8304936001077,815.8136697001755,817.81411760021,None,1,0.6099627399817109,2.6103633400052786,increament,0.6,45,standard,None,100,,804.7261684001423,None,,,,,f,28,214,fr,r,0,raw,2022-05-25_14h44.46.599,oddball,2022.1.2,59.9591558749788,
20,,,,,0,0,0,3,7,0,7,0,1,0,1,0,,,,,,,,,,,,,,,,,817.8311009001918,None,818.5644480003975,819.1650478001684,819.1487863003276,821.1488218000159,None,1,0.6129920398816466,2.6129319397732615,increament,0.6,45,standard,None,100,,,,,,,,f,28,214,fr,r,0,raw,2022-05-25_14h44.46.599,oddball,2022.1.2,59.9591558749788,
20,,,,,0,0,0,3,7,0,7,0,2,0,2,0,,,,,,,,,,,,,,,,,821.1654324000701,None,821.7995493002236,822.399233000353,822.3828898002394,824.3834261000156,None,1,0.6098799398168921,2.6103981398046017,increament,0.6,45,standard,None,100,,,,,,,,f,28,214,fr,r,0,raw,2022-05-25_14h44.46.599,oddball,2022.1.2,59.9591558749788,
20,,,,,0,0,0,3,7,0,7,0,3,0,3,0,,,,,,,,,,,,,,,,,824.4002634002827,None,825.0670759002678,825.6671460000798,825.6512199002318,827.6511167003773,None,1,0.6139867408201098,2.6138160405680537,increament,0.6,45,standard,None,100,,,,,,,,f,28,214,fr,r,0,raw,2022-05-25_14h44.46.599,oddball,2022.1.2,59.9591558749788,
20,,,,,0,0,0,3,7,0,7,0,4,0,4,0,,,,,,,,,,,,,,,,,827.6677626003511,None,828.3515350003727,828.9517634003423,828.9352561002597,830.9362319000065,None,1,0.6137018403969705,2.614709140267223,increament,0.6,45,standard,None,100,,,,,,,,f,28,214,fr,r,0,raw,2022-05-25_14h44.46.599,oddball,2022.1.2,59.9591558749788,
20,,,,,0,0,0,3,7,0,7,0,5,0,5,0,,,,,,,,,,,,,,,,,830.9526303000748,None,831.6029052003287,832.2030776999891,832.1865899004042,834.187459200155,None,1,0.61350904032588,2.6143716401420534,increament,0.6,45,standard,None,100,,,,,,,,f,28,214,fr,r,0,raw,2022-05-25_14h44.46.599,oddball,2022.1.2,59.9591558749788,
20,,,,,0,0,0,3,7,0,7,0,6,0,6,0,,,,,,,,,,,,,,,,,834.2037961999886,None,834.937409600243,835.5379527001642,835.5214316002093,837.5216879001819,None,1,0.6133188405074179,2.613557840231806,increament,0.6,45,standard,None,100,,,,,,,,f,28,214,fr,r,0,raw,2022-05-25_14h44.46.599,oddball,2022.1.2,59.9591558749788,
20,,,,,0,0,0,3,7,0,7,0,7,0,7,0,,,,,,,,,,,,,,,,,837.5383804002777,None,838.1387230004184,838.7387336003594,838.7217763001099,840.7229590001516,None,1,0.6098807398229837,2.6111031398177147,increament,0.6,45,standard,None,100,,,,,,,,f,28,214,fr,r,0,raw,2022-05-25_14h44.46.599,oddball,2022.1.2,59.9591558749788,
20,,,,,0,0,0,3,7,0,7,0,8,0,8,0,,,,,,,,,,,,,,,,,840.7394370003603,None,841.3899565003812,841.9899807004258,841.9735968001187,843.9742344999686,j,0,0.6125483401119709,2.6131525402888656,increament,0.6,45,standard,None,100,0.3099249000661075,,,,,,,f,28,214,fr,r,0,raw,2022-05-25_14h44.46.599,oddball,2022.1.2,59.9591558749788,
20,,,,,0,0,0,3,7,0,7,0,9,0,9,0,,,,,,,,,,,,,,,,,843.9910399001092,None,844.707942200359,845.307774099987,845.2913363999687,847.2921842001379,None,1,0.6125472402200103,2.61340714013204,increament,0.6,45,standard,None,100,,,,,,,,f,28,214,fr,r,0,raw,2022-05-25_14h44.46.599,oddball,2022.1.2,59.9591558749788,
20,,,,,0,0,0,3,7,0,7,0,10,0,10,0,,,,,,,,,,,,,,,,,847.3090037000366,None,848.0756430001929,848.6761495000683,848.6597461001948,850.6598627003841,None,1,0.6109296400099993,2.6109133400022984,increament,0.6,45,standard,None,100,,,,,,,,f,28,214,fr,r,0,raw,2022-05-25_14h44.46.599,oddball,2022.1.2,59.9591558749788,
20,,,,,0,0,0,3,7,0,7,0,11,0,11,0,,,,,,,,,,,,,,,,,850.676624700427,None,851.4769756002352,852.0771361002699,852.0606654002331,854.0614396003075,j,0,0.6123819402419031,2.613223140127957,increament,0.6,45,standard,None,100,1.158407500013709,,,,,,,f,28,214,fr,r,0,raw,2022-05-25_14h44.46.599,oddball,2022.1.2,59.9591558749788,
20,,,,,0,0,0,3,7,0,7,0,12,0,12,0,,,,,,,,,,,,,,,,,854.0782902999781,None,854.7118719001301,855.4449237002991,855.4120471002534,857.41248740023,None,0,0.7292850404046476,2.7297230404801667,increament,0.72,46,oddball,j,120,,,,,,,,f,28,214,fr,r,0,raw,2022-05-25_14h44.46.599,oddball,2022.1.2,59.9591558749788,
20,,,,,0,0,0,3,7,0,7,0,13,0,13,0,,,,,,,,,,,,,,,,,857.4291746001691,None,858.1297133001499,858.7296028002165,858.7135697002523,860.7140704002231,None,1,0.6127739404328167,2.6132411402650177,increament,0.6,45,standard,None,100,,,,,,,,f,28,214,fr,r,0,raw,2022-05-25_14h44.46.599,oddball,2022.1.2,59.9591558749788,
20,,,,,0,0,0,3,7,0,7,0,14,0,14,0,,,,,,,,,,,,,,,,,860.7308379001915,None,861.3310414999723,861.9311787001789,861.9146525003016,863.9153192001395,None,1,0.6129375407472253,2.6135936407372355,increament,0.6,45,standard,None,100,,,,,,,,f,28,214,fr,r,0,raw,2022-05-25_14h44.46.599,oddball,2022.1.2,59.9591558749788,
20,,,,,0,0,0,3,7,0,7,0,15,0,15,0,,,,,,,,,,,,,,,,,863.9319327003323,None,864.6988001000136,865.2989660999738,865.2822808003984,867.2830793000758,j,0,0.6113334400579333,2.6121217403560877,increament,0.6,45,standard,None,100,0.31345280027017,,,,,,,f,28,214,fr,r,0,raw,2022-05-25_14h44.46.599,oddball,2022.1.2,59.9591558749788,
20,,,,,0,0,0,3,7,0,7,0,16,0,16,0,,,,,,,,,,,,,,,,,867.299648700282,None,867.8664597002789,868.4666372002102,868.4502974003553,870.4514860003255,None,1,0.6127375401556492,2.6140282400883734,increament,0.6,45,standard,None,100,,,,,,,,f,28,214,fr,r,0,raw,2022-05-25_14h44.46.599,oddball,2022.1.2,59.9591558749788,
20,,,,,0,0,0,3,7,0,7,0,17,0,17,0,,,,,,,,,,,,,,,,,870.4681739001535,None,871.1346414000727,871.7348888004199,871.7178062000312,873.7189843002707,None,1,0.6116951401345432,2.612901640124619,increament,0.6,45,standard,None,100,,,,,,,,f,28,214,fr,r,0,raw,2022-05-25_14h44.46.599,oddball,2022.1.2,59.9591558749788,
20,,,,,0,0,0,3,7,0,7,0,18,0,18,0,,,,,,,,,,,,,,,,,873.7357773003168,None,874.3358719004318,874.9356766003184,874.9193700002506,876.9197884001769,None,1,0.6121948398649693,2.61259284010157,increament,0.6,45,standard,None,100,,,,,,,,f,28,214,fr,r,0,raw,2022-05-25_14h44.46.599,oddball,2022.1.2,59.9591558749788,
20,,,,,0,0,0,3,7,0,7,0,19,0,19,0,,,,,,,,,,,,,,,,,876.9365631002001,None,877.4870874001645,878.0870847003534,878.0702770003118,880.0714559000917,j,0,0.6087347404100001,2.610020540188998,increament,0.6,45,standard,None,100,0.3648040001280606,,,,,,,f,28,214,fr,r,0,raw,2022-05-25_14h44.46.599,oddball,2022.1.2,59.9591558749788,
20,,,,,0,0,0,3,7,0,7,0,20,0,20,0,,,,,,,,,,,,,,,,,880.0879442002624,None,880.7713705003262,881.3721577003598,881.3550742003135,883.3559910003096,j,0,0.6140912403352559,2.615008740220219,increament,0.6,45,standard,None,100,0.31147640012204647,,,,,,,f,28,214,fr,r,0,raw,2022-05-25_14h44.46.599,oddball,2022.1.2,59.9591558749788,
20,,,,,0,0,0,3,7,0,7,0,21,0,21,0,,,,,,,,,,,,,,,,,883.3722509001382,None,883.9726245002821,884.5727215004154,884.5563785000704,886.5570607003756,None,1,0.6094007403589785,2.610125240404159,increament,0.6,45,standard,None,100,,,,,,,,f,28,214,fr,r,0,raw,2022-05-25_14h44.46.599,oddball,2022.1.2,59.9591558749788,
20,,,,,0,0,0,3,7,0,7,0,22,0,22,0,,,,,,,,,,,,,,,,,886.573762500193,None,887.1738935001194,888.0240878001787,887.9907859000377,889.9914741003886,j,1,0.8465872402302921,2.8472924404777586,increament,0.84,47,oddball,j,140,0.3317440999671817,,,,,,,f,28,214,fr,r,0,raw,2022-05-25_14h44.46.599,oddball,2022.1.2,59.9591558749788,
20,,,,,0,0,0,3,7,0,7,0,23,0,23,0,,,,,,,,,,,,,,,,,890.0081283003092,None,890.558371799998,891.1588730001822,891.1422176002525,893.1427216003649,None,1,0.6126953400671482,2.6131366402842104,increament,0.6,45,standard,None,100,,,,,,,,f,28,214,fr,r,0,raw,2022-05-25_14h44.46.599,oddball,2022.1.2,59.9591558749788,
20,,,,,0,0,0,3,7,0,7,0,24,0,24,0,,,,,,,,,,,,,,,,,893.1592806000262,None,893.8935901001096,894.4930409002118,894.4770119003952,896.4770905002952,None,1,0.6118007404729724,2.6117342403158545,increament,0.6,45,standard,None,100,,,,,,,,f,28,214,fr,r,0,raw,2022-05-25_14h44.46.599,oddball,2022.1.2,59.9591558749788,
20,,,,,0,0,0,3,7,0,7,0,25,0,25,0,,,,,,,,,,,,,,,,,896.4938166001812,None,897.0772296003997,897.6780655002221,897.6610254002735,899.6619021003135,None,1,0.6146788401529193,2.6155722397379577,increament,0.6,45,standard,None,100,,,,,,,,f,28,214,fr,r,0,raw,2022-05-25_14h44.46.599,oddball,2022.1.2,59.9591558749788,
20,,,,,0,0,0,3,7,0,7,0,26,0,26,0,,,,,,,,,,,,,,,,,899.6786118000746,None,900.245957300067,900.8456632001325,900.8291431004182,902.8298050002195,j,0,0.612621040083468,2.6132767400704324,increament,0.6,45,standard,None,100,0.15729370014742017,,,,,,,f,28,214,fr,r,0,raw,2022-05-25_14h44.46.599,oddball,2022.1.2,59.9591558749788,
20,,,,,0,0,0,3,7,0,7,0,27,0,27,0,,,,,,,,,,,,,,,,,902.8464077999815,None,903.4636483001523,904.0640084003098,904.047660200391,906.0474728001282,None,1,0.6113262404687703,2.611018840223551,increament,0.6,45,standard,None,100,,,,,,,,f,28,214,fr,r,0,raw,2022-05-25_14h44.46.599,oddball,2022.1.2,59.9591558749788,
20,,,,,0,0,0,3,7,0,7,0,28,0,28,0,,,,,,,,,,,,,,,,,906.0641555003822,None,906.7644804003648,907.7314458000474,907.6983024002984,909.6989139001817,j,1,0.9638680401258171,2.9644577400758862,increament,0.96,48,oddball,j,160,0.24878469994291663,,,,,,,f,28,214,fr,r,0,raw,2022-05-25_14h44.46.599,oddball,2022.1.2,59.9591558749788,
20,,,,,0,0,0,3,7,0,7,0,29,0,29,0,,,,,,,,,,,,,,,,,909.7158815003932,None,910.3992664003745,910.999444400426,910.9834233000875,912.9836762002669,None,1,0.6109066400676966,2.6111014396883547,increament,0.6,45,standard,None,100,,,,,,,,f,28,214,fr,r,0,raw,2022-05-25_14h44.46.599,oddball,2022.1.2,59.9591558749788,
20,,,,,0,0,0,3,8,0,8,0,0,0,0,0,,,,,,,,,,,,,,,923.5108095002361,None,928.0228861002252,None,928.622982900124,929.2235847003758,929.2068330002949,931.207093400415,None,1,0.6087467400357127,2.6089656399562955,decreament,0.6,41,standard,None,100,,913.0003698002547,None,,,,,f,28,214,fr,r,0,raw,2022-05-25_14h44.46.599,oddball,2022.1.2,59.9591558749788,
20,,,,,0,0,0,3,8,0,8,0,1,0,1,0,,,,,,,,,,,,,,,,,931.224024400115,None,931.8240482001565,932.4246955001727,932.407802300062,934.4083799002692,None,1,0.60904884012416,2.6095706401392817,decreament,0.6,41,standard,None,100,,,,,,,,f,28,214,fr,r,0,raw,2022-05-25_14h44.46.599,oddball,2022.1.2,59.9591558749788,
20,,,,,0,0,0,3,8,0,8,0,2,0,2,0,,,,,,,,,,,,,,,,,934.4251745999791,None,934.9756000000052,935.5755243999884,935.5590576999821,937.5594895002432,None,1,0.6130047403275967,2.61330554028973,decreament,0.6,41,standard,None,100,,,,,,,,f,28,214,fr,r,0,raw,2022-05-25_14h44.46.599,oddball,2022.1.2,59.9591558749788,
20,,,,,0,0,0,3,8,0,8,0,3,0,3,0,,,,,,,,,,,,,,,,,937.5763449002989,None,938.34375620028,938.9434640002437,938.9267680002376,940.9276133002713,None,1,0.6120394403114915,2.6128861401230097,decreament,0.6,41,standard,None,100,,,,,,,,f,28,214,fr,r,0,raw,2022-05-25_14h44.46.599,oddball,2022.1.2,59.9591558749788,
20,,,,,0,0,0,3,8,0,8,0,4,0,4,0,,,,,,,,,,,,,,,,,940.944509900175,None,941.477998400107,942.0779199004173,942.0612973002717,944.0624941000715,None,1,0.611646440345794,2.6129287402145565,decreament,0.6,41,standard,None,100,,,,,,,,f,28,214,fr,r,0,raw,2022-05-25_14h44.46.599,oddball,2022.1.2,59.9591558749788,
20,,,,,0,0,0,3,8,0,8,0,5,0,5,0,,,,,,,,,,,,,,,,,944.0796929001808,None,944.7293607001193,945.3292714003474,945.3125435002148,947.3131973003037,None,1,0.6101629403419793,2.610798540059477,decreament,0.6,41,standard,None,100,,,,,,,,f,28,214,fr,r,0,raw,2022-05-25_14h44.46.599,oddball,2022.1.2,59.9591558749788,
20,,,,,0,0,0,3,8,0,8,0,6,0,6,0,,,,,,,,,,,,,,,,,947.3299675001763,None,947.9471594002098,948.5471153003164,948.5303851002827,950.531081800349,None,1,0.6131828404031694,2.6138393403962255,decreament,0.6,41,standard,None,100,,,,,,,,f,28,214,fr,r,0,raw,2022-05-25_14h44.46.599,oddball,2022.1.2,59.9591558749788,
20,,,,,0,0,0,3,8,0,8,0,7,0,7,0,,,,,,,,,,,,,,,,,950.5476836003363,None,951.2314755003899,951.8317359001376,951.8150766002946,953.8158492003568,None,1,0.6132465400733054,2.613992140162736,decreament,0.6,41,standard,None,100,,,,,,,,f,28,214,fr,r,0,raw,2022-05-25_14h44.46.599,oddball,2022.1.2,59.9591558749788,
20,,,,,0,0,0,3,8,0,8,0,8,0,8,0,,,,,,,,,,,,,,,,,953.832324300427,None,954.4826226001605,955.0834290003404,955.0662259003147,957.067309900187,None,1,0.6136822397820652,2.614771239925176,decreament,0.6,41,standard,None,100,,,,,,,,f,28,214,fr,r,0,raw,2022-05-25_14h44.46.599,oddball,2022.1.2,59.9591558749788,
20,,,,,0,0,0,3,8,0,8,0,9,0,9,0,,,,,,,,,,,,,,,,,957.0838512000628,None,957.6504198000766,958.2514071003534,958.2344345003366,960.235036900267,None,1,0.6122153396718204,2.6127618397586048,decreament,0.6,41,standard,None,100,,,,,,,,f,28,214,fr,r,0,raw,2022-05-25_14h44.46.599,oddball,2022.1.2,59.9591558749788,
20,,,,,0,0,0,3,8,0,8,0,10,0,10,0,,,,,,,,,,,,,,,,,960.2518353001215,None,960.8852021000348,961.4850724004209,961.4686044002883,963.4692499004304,None,1,0.6120417402125895,2.6127048400230706,decreament,0.6,41,standard,None,100,,,,,,,,f,28,214,fr,r,0,raw,2022-05-25_14h44.46.599,oddball,2022.1.2,59.9591558749788,
20,,,,,0,0,0,3,8,0,8,0,11,0,11,0,,,,,,,,,,,,,,,,,963.4861491001211,None,964.1864590002224,964.7866601003334,964.7701495001093,966.770503600128,None,1,0.6125718397088349,2.612886639777571,decreament,0.6,41,standard,None,100,,,,,,,,f,28,214,fr,r,0,raw,2022-05-25_14h44.46.599,oddball,2022.1.2,59.9591558749788,
20,,,,,0,0,0,3,8,0,8,0,12,0,12,0,,,,,,,,,,,,,,,,,966.7872433001176,None,967.4214103003033,967.787948100362,967.7548255003057,969.755485100206,j,1,0.35989633994176984,2.360582040157169,decreament,0.36,43,oddball,j,60,0.6950274999253452,,,,,,,f,28,214,fr,r,0,raw,2022-05-25_14h44.46.599,oddball,2022.1.2,59.9591558749788,
20,,,,,0,0,0,3,8,0,8,0,13,0,13,0,,,,,,,,,,,,,,,,,969.7743451003917,None,970.4888340001926,971.0894022001885,971.0724019003101,973.07354150014,None,1,0.6095780394971371,2.6107564396224916,decreament,0.6,41,standard,None,100,,,,,,,,f,28,214,fr,r,0,raw,2022-05-25_14h44.46.599,oddball,2022.1.2,59.9591558749788,
20,,,,,0,0,0,3,8,0,8,0,14,0,14,0,,,,,,,,,,,,,,,,,973.0895652002655,None,973.7400935003534,974.340420700144,974.3233295003884,976.3242308003828,None,1,0.6125603402033448,2.6134654404595494,decreament,0.6,41,standard,None,100,,,,,,,,f,28,214,fr,r,0,raw,2022-05-25_14h44.46.599,oddball,2022.1.2,59.9591558749788,
20,,,,,0,0,0,3,8,0,8,0,15,0,15,0,,,,,,,,,,,,,,,,,976.3407511003315,None,976.9411281002685,977.5415446003899,977.5252411002293,979.5260804002173,None,1,0.613877740688622,2.6147505403496325,decreament,0.6,41,standard,None,100,,,,,,,,f,28,214,fr,r,0,raw,2022-05-25_14h44.46.599,oddball,2022.1.2,59.9591558749788,
20,,,,,0,0,0,3,8,0,8,0,16,0,16,0,,,,,,,,,,,,,,,,,979.5442545004189,None,980.3594860001467,980.8424597000703,980.8258795002475,982.8267483999953,None,0,0.4925264404155314,2.4934316403232515,decreament,0.48,44,oddball,j,80,,,,,,,,f,28,214,fr,r,0,raw,2022-05-25_14h44.46.599,oddball,2022.1.2,59.9591558749788,
20,,,,,0,0,0,3,8,0,8,0,17,0,17,0,,,,,,,,,,,,,,,,,982.8433845001273,None,983.4771284000017,984.0775127001107,984.0609183004126,986.0611515003256,None,1,0.6101820399053395,2.6103786397725344,decreament,0.6,41,standard,None,100,,,,,,,,f,28,214,fr,r,0,raw,2022-05-25_14h44.46.599,oddball,2022.1.2,59.9591558749788,
20,,,,,0,0,0,3,8,0,8,0,18,0,18,0,,,,,,,,,,,,,,,,,986.0779490000568,None,986.6785876001231,987.2783248000778,987.2617220003158,989.2627036003396,None,1,0.6096327397972345,2.6106807398609817,decreament,0.6,41,standard,None,100,,,,,,,,f,28,214,fr,r,0,raw,2022-05-25_14h44.46.599,oddball,2022.1.2,59.9591558749788,
20,,,,,0,0,0,3,8,0,8,0,19,0,19,0,,,,,,,,,,,,,,,,,989.2789259003475,None,989.9127287999727,990.5132539002225,990.496628800407,992.4970216001384,None,1,0.6099176397547126,2.61028643976897,decreament,0.6,41,standard,None,100,,,,,,,,f,28,214,fr,r,0,raw,2022-05-25_14h44.46.599,oddball,2022.1.2,59.9591558749788,
20,,,,,0,0,0,3,8,0,8,0,20,0,20,0,,,,,,,,,,,,,,,,,992.5138744004071,None,993.2474037003703,993.8472312004305,993.8306901999749,995.8314956002869,None,1,0.6119903400540352,2.612846039701253,decreament,0.6,41,standard,None,100,,,,,,,,f,28,214,fr,r,0,raw,2022-05-25_14h44.46.599,oddball,2022.1.2,59.9591558749788,
20,,,,,0,0,0,3,8,0,8,0,21,0,21,0,,,,,,,,,,,,,,,,,995.8485027002171,None,996.5821021003649,997.1825194000266,997.1658600000665,999.1664214003831,None,1,0.6126245404593647,2.613154740538448,decreament,0.6,41,standard,None,100,,,,,,,,f,28,214,fr,r,0,raw,2022-05-25_14h44.46.599,oddball,2022.1.2,59.9591558749788,
20,,,,,0,0,0,3,8,0,8,0,22,0,22,0,,,,,,,,,,,,,,,,,999.1833782000467,None,999.7331155003048,1000.3339492999949,1000.3170898002572,1002.3175198002718,None,1,0.6109968400560319,2.6113914400339127,decreament,0.6,41,standard,None,100,,,,,,,,f,28,214,fr,r,0,raw,2022-05-25_14h44.46.599,oddball,2022.1.2,59.9591558749788,
20,,,,,0,0,0,3,8,0,8,0,23,0,23,0,,,,,,,,,,,,,,,,,1002.3344038003124,None,1002.9346001003869,1003.5344991004094,1003.5177685003728,1005.5186189999804,None,1,0.6111857406795025,2.6120521407574415,decreament,0.6,41,standard,None,100,,,,,,,,f,28,214,fr,r,0,raw,2022-05-25_14h44.46.599,oddball,2022.1.2,59.9591558749788,
20,,,,,0,0,0,3,8,0,8,0,24,0,24,0,,,,,,,,,,,,,,,,,1005.535424400121,None,1006.1527786999941,1006.7522824001499,1006.7358103999868,1008.7363917003386,None,1,0.6114783408120275,2.612069240771234,decreament,0.6,41,standard,None,100,,,,,,,,f,28,214,fr,r,0,raw,2022-05-25_14h44.46.599,oddball,2022.1.2,59.9591558749788,
20,,,,,0,0,0,3,8,0,8,0,25,0,25,0,,,,,,,,,,,,,,,,,1008.7535377000459,None,1009.420288100373,1010.0207227002829,1010.0042576002888,1012.0048131002113,None,1,0.6101856399327517,2.6107392399571836,decreament,0.6,41,standard,None,100,,,,,,,,f,28,214,fr,r,0,raw,2022-05-25_14h44.46.599,oddball,2022.1.2,59.9591558749788,
20,,,,,0,0,0,3,8,0,8,0,26,0,26,0,,,,,,,,,,,,,,,,,1012.0210387003608,None,1012.8049455001019,1013.4049714002758,1013.3884634003043,1015.3892465000972,None,1,0.6100684404373169,2.6108701401390135,decreament,0.6,41,standard,None,100,,,,,,,,f,28,214,fr,r,0,raw,2022-05-25_14h44.46.599,oddball,2022.1.2,59.9591558749788,
20,,,,,0,0,0,3,8,0,8,0,27,0,27,0,,,,,,,,,,,,,,,,,1015.4059610003605,None,1016.0227308999747,1016.6228598002344,1016.6060929000378,1018.6070527001284,None,1,0.6112379399128258,2.6122728399932384,decreament,0.6,41,standard,None,100,,,,,,,,f,28,214,fr,r,0,raw,2022-05-25_14h44.46.599,oddball,2022.1.2,59.9591558749788,
20,,,,,0,0,0,3,8,0,8,0,28,0,28,0,,,,,,,,,,,,,,,,,1018.6241438002326,None,1019.4740022001788,1019.7237107004039,1019.6904513002373,1021.6917987000197,j,1,0.24377774028107524,2.2452770401723683,decreament,0.24,42,oddball,j,40,0.6710930000990629,,,,,,,f,28,214,fr,r,0,raw,2022-05-25_14h44.46.599,oddball,2022.1.2,59.9591558749788,
20,,,,,0,0,0,3,8,0,8,0,29,0,29,0,,,,,,,,,,,,,,,,,1021.7105933004059,None,1022.3417069003917,1022.9418769003823,1022.9255168000236,1024.926018900238,None,1,0.6118818400427699,2.6123658400028944,decreament,0.6,41,standard,None,100,,,,,,,,f,28,214,fr,r,0,raw,2022-05-25_14h44.46.599,oddball,2022.1.2,59.9591558749788,
20,,,,,0,0,0,3,9,0,9,0,0,0,0,0,,,,,,,,,,,,,,,1035.4560040002689,None,1036.9804696002975,None,1037.5645309002139,1038.1643523001112,1038.1478900001384,1040.1482254001312,None,1,0.6113758399151266,2.6116604399867356,increament,0.6,45,standard,None,100,,1024.9431522004306,None,,,,,f,28,214,fr,r,0,raw,2022-05-25_14h44.46.599,oddball,2022.1.2,59.9591558749788,
20,,,,,0,0,0,3,9,0,9,0,1,0,1,0,,,,,,,,,,,,,,,,,1040.1648703999817,None,1040.8989093001,1041.498813800048,1041.482154100202,1043.4828240000643,None,1,0.6096018399111927,2.6102896397933364,increament,0.6,45,standard,None,100,,,,,,,,f,28,214,fr,r,0,raw,2022-05-25_14h44.46.599,oddball,2022.1.2,59.9591558749788,
20,,,,,0,0,0,3,9,0,9,0,2,0,2,0,,,,,,,,,,,,,,,,,1043.4996143002063,None,1044.400304000359,1045.0002383003011,1044.9837942002341,1046.9843074004166,None,1,0.6096909400075674,2.6101773399859667,increament,0.6,45,standard,None,100,,,,,,,,f,28,214,fr,r,0,raw,2022-05-25_14h44.46.599,oddball,2022.1.2,59.9591558749788,
20,,,,,0,0,0,3,9,0,9,0,3,0,3,0,,,,,,,,,,,,,,,,,1047.0012294002809,None,1047.6012363000773,1048.2012120001018,1048.184828300029,1050.1853700000793,None,1,0.6136477403342724,2.6141631403006613,increament,0.6,45,standard,None,100,,,,,,,,f,28,214,fr,r,0,raw,2022-05-25_14h44.46.599,oddball,2022.1.2,59.9591558749788,
20,,,,,0,0,0,3,9,0,9,0,4,0,4,0,,,,,,,,,,,,,,,,,1050.2022188003175,None,1050.9365757000633,1051.5360067002475,1051.5198727003299,1053.520197100006,None,1,0.6096048401668668,2.6098560402169824,increament,0.6,45,standard,None,100,,,,,,,,f,28,214,fr,r,0,raw,2022-05-25_14h44.46.599,oddball,2022.1.2,59.9591558749788,
20,,,,,0,0,0,3,9,0,9,0,5,0,5,0,,,,,,,,,,,,,,,,,1053.5370367001742,None,1054.2538666003384,1054.8539857002907,1054.8373855003156,1056.8382268999703,None,1,0.6106326398439705,2.611439540050924,increament,0.6,45,standard,None,100,,,,,,,,f,28,214,fr,r,0,raw,2022-05-25_14h44.46.599,oddball,2022.1.2,59.9591558749788,
20,,,,,0,0,0,3,9,0,9,0,6,0,6,0,,,,,,,,,,,,,,,,,1056.8551498004235,None,1057.4553354000673,1058.3052508002147,1058.2720663002692,1060.2726756003685,None,0,0.8455237406305969,2.8461384405381978,increament,0.84,47,oddball,j,140,,,,,,,,f,28,214,fr,r,0,raw,2022-05-25_14h44.46.599,oddball,2022.1.2,59.9591558749788,
20,,,,,0,0,0,3,9,0,9,0,7,0,7,0,,,,,,,,,,,,,,,,,1060.2894498002715,None,1060.8565198001452,1061.4565072003752,1061.4397038002498,1063.4410982001573,None,1,0.6113093397580087,2.6127848397009075,increament,0.6,45,standard,None,100,,,,,,,,f,28,214,fr,r,0,raw,2022-05-25_14h44.46.599,oddball,2022.1.2,59.9591558749788,
20,,,,,0,0,0,3,9,0,9,0,8,0,8,0,,,,,,,,,,,,,,,,,1063.4582398002967,None,1064.2244530003518,1064.8251759000123,1064.808178300038,1066.8086172002368,None,1,0.6116851400583982,2.6120895403437316,increament,0.6,45,standard,None,100,,,,,,,,f,28,214,fr,r,0,raw,2022-05-25_14h44.46.599,oddball,2022.1.2,59.9591558749788,
20,,,,,0,0,0,3,9,0,9,0,9,0,9,0,,,,,,,,,,,,,,,,,1066.8255184004083,None,1067.609015500173,1068.2089820001274,1068.1923347003758,1070.1930341999978,None,1,0.6122822402976453,2.613062040414661,increament,0.6,45,standard,None,100,,,,,,,,f,28,214,fr,r,0,raw,2022-05-25_14h44.46.599,oddball,2022.1.2,59.9591558749788,
20,,,,,0,0,0,3,9,0,9,0,10,0,10,0,,,,,,,,,,,,,,,,,1070.2099920003675,None,1070.9099162002094,1071.5104447002523,1071.4941023001447,1073.4944052002393,None,1,0.6133328406140208,2.613592840731144,increament,0.6,45,standard,None,100,,,,,,,,f,28,214,fr,r,0,raw,2022-05-25_14h44.46.599,oddball,2022.1.2,59.9591558749788,
20,,,,,0,0,0,3,9,0,9,0,11,0,11,0,,,,,,,,,,,,,,,,,1073.5114878001623,None,1074.1613549003378,1074.7616914003156,1074.7450705002993,1076.7457044003531,j,0,0.6124504404142499,2.6131148408167064,increament,0.6,45,standard,None,100,0.22476759972050786,,,,,,,f,28,214,fr,r,0,raw,2022-05-25_14h44.46.599,oddball,2022.1.2,59.9591558749788,
20,,,,,0,0,0,3,9,0,9,0,12,0,12,0,,,,,,,,,,,,,,,,,1076.762412500102,None,1077.5628764000721,1078.1629840000533,1078.1462358003482,1080.1465507000685,None,1,0.6095800395123661,2.609880239702761,increament,0.6,45,standard,None,100,,,,,,,,f,28,214,fr,r,0,raw,2022-05-25_14h44.46.599,oddball,2022.1.2,59.9591558749788,
20,,,,,0,0,0,3,9,0,9,0,13,0,13,0,,,,,,,,,,,,,,,,,1080.163329300005,None,1080.7303298003972,1081.3308490002528,1081.3141915001906,1083.3146916003898,None,1,0.6139787402935326,2.6144858403131366,increament,0.6,45,standard,None,100,,,,,,,,f,28,214,fr,r,0,raw,2022-05-25_14h44.46.599,oddball,2022.1.2,59.9591558749788,
20,,,,,0,0,0,3,9,0,9,0,14,0,14,0,,,,,,,,,,,,,,,,,1083.3315990003757,None,1083.8984338999726,1084.4988599000499,1084.4824682003818,1086.4827557001263,None,1,0.6101890401914716,2.610404340084642,increament,0.6,45,standard,None,100,,,,,,,,f,28,214,fr,r,0,raw,2022-05-25_14h44.46.599,oddball,2022.1.2,59.9591558749788,
20,,,,,0,0,0,3,9,0,9,0,15,0,15,0,,,,,,,,,,,,,,,,,1086.4992964002304,None,1087.0663712001406,1088.032977099996,1088.0001201000996,1090.0006852000952,j,1,0.959644740447402,2.96017704019323,increament,0.96,48,oddball,j,160,0.13006450003013015,,,,,,,f,28,214,fr,r,0,raw,2022-05-25_14h44.46.599,oddball,2022.1.2,59.9591558749788,
20,,,,,0,0,0,3,9,0,9,0,16,0,16,0,,,,,,,,,,,,,,,,,1090.0176946003921,None,1090.8509262003936,1091.4511055001058,1091.4347775001079,1093.4355534003116,None,1,0.6126849404536188,2.6134617403149605,increament,0.6,45,standard,None,100,,,,,,,,f,28,214,fr,r,0,raw,2022-05-25_14h44.46.599,oddball,2022.1.2,59.9591558749788,
20,,,,,0,0,0,3,9,0,9,0,17,0,17,0,,,,,,,,,,,,,,,,,1093.4520473000593,None,1094.2521797004156,1094.8523906003684,1094.836080700159,1096.8365319999866,None,1,0.6124744401313365,2.6129263401962817,increament,0.6,45,standard,None,100,,,,,,,,f,28,214,fr,r,0,raw,2022-05-25_14h44.46.599,oddball,2022.1.2,59.9591558749788,
20,,,,,0,0,0,3,9,0,9,0,18,0,18,0,,,,,,,,,,,,,,,,,1096.8533885004,None,1097.620213900227,1098.220378600061,1098.2038790001534,1100.2043565004133,None,1,0.6117481403052807,2.612219240050763,increament,0.6,45,standard,None,100,,,,,,,,f,28,214,fr,r,0,raw,2022-05-25_14h44.46.599,oddball,2022.1.2,59.9591558749788,
20,,,,,0,0,0,3,9,0,9,0,19,0,19,0,,,,,,,,,,,,,,,,,1100.2214053003117,None,1100.838647400029,1101.4380499003455,1101.4221493001096,1103.42250970006,None,1,0.6099462402053177,2.610252940095961,increament,0.6,45,standard,None,100,,,,,,,,f,28,214,fr,r,0,raw,2022-05-25_14h44.46.599,oddball,2022.1.2,59.9591558749788,
20,,,,,0,0,0,3,9,0,9,0,20,0,20,0,,,,,,,,,,,,,,,,,1103.4391728001647,None,1103.9560704003088,1104.5563305001706,1104.5397544000298,1106.5403166003525,None,1,0.6117645399644971,2.6123329401016235,increament,0.6,45,standard,None,100,,,,,,,,f,28,214,fr,r,0,raw,2022-05-25_14h44.46.599,oddball,2022.1.2,59.9591558749788,
20,,,,,0,0,0,3,9,0,9,0,21,0,21,0,,,,,,,,,,,,,,,,,1106.5570367001928,None,1107.1407906999812,1107.7406478002667,1107.724019100424,1109.7250284003094,None,1,0.6104554403573275,2.6115104407072067,increament,0.6,45,standard,None,100,,,,,,,,f,28,214,fr,r,0,raw,2022-05-25_14h44.46.599,oddball,2022.1.2,59.9591558749788,
20,,,,,0,0,0,3,9,0,9,0,22,0,22,0,,,,,,,,,,,,,,,,,1109.7424363000318,None,1110.408416800201,1111.0086622000672,1110.992330600042,1112.9929385003634,None,1,0.6114443400874734,2.6120845400728285,increament,0.6,45,standard,None,100,,,,,,,,f,28,214,fr,r,0,raw,2022-05-25_14h44.46.599,oddball,2022.1.2,59.9591558749788,
20,,,,,0,0,0,3,9,0,9,0,23,0,23,0,,,,,,,,,,,,,,,,,1113.0091089000925,None,1113.526528400369,1114.1264757001773,1114.1099732001312,1116.110654800199,None,1,0.6094828401692212,2.610193940345198,increament,0.6,45,standard,None,100,,,,,,,,f,28,214,fr,r,0,raw,2022-05-25_14h44.46.599,oddball,2022.1.2,59.9591558749788,
20,,,,,0,0,0,3,9,0,9,0,24,0,24,0,,,,,,,,,,,,,,,,,1116.1272199000232,None,1116.794493400026,1117.3943229001015,1117.3779121004045,1119.3784594000317,None,1,0.6099060401320457,2.6104301400482655,increament,0.6,45,standard,None,100,,,,,,,,f,28,214,fr,r,0,raw,2022-05-25_14h44.46.599,oddball,2022.1.2,59.9591558749788,
20,,,,,0,0,0,3,9,0,9,0,25,0,25,0,,,,,,,,,,,,,,,,,1119.394989900291,None,1119.9622893002816,1120.5623998004012,1120.5458479002118,1122.546310200356,None,1,0.6115630399435759,2.6120024397969246,increament,0.6,45,standard,None,100,,,,,,,,f,28,214,fr,r,0,raw,2022-05-25_14h44.46.599,oddball,2022.1.2,59.9591558749788,
20,,,,,0,0,0,3,9,0,9,0,26,0,26,0,,,,,,,,,,,,,,,,,1122.5632028002292,None,1123.2300436003134,1123.8305475004017,1123.813664500136,1125.8141714003868,None,1,0.6123285400681198,2.612754839938134,increament,0.6,45,standard,None,100,,,,,,,,f,28,214,fr,r,0,raw,2022-05-25_14h44.46.599,oddball,2022.1.2,59.9591558749788,
20,,,,,0,0,0,3,9,0,9,0,27,0,27,0,,,,,,,,,,,,,,,,,1125.8307767002843,None,1126.5479989000596,1127.2812424004078,1127.24809510028,1129.2487192000262,None,0,0.7270718407817185,2.7276533409021795,increament,0.72,46,oddball,j,120,,,,,,,,f,28,214,fr,r,0,raw,2022-05-25_14h44.46.599,oddball,2022.1.2,59.9591558749788,
20,,,,,0,0,0,3,9,0,9,0,28,0,28,0,,,,,,,,,,,,,,,,,1129.265426600352,None,1129.9993108999915,1130.5993882999755,1130.582423100248,1132.5836438001134,None,1,0.6108744400553405,2.6121589401736856,increament,0.6,45,standard,None,100,,,,,,,,f,28,214,fr,r,0,raw,2022-05-25_14h44.46.599,oddball,2022.1.2,59.9591558749788,
20,,,,,0,0,0,3,9,0,9,0,29,0,29,0,,,,,,,,,,,,,,,,,1132.600085800048,None,1133.2838294003159,1133.884120600298,1133.8676293003373,1135.868054300081,None,1,0.6115424400195479,2.6119293398223817,increament,0.6,45,standard,None,100,,,,,,,,f,28,214,fr,r,0,raw,2022-05-25_14h44.46.599,oddball,2022.1.2,59.9591558749788,
10,,,,,0,1,1,2,0,0,0,0,0,0,0,0,,,,,,,,,,,,,,,1328.8318726001307,None,1330.3748478000052,None,1330.8918076003902,1331.492139799986,1331.4753194004297,1333.4762395001017,None,1,0.6126972404308617,2.6136141400784254,decreament,0.6,21,standard,None,100,,1315.9210193003528,None,1135.9060890004039,None,,,f,28,214,fr,r,0,raw,2022-05-25_14h44.46.599,oddball,2022.1.2,59.9591558749788,
10,,,,,0,1,1,2,0,0,0,0,1,0,1,0,,,,,,,,,,,,,,,,,1333.4927941001952,None,1334.0931709003635,1334.6933796000667,1334.6768643003888,1336.6775492001325,None,1,0.613055840600282,2.6137268408201635,decreament,0.6,21,standard,None,100,,,,,,,,f,28,214,fr,r,0,raw,2022-05-25_14h44.46.599,oddball,2022.1.2,59.9591558749788,
10,,,,,0,1,1,2,0,0,0,0,2,0,2,0,,,,,,,,,,,,,,,,,1336.6941288001835,None,1337.3442630004138,1337.9447369002737,1337.9279244001955,1339.9286008002236,None,1,0.6131571400910616,2.613825140055269,decreament,0.6,21,standard,None,100,,,,,,,,f,28,214,fr,r,0,raw,2022-05-25_14h44.46.599,oddball,2022.1.2,59.9591558749788,
10,,,,,0,1,1,2,0,0,0,0,3,0,3,0,,,,,,,,,,,,,,,,,1339.9453042000532,None,1340.5293313004076,1341.1293534999713,1341.1128875999711,1343.113646400161,None,1,0.6117951399646699,2.6125538400374353,decreament,0.6,21,standard,None,100,,,,,,,,f,28,214,fr,r,0,raw,2022-05-25_14h44.46.599,oddball,2022.1.2,59.9591558749788,
10,,,,,0,1,1,2,0,0,0,0,4,0,4,0,,,,,,,,,,,,,,,,,1343.1297375001013,None,1343.8304149000905,1344.4303389000706,1344.4135259999894,1346.4146098000929,None,1,0.6110371402464807,2.61219204030931,decreament,0.6,21,standard,None,100,,,,,,,,f,28,214,fr,r,0,raw,2022-05-25_14h44.46.599,oddball,2022.1.2,59.9591558749788,
10,,,,,0,1,1,2,0,0,0,0,5,0,5,0,,,,,,,,,,,,,,,,,1346.4313404001296,None,1347.0481146001257,1347.648271200247,1347.6315616001375,1349.6321094003506,None,1,0.6124707399867475,2.6130012399517,decreament,0.6,21,standard,None,100,,,,,,,,f,28,214,fr,r,0,raw,2022-05-25_14h44.46.599,oddball,2022.1.2,59.9591558749788,
10,,,,,0,1,1,2,0,0,0,0,6,0,6,0,,,,,,,,,,,,,,,,,1349.6488789999858,None,1350.3826033002697,1350.982743400149,1350.9663739004172,1352.9672238002531,None,1,0.6134361401200294,2.614268840290606,decreament,0.6,21,standard,None,100,,,,,,,,f,28,214,fr,r,0,raw,2022-05-25_14h44.46.599,oddball,2022.1.2,59.9591558749788,
10,,,,,0,1,1,2,0,0,0,0,7,0,7,0,,,,,,,,,,,,,,,,,1352.9842570000328,None,1353.617133400403,1353.8671129001305,1353.8339862003922,1355.8351126001216,j,1,0.2458760398440063,2.2470692400820553,decreament,0.24,22,oddball,j,40,0.686994899995625,,,,,,,f,28,214,fr,r,0,raw,2022-05-25_14h44.46.599,oddball,2022.1.2,59.9591558749788,
10,,,,,0,1,1,2,0,0,0,0,8,0,8,0,,,,,,,,,,,,,,,,,1355.8529151002876,None,1356.4850623002276,1357.085463900119,1357.0685467002913,1359.069473200012,None,1,0.6126092402264476,2.6135806404054165,decreament,0.6,21,standard,None,100,,,,,,,,f,28,214,fr,r,0,raw,2022-05-25_14h44.46.599,oddball,2022.1.2,59.9591558749788,
10,,,,,0,1,1,2,0,0,0,0,9,0,9,0,,,,,,,,,,,,,,,,,1359.0860632001422,None,1359.7194734001532,1360.319665200077,1360.3033018000424,1362.3040350000374,None,1,0.6124644400551915,2.6132588400505483,decreament,0.6,21,standard,None,100,,,,,,,,f,28,214,fr,r,0,raw,2022-05-25_14h44.46.599,oddball,2022.1.2,59.9591558749788,
10,,,,,0,1,1,2,0,0,0,0,10,0,10,0,,,,,,,,,,,,,,,,,1362.320442400407,None,1362.954088800121,1363.55462730024,1363.5378305003978,1365.538578900043,None,1,0.6133777406066656,2.6141183404251933,decreament,0.6,21,standard,None,100,,,,,,,,f,28,214,fr,r,0,raw,2022-05-25_14h44.46.599,oddball,2022.1.2,59.9591558749788,
10,,,,,0,1,1,2,0,0,0,0,11,0,11,0,,,,,,,,,,,,,,,,,1365.5550129003823,None,1366.1719890004024,1366.7723627001978,1366.7555774999782,1368.756303500384,None,1,0.6136477403342724,2.6143584405072033,decreament,0.6,21,standard,None,100,,,,,,,,f,28,214,fr,r,0,raw,2022-05-25_14h44.46.599,oddball,2022.1.2,59.9591558749788,
10,,,,,0,1,1,2,0,0,0,0,12,0,12,0,,,,,,,,,,,,,,,,,1368.772971100174,None,1369.4567687003873,1370.056901700329,1370.0400980003178,1372.0410821000114,None,1,0.6089159403927624,2.6099483403377235,decreament,0.6,21,standard,None,100,,,,,,,,f,28,214,fr,r,0,raw,2022-05-25_14h44.46.599,oddball,2022.1.2,59.9591558749788,
10,,,,,0,1,1,2,0,0,0,0,13,0,13,0,,,,,,,,,,,,,,,,,1372.0585704999976,None,1372.6740725003183,1373.274765000213,1373.2579887001775,1375.2588006001897,None,1,0.6144439401105046,2.615272440481931,decreament,0.6,21,standard,None,100,,,,,,,,f,28,214,fr,r,0,raw,2022-05-25_14h44.46.599,oddball,2022.1.2,59.9591558749788,
10,,,,,0,1,1,2,0,0,0,0,14,0,14,0,,,,,,,,,,,,,,,,,1375.2756213000976,None,1376.1757001001388,1376.7759989001788,1376.7597490004264,1378.7604925003834,None,1,0.6099416404031217,2.611068340484053,decreament,0.6,21,standard,None,100,,,,,,,,f,28,214,fr,r,0,raw,2022-05-25_14h44.46.599,oddball,2022.1.2,59.9591558749788,
