grating_freq,blocks_prac.thisRepN,blocks_prac.thisTrialN,blocks_prac.thisN,blocks_prac.thisIndex,blocks.thisRepN,blocks.thisTrialN,blocks.thisN,blocks.thisIndex,repeat_freq.thisRepN,repeat_freq.thisTrialN,repeat_freq.thisN,repeat_freq.thisIndex,trials.thisRepN,trials.thisTrialN,trials.thisN,trials.thisIndex,break_loop.thisRepN,break_loop.thisTrialN,break_loop.thisN,break_loop.thisIndex,rest_loop.thisRepN,rest_loop.thisTrialN,rest_loop.thisN,rest_loop.thisIndex,instruct_prac_text.started,instruct_prac_text.stopped,b_instruct_text_2_.started,b_instruct_text_2_.stopped,prac_done_text.started,prac_done_text.stopped,instruct_text.started,instruct_text.stopped,fixation.started,fixation.stopped,grating.started,grating.stopped,blank.started,blank.stopped,resp.keys,resp.corr,resp.started,resp.stopped,direction,duration,trigger,stim_type,corr_ans,scaling,resp.rt,rest_text.started,rest_text.stopped,text_2.started,text_2.stopped,thx_txt.started,thx_txt.stopped,gender,age,participant,language,main_hand,nBlock_prac,file_suffix,date,expName,psychopyVersion,frameRate,
20,,,,,0,0,0,3,0,0,0,0,0,0,0,0,,,,,,,,,19.296574799809605,None,25.71070000017062,None,28.550504900049418,None,33.69610930001363,None,39.11518319975585,None,39.65392840001732,40.265577299986035,40.21588579984382,42.21662089973688,None,1,0.6118293297477067,2.6125774295069277,increament,0.6,45,standard,None,100,,,,,,,,f,22,217,fr,r,0,raw,2022-06-02_10h04.34.911,oddball,2022.1.2,60.05746302664529,
20,,,,,0,0,0,3,0,0,0,0,1,0,1,0,,,,,,,,,,,,,,,,,42.23471499979496,None,42.93345899973065,43.53357269987464,43.516980399843305,45.51775630004704,None,1,0.6137568298727274,2.614589729811996,increament,0.6,45,standard,None,100,,,,,,,,f,22,217,fr,r,0,raw,2022-06-02_10h04.34.911,oddball,2022.1.2,60.05746302664529,
20,,,,,0,0,0,3,0,0,0,0,2,0,2,0,,,,,,,,,,,,,,,,,45.53471580008045,None,46.16802399978042,46.7681599999778,46.75158530008048,48.75246400013566,None,1,0.6125630298629403,2.6134562296792865,increament,0.6,45,standard,None,100,,,,,,,,f,22,217,fr,r,0,raw,2022-06-02_10h04.34.911,oddball,2022.1.2,60.05746302664529,
20,,,,,0,0,0,3,0,0,0,0,3,0,3,0,,,,,,,,,,,,,,,,,48.76874969992787,None,49.35275419987738,49.952706299722195,49.935981299728155,51.93663589982316,None,1,0.6087594302371144,2.6094155302271247,increament,0.6,45,standard,None,100,,,,,,,,f,22,217,fr,r,0,raw,2022-06-02_10h04.34.911,oddball,2022.1.2,60.05746302664529,
20,,,,,0,0,0,3,0,0,0,0,4,0,4,0,,,,,,,,,,,,,,,,,51.95340330014005,None,52.53744069999084,53.137137699872255,53.12039740011096,55.121328900102526,None,1,0.6109770298935473,2.6119519299827516,increament,0.6,45,standard,None,100,,,,,,,,f,22,217,fr,r,0,raw,2022-06-02_10h04.34.911,oddball,2022.1.2,60.05746302664529,
20,,,,,0,0,0,3,0,0,0,0,5,0,5,0,,,,,,,,,,,,,,,,,55.138292300049216,None,55.87172390008345,56.471984199713916,56.455181600060314,58.456072399858385,None,1,0.6088025299832225,2.609704829752445,increament,0.6,45,standard,None,100,,,,,,,,f,22,217,fr,r,0,raw,2022-06-02_10h04.34.911,oddball,2022.1.2,60.05746302664529,
20,,,,,0,0,0,3,0,0,0,0,6,0,6,0,,,,,,,,,,,,,,,,,58.47256929986179,None,59.039925400167704,59.63956720009446,59.62299049971625,61.62373569980264,None,1,0.6104106293059886,2.6111980294808745,increament,0.6,45,standard,None,100,,,,,,,,f,22,217,fr,r,0,raw,2022-06-02_10h04.34.911,oddball,2022.1.2,60.05746302664529,
20,,,,,0,0,0,3,0,0,0,0,7,0,7,0,,,,,,,,,,,,,,,,,61.64044239977375,None,62.29073859984055,62.890985699836165,62.87434219988063,64.87504789978266,None,1,0.6138359298929572,2.6145505299791694,increament,0.6,45,standard,None,100,,,,,,,,f,22,217,fr,r,0,raw,2022-06-02_10h04.34.911,oddball,2022.1.2,60.05746302664529,
20,,,,,0,0,0,3,0,0,0,0,8,0,8,0,,,,,,,,,,,,,,,,,64.89193839998916,None,65.70847250008956,66.30894109979272,66.29213450010866,68.29329730011523,None,1,0.6132644298486412,2.6144899297505617,increament,0.6,45,standard,None,100,,,,,,,,f,22,217,fr,r,0,raw,2022-06-02_10h04.34.911,oddball,2022.1.2,60.05746302664529,
20,,,,,0,0,0,3,0,0,0,0,9,0,9,0,,,,,,,,,,,,,,,,,68.30961130000651,None,68.82673660013825,69.42691730009392,69.41019270010293,71.41070109978318,None,1,0.6128500299528241,2.613364429678768,increament,0.6,45,standard,None,100,,,,,,,,f,22,217,fr,r,0,raw,2022-06-02_10h04.34.911,oddball,2022.1.2,60.05746302664529,
20,,,,,0,0,0,3,0,0,0,0,10,0,10,0,,,,,,,,,,,,,,,,,71.4274025997147,None,71.9610004001297,72.56132340012118,72.54475730005652,74.54533879971132,None,1,0.6135059297084808,2.614085729699582,increament,0.6,45,standard,None,100,,,,,,,,f,22,217,fr,r,0,raw,2022-06-02_10h04.34.911,oddball,2022.1.2,60.05746302664529,
20,,,,,0,0,0,3,0,0,0,0,11,0,11,0,,,,,,,,,,,,,,,,,74.56225019972771,None,75.16223010001704,75.89561229990795,75.86262989975512,77.86316900001839,j,1,0.7291661300696433,2.729727129917592,increament,0.72,46,oddball,j,120,0.7990203006193042,,,,,,,f,22,217,fr,r,0,raw,2022-06-02_10h04.34.911,oddball,2022.1.2,60.05746302664529,
20,,,,,0,0,0,3,0,0,0,0,12,0,12,0,,,,,,,,,,,,,,,,,77.88014099979773,None,78.69734899979085,79.29698499990627,79.28075379971415,81.28107469994575,None,1,0.6124332300387323,2.6127761299721897,increament,0.6,45,standard,None,100,,,,,,,,f,22,217,fr,r,0,raw,2022-06-02_10h04.34.911,oddball,2022.1.2,60.05746302664529,
20,,,,,0,0,0,3,0,0,0,0,13,0,13,0,,,,,,,,,,,,,,,,,81.29791339999065,None,82.03169560013339,82.63194809993729,82.61505179991946,84.61580700008199,None,1,0.6127286297269166,2.6134838298894465,increament,0.6,45,standard,None,100,,,,,,,,f,22,217,fr,r,0,raw,2022-06-02_10h04.34.911,oddball,2022.1.2,60.05746302664529,
20,,,,,0,0,0,3,0,0,0,0,14,0,14,0,,,,,,,,,,,,,,,,,84.63284830003977,None,85.19946569995955,85.80022219987586,85.78313829982653,87.78412250010297,None,1,0.6097976299934089,2.6107301297597587,increament,0.6,45,standard,None,100,,,,,,,,f,22,217,fr,r,0,raw,2022-06-02_10h04.34.911,oddball,2022.1.2,60.05746302664529,
20,,,,,0,0,0,3,0,0,0,0,15,0,15,0,,,,,,,,,,,,,,,,,87.80180360004306,None,88.56743180006742,89.1676755999215,89.15091229975224,91.15165549982339,None,1,0.6127595296129584,2.6135104298591614,increament,0.6,45,standard,None,100,,,,,,,,f,22,217,fr,r,0,raw,2022-06-02_10h04.34.911,oddball,2022.1.2,60.05746302664529,
20,,,,,0,0,0,3,0,0,0,0,16,0,16,0,,,,,,,,,,,,,,,,,91.16832879977301,None,91.86860639974475,92.46869649970904,92.45210919994861,94.45314250001684,None,1,0.6122712302021682,2.613365130033344,increament,0.6,45,standard,None,100,,,,,,,,f,22,217,fr,r,0,raw,2022-06-02_10h04.34.911,oddball,2022.1.2,60.05746302664529,
20,,,,,0,0,0,3,0,0,0,0,17,0,17,0,,,,,,,,,,,,,,,,,94.46965540014207,None,95.03642190014943,95.63696879986674,95.62018309999257,97.62079779990017,None,1,0.613488030154258,2.6140753300860524,increament,0.6,45,standard,None,100,,,,,,,,f,22,217,fr,r,0,raw,2022-06-02_10h04.34.911,oddball,2022.1.2,60.05746302664529,
20,,,,,0,0,0,3,0,0,0,0,18,0,18,0,,,,,,,,,,,,,,,,,97.63762649986893,None,98.27130329981446,99.23775900015607,99.2047502999194,101.20556040015072,j,1,0.9625803297385573,2.9634622298181057,increament,0.96,48,oddball,j,160,0.4884184002876282,,,,,,,f,22,217,fr,r,0,raw,2022-06-02_10h04.34.911,oddball,2022.1.2,60.05746302664529,
20,,,,,0,0,0,3,0,0,0,0,19,0,19,0,,,,,,,,,,,,,,,,,101.22309400001541,None,101.82262399978936,102.42293650005013,102.40633099991828,104.40664519974962,None,1,0.6120293294079602,2.6122374292463064,increament,0.6,45,standard,None,100,,,,,,,,f,22,217,fr,r,0,raw,2022-06-02_10h04.34.911,oddball,2022.1.2,60.05746302664529,
20,,,,,0,0,0,3,0,0,0,0,20,0,20,0,,,,,,,,,,,,,,,,,104.4233912001364,None,104.9902464998886,105.59014179976657,105.57355439988896,107.57456459989771,None,1,0.6123139299452305,2.613392029888928,increament,0.6,45,standard,None,100,,,,,,,,f,22,217,fr,r,0,raw,2022-06-02_10h04.34.911,oddball,2022.1.2,60.05746302664529,
20,,,,,0,0,0,3,0,0,0,0,21,0,21,0,,,,,,,,,,,,,,,,,107.59134049993008,None,108.35827419999987,108.95831320015714,108.94181329989806,110.94278819998726,None,1,0.6110298298299313,2.612066430039704,increament,0.6,45,standard,None,100,,,,,,,,f,22,217,fr,r,0,raw,2022-06-02_10h04.34.911,oddball,2022.1.2,60.05746302664529,
20,,,,,0,0,0,3,0,0,0,0,22,0,22,0,,,,,,,,,,,,,,,,,110.95914309984073,None,111.57637130003422,112.17612079996616,112.15985319996253,114.16049150004983,None,1,0.6110757300630212,2.6117279301397502,increament,0.6,45,standard,None,100,,,,,,,,f,22,217,fr,r,0,raw,2022-06-02_10h04.34.911,oddball,2022.1.2,60.05746302664529,
20,,,,,0,0,0,3,0,0,0,0,23,0,23,0,,,,,,,,,,,,,,,,,114.17711269995198,None,114.76111559988931,115.61075539980084,115.57777580013499,117.57816329970956,j,1,0.8429880300536752,2.8433289299719036,increament,0.84,47,oddball,j,140,0.4915288002230227,,,,,,,f,22,217,fr,r,0,raw,2022-06-02_10h04.34.911,oddball,2022.1.2,60.05746302664529,
20,,,,,0,0,0,3,0,0,0,0,24,0,24,0,,,,,,,,,,,,,,,,,117.59470559982583,None,118.1621821001172,118.76198039995506,118.74565429985523,120.74630729993805,None,1,0.6104123299010098,2.6110875299200416,increament,0.6,45,standard,None,100,,,,,,,,f,22,217,fr,r,0,raw,2022-06-02_10h04.34.911,oddball,2022.1.2,60.05746302664529,
20,,,,,0,0,0,3,0,0,0,0,25,0,25,0,,,,,,,,,,,,,,,,,120.76293569989502,None,121.51331060007215,122.1133121997118,122.0970708001405,124.09725219989195,None,1,0.612428329885006,2.6125091300345957,increament,0.6,45,standard,None,100,,,,,,,,f,22,217,fr,r,0,raw,2022-06-02_10h04.34.911,oddball,2022.1.2,60.05746302664529,
20,,,,,0,0,0,3,0,0,0,0,26,0,26,0,,,,,,,,,,,,,,,,,124.11414049984887,None,124.71475869975984,125.3145507001318,125.29817300010473,127.29888670006767,None,1,0.608883329667151,2.60963542945683,increament,0.6,45,standard,None,100,,,,,,,,f,22,217,fr,r,0,raw,2022-06-02_10h04.34.911,oddball,2022.1.2,60.05746302664529,
20,,,,,0,0,0,3,0,0,0,0,27,0,27,0,,,,,,,,,,,,,,,,,127.31568809971213,None,127.98280340014026,128.58237859979272,128.5663533997722,130.5668063000776,None,1,0.6097194296307862,2.6101746298372746,increament,0.6,45,standard,None,100,,,,,,,,f,22,217,fr,r,0,raw,2022-06-02_10h04.34.911,oddball,2022.1.2,60.05746302664529,
20,,,,,0,0,0,3,0,0,0,0,28,0,28,0,,,,,,,,,,,,,,,,,130.58352810004726,None,131.25027070008218,131.8501989999786,131.8335707001388,133.8346325000748,None,1,0.6095176301896572,2.6107322298921645,increament,0.6,45,standard,None,100,,,,,,,,f,22,217,fr,r,0,raw,2022-06-02_10h04.34.911,oddball,2022.1.2,60.05746302664529,
20,,,,,0,0,0,3,0,0,0,0,29,0,29,0,,,,,,,,,,,,,,,,,133.85210479982197,None,134.46783400001004,135.06830679997802,135.05189749971032,137.05217379983515,None,1,0.6144762295298278,2.614750829525292,increament,0.6,45,standard,None,100,,,,,,,,f,22,217,fr,r,0,raw,2022-06-02_10h04.34.911,oddball,2022.1.2,60.05746302664529,
20,,,,,0,0,0,3,1,0,1,0,0,0,0,0,,,,,,,,,,,,,,,144.22139169974253,None,146.3060465999879,None,146.90605549979955,147.50651550013572,147.48997789993882,149.49016050016508,None,1,0.6115678302012384,2.611686530057341,decreament,0.6,41,standard,None,100,,137.06926249992102,None,,,,,f,22,217,fr,r,0,raw,2022-06-02_10h04.34.911,oddball,2022.1.2,60.05746302664529,
20,,,,,0,0,0,3,1,0,1,0,1,0,1,0,,,,,,,,,,,,,,,,,149.5072105997242,None,150.1908305999823,150.7908626999706,150.77431049989536,152.775107299909,None,1,0.6097512296400964,2.6105943294242024,decreament,0.6,41,standard,None,100,,,,,,,,f,22,217,fr,r,0,raw,2022-06-02_10h04.34.911,oddball,2022.1.2,60.05746302664529,
20,,,,,0,0,0,3,1,0,1,0,2,0,2,0,,,,,,,,,,,,,,,,,152.79191289981827,None,153.37528150016442,153.97548739984632,153.95891619985923,155.95943199982867,None,1,0.6126979305408895,2.61321413051337,decreament,0.6,41,standard,None,100,,,,,,,,f,22,217,fr,r,0,raw,2022-06-02_10h04.34.911,oddball,2022.1.2,60.05746302664529,
20,,,,,0,0,0,3,1,0,1,0,3,0,3,0,,,,,,,,,,,,,,,,,155.97639730013907,None,156.74340539984405,157.34331899974495,157.32733079977334,159.32763479975984,None,1,0.612413430120796,2.6126929302699864,decreament,0.6,41,standard,None,100,,,,,,,,f,22,217,fr,r,0,raw,2022-06-02_10h04.34.911,oddball,2022.1.2,60.05746302664529,
20,,,,,0,0,0,3,1,0,1,0,4,0,4,0,,,,,,,,,,,,,,,,,159.34408209985122,None,159.99487469997257,160.59462449979037,160.57797690015286,162.57870530011132,None,1,0.6121883299201727,2.61292612971738,decreament,0.6,41,standard,None,100,,,,,,,,f,22,217,fr,r,0,raw,2022-06-02_10h04.34.911,oddball,2022.1.2,60.05746302664529,
20,,,,,0,0,0,3,1,0,1,0,5,0,5,0,,,,,,,,,,,,,,,,,162.5954339997843,None,163.12914780015126,163.37882390012965,163.3457749998197,165.34628230007365,j,1,0.24357793014496565,2.2441023299470544,decreament,0.24,42,oddball,j,40,0.9155907002277672,,,,,,,f,22,217,fr,r,0,raw,2022-06-02_10h04.34.911,oddball,2022.1.2,60.05746302664529,
20,,,,,0,0,0,3,1,0,1,0,6,0,6,0,,,,,,,,,,,,,,,,,165.3632668000646,None,165.89672729978338,166.4965129001066,166.47974519990385,168.48077860008925,None,1,0.6108703296631575,2.611944729462266,decreament,0.6,41,standard,None,100,,,,,,,,f,22,217,fr,r,0,raw,2022-06-02_10h04.34.911,oddball,2022.1.2,60.05746302664529,
20,,,,,0,0,0,3,1,0,1,0,7,0,7,0,,,,,,,,,,,,,,,,,168.4974227999337,None,169.06472360016778,169.66472639981657,169.64804109977558,171.6484590000473,None,1,0.6125835296697915,2.612969229929149,decreament,0.6,41,standard,None,100,,,,,,,,f,22,217,fr,r,0,raw,2022-06-02_10h04.34.911,oddball,2022.1.2,60.05746302664529,
20,,,,,0,0,0,3,1,0,1,0,8,0,8,0,,,,,,,,,,,,,,,,,171.66541029978544,None,172.33220859989524,172.9324574000202,172.91594559978694,174.91658399999142,None,1,0.6138569302856922,2.6144881304353476,decreament,0.6,41,standard,None,100,,,,,,,,f,22,217,fr,r,0,raw,2022-06-02_10h04.34.911,oddball,2022.1.2,60.05746302664529,
20,,,,,0,0,0,3,1,0,1,0,9,0,9,0,,,,,,,,,,,,,,,,,174.93342240015045,None,175.53357709990814,176.13384310016409,176.11729770014063,178.11787230009213,None,1,0.6132720299065113,2.6137824300676584,decreament,0.6,41,standard,None,100,,,,,,,,f,22,217,fr,r,0,raw,2022-06-02_10h04.34.911,oddball,2022.1.2,60.05746302664529,
20,,,,,0,0,0,3,1,0,1,0,10,0,10,0,,,,,,,,,,,,,,,,,178.134552099742,None,178.9350334997289,179.5349638001062,179.51835109991953,181.51981010008603,None,1,0.609740530140698,2.611298929899931,decreament,0.6,41,standard,None,100,,,,,,,,f,22,217,fr,r,0,raw,2022-06-02_10h04.34.911,oddball,2022.1.2,60.05746302664529,
20,,,,,0,0,0,3,1,0,1,0,11,0,11,0,,,,,,,,,,,,,,,,,181.53728199983016,None,182.2694442998618,182.86994739994407,182.85308649996296,184.8538425997831,None,1,0.6128670303151011,2.6136071304790676,decreament,0.6,41,standard,None,100,,,,,,,,f,22,217,fr,r,0,raw,2022-06-02_10h04.34.911,oddball,2022.1.2,60.05746302664529,
20,,,,,0,0,0,3,1,0,1,0,12,0,12,0,,,,,,,,,,,,,,,,,184.8708271998912,None,185.4042754000984,186.0039956001565,185.98749550012872,187.9882387998514,None,1,0.6124885296449065,2.613262529950589,decreament,0.6,41,standard,None,100,,,,,,,,f,22,217,fr,r,0,raw,2022-06-02_10h04.34.911,oddball,2022.1.2,60.05746302664529,
20,,,,,0,0,0,3,1,0,1,0,13,0,13,0,,,,,,,,,,,,,,,,,188.00507309986278,None,188.68856279971078,189.2889823000878,189.27253329986706,191.27333869971335,None,1,0.6103704301640391,2.611215230077505,decreament,0.6,41,standard,None,100,,,,,,,,f,22,217,fr,r,0,raw,2022-06-02_10h04.34.911,oddball,2022.1.2,60.05746302664529,
20,,,,,0,0,0,3,1,0,1,0,14,0,14,0,,,,,,,,,,,,,,,,,191.29097279999405,None,191.98982190014794,192.59005129989237,192.57383019989356,194.5743414000608,None,1,0.6133269295096397,2.61381302960217,decreament,0.6,41,standard,None,100,,,,,,,,f,22,217,fr,r,0,raw,2022-06-02_10h04.34.911,oddball,2022.1.2,60.05746302664529,
20,,,,,0,0,0,3,1,0,1,0,15,0,15,0,,,,,,,,,,,,,,,,,194.59090990014374,None,195.2244953000918,195.8245461997576,195.80799390003085,197.8086601998657,None,1,0.6083185295574367,2.6089938296936452,decreament,0.6,41,standard,None,100,,,,,,,,f,22,217,fr,r,0,raw,2022-06-02_10h04.34.911,oddball,2022.1.2,60.05746302664529,
20,,,,,0,0,0,3,1,0,1,0,16,0,16,0,,,,,,,,,,,,,,,,,197.82552199997008,None,198.50949099985883,199.10899590002373,199.09260699991137,201.0934578999877,None,1,0.6120559303089976,2.612898929975927,decreament,0.6,41,standard,None,100,,,,,,,,f,22,217,fr,r,0,raw,2022-06-02_10h04.34.911,oddball,2022.1.2,60.05746302664529,
20,,,,,0,0,0,3,1,0,1,0,17,0,17,0,,,,,,,,,,,,,,,,,201.109914700035,None,201.89409800013527,202.37749469978735,202.36057419981807,204.36159079987556,j,1,0.4938247296959162,2.4949267297051847,decreament,0.48,44,oddball,j,80,0.8287339000962675,,,,,,,f,22,217,fr,r,0,raw,2022-06-02_10h04.34.911,oddball,2022.1.2,60.05746302664529,
20,,,,,0,0,0,3,1,0,1,0,18,0,18,0,,,,,,,,,,,,,,,,,204.37788539985195,None,204.9120316999033,205.5116057000123,205.49549150001258,207.49570039985701,None,1,0.6132130296900868,2.6134054297581315,decreament,0.6,41,standard,None,100,,,,,,,,f,22,217,fr,r,0,raw,2022-06-02_10h04.34.911,oddball,2022.1.2,60.05746302664529,
20,,,,,0,0,0,3,1,0,1,0,19,0,19,0,,,,,,,,,,,,,,,,,207.5124666998163,None,208.26294829975814,208.86278259987012,208.8461568998173,210.84704890009016,None,1,0.6090596299618483,2.610030429903418,decreament,0.6,41,standard,None,100,,,,,,,,f,22,217,fr,r,0,raw,2022-06-02_10h04.34.911,oddball,2022.1.2,60.05746302664529,
20,,,,,0,0,0,3,1,0,1,0,20,0,20,0,,,,,,,,,,,,,,,,,210.86358979996294,None,211.39779180008918,211.99769289977849,211.98085379973054,213.98152819974348,None,1,0.6084939297288656,2.6091402298770845,decreament,0.6,41,standard,None,100,,,,,,,,f,22,217,fr,r,0,raw,2022-06-02_10h04.34.911,oddball,2022.1.2,60.05746302664529,
20,,,,,0,0,0,3,1,0,1,0,21,0,21,0,,,,,,,,,,,,,,,,,213.99845319986343,None,214.59930319990963,214.96535839978606,214.94876969978213,216.94910970004275,j,1,0.3749283296056092,2.3752112300135195,decreament,0.36,43,oddball,j,60,0.7514953003264964,,,,,,,f,22,217,fr,r,0,raw,2022-06-02_10h04.34.911,oddball,2022.1.2,60.05746302664529,
20,,,,,0,0,0,3,1,0,1,0,22,0,22,0,,,,,,,,,,,,,,,,,216.96603239979595,None,217.78290509991348,218.38317389972508,218.366580999922,220.36742949998006,None,1,0.612322730012238,2.6132254297845066,decreament,0.6,41,standard,None,100,,,,,,,,f,22,217,fr,r,0,raw,2022-06-02_10h04.34.911,oddball,2022.1.2,60.05746302664529,
20,,,,,0,0,0,3,1,0,1,0,23,0,23,0,,,,,,,,,,,,,,,,,220.3841701000929,None,220.96804479975253,221.56807579984888,221.55100139975548,223.55168589996174,None,1,0.6080436296761036,2.608670729678124,decreament,0.6,41,standard,None,100,,,,,,,,f,22,217,fr,r,0,raw,2022-06-02_10h04.34.911,oddball,2022.1.2,60.05746302664529,
20,,,,,0,0,0,3,1,0,1,0,24,0,24,0,,,,,,,,,,,,,,,,,223.56831680005416,None,224.2854762999341,224.88562879990786,224.8690233998932,226.86970339994878,None,1,0.6093031293712556,2.6099754297174513,decreament,0.6,41,standard,None,100,,,,,,,,f,22,217,fr,r,0,raw,2022-06-02_10h04.34.911,oddball,2022.1.2,60.05746302664529,
20,,,,,0,0,0,3,1,0,1,0,25,0,25,0,,,,,,,,,,,,,,,,,226.88627999974415,None,227.4534400999546,228.05349260009825,228.0367980999872,230.03764670016244,None,1,0.6118694301694632,2.612794630229473,decreament,0.6,41,standard,None,100,,,,,,,,f,22,217,fr,r,0,raw,2022-06-02_10h04.34.911,oddball,2022.1.2,60.05746302664529,
20,,,,,0,0,0,3,1,0,1,0,26,0,26,0,,,,,,,,,,,,,,,,,230.0548736001365,None,230.7380309998989,231.3382115000859,231.32156529976055,233.32227829983458,None,1,0.6124808299355209,2.613163630012423,decreament,0.6,41,standard,None,100,,,,,,,,f,22,217,fr,r,0,raw,2022-06-02_10h04.34.911,oddball,2022.1.2,60.05746302664529,
20,,,,,0,0,0,3,1,0,1,0,27,0,27,0,,,,,,,,,,,,,,,,,233.33888569986448,None,233.93943279981613,234.53958139987662,234.52278380002826,236.52376799983904,None,1,0.6123667298816144,2.613346230238676,decreament,0.6,41,standard,None,100,,,,,,,,f,22,217,fr,r,0,raw,2022-06-02_10h04.34.911,oddball,2022.1.2,60.05746302664529,
20,,,,,0,0,0,3,1,0,1,0,28,0,28,0,,,,,,,,,,,,,,,,,236.54002809990197,None,237.09029689989984,237.6902633998543,237.6739964997396,239.67443110002205,None,1,0.6119975303299725,2.6123170303180814,decreament,0.6,41,standard,None,100,,,,,,,,f,22,217,fr,r,0,raw,2022-06-02_10h04.34.911,oddball,2022.1.2,60.05746302664529,
20,,,,,0,0,0,3,1,0,1,0,29,0,29,0,,,,,,,,,,,,,,,,,239.69161160010844,None,240.29148529982194,240.89194889971986,240.87507840013131,242.87545110005885,None,1,0.6112487302161753,2.6115408302284777,decreament,0.6,41,standard,None,100,,,,,,,,f,22,217,fr,r,0,raw,2022-06-02_10h04.34.911,oddball,2022.1.2,60.05746302664529,
20,,,,,0,0,0,3,2,0,2,0,0,0,0,0,,,,,,,,,,,,,,,250.83461609994993,None,256.3974639000371,None,257.0314111998305,257.63147610006854,257.6146734999493,259.6158729000017,None,1,0.6104093296453357,2.6116825295612216,increament,0.6,45,standard,None,100,,242.8923709001392,None,,,,,f,22,217,fr,r,0,raw,2022-06-02_10h04.34.911,oddball,2022.1.2,60.05746302664529,
20,,,,,0,0,0,3,2,0,2,0,1,0,1,0,,,,,,,,,,,,,,,,,259.63568060006946,None,260.2656418001279,260.86596299987286,260.84946179995313,262.8502103998326,None,1,0.6097760302945971,2.6105693303979933,increament,0.6,45,standard,None,100,,,,,,,,f,22,217,fr,r,0,raw,2022-06-02_10h04.34.911,oddball,2022.1.2,60.05746302664529,
20,,,,,0,0,0,3,2,0,2,0,2,0,2,0,,,,,,,,,,,,,,,,,262.86723680002615,None,263.517060900107,264.1172448997386,264.1005287999287,266.1014950997196,None,1,0.6122658299282193,2.6132654300890863,increament,0.6,45,standard,None,100,,,,,,,,f,22,217,fr,r,0,raw,2022-06-02_10h04.34.911,oddball,2022.1.2,60.05746302664529,
20,,,,,0,0,0,3,2,0,2,0,3,0,3,0,,,,,,,,,,,,,,,,,266.11800409993157,None,266.88507349975407,267.4852972999215,267.4684282001108,269.4691413999535,None,1,0.612358930055052,2.6130305300466716,increament,0.6,45,standard,None,100,,,,,,,,f,22,217,fr,r,0,raw,2022-06-02_10h04.34.911,oddball,2022.1.2,60.05746302664529,
20,,,,,0,0,0,3,2,0,2,0,4,0,4,0,,,,,,,,,,,,,,,,,269.4861663999036,None,270.2695828001015,270.8698395001702,270.8531752000563,272.853735699784,None,1,0.6126440297812223,2.6131480298936367,increament,0.6,45,standard,None,100,,,,,,,,f,22,217,fr,r,0,raw,2022-06-02_10h04.34.911,oddball,2022.1.2,60.05746302664529,
20,,,,,0,0,0,3,2,0,2,0,5,0,5,0,,,,,,,,,,,,,,,,,272.87056009983644,None,273.6374856000766,274.23748040013015,274.2212457000278,276.22193040000275,None,1,0.6128813298419118,2.6135748298838735,increament,0.6,45,standard,None,100,,,,,,,,f,22,217,fr,r,0,raw,2022-06-02_10h04.34.911,oddball,2022.1.2,60.05746302664529,
20,,,,,0,0,0,3,2,0,2,0,6,0,6,0,,,,,,,,,,,,,,,,,276.23857109993696,None,276.80574740003794,277.405423599761,277.3891317001544,279.3895187997259,None,1,0.6085784295573831,2.6089684297330678,increament,0.6,45,standard,None,100,,,,,,,,f,22,217,fr,r,0,raw,2022-06-02_10h04.34.911,oddball,2022.1.2,60.05746302664529,
20,,,,,0,0,0,3,2,0,2,0,7,0,7,0,,,,,,,,,,,,,,,,,279.4062246000394,None,279.989902399946,280.95675909984857,280.9236308000982,282.92430219985545,j,1,0.963384130038321,2.9640547302551568,increament,0.96,48,oddball,j,160,0.36978540010750294,,,,,,,f,22,217,fr,r,0,raw,2022-06-02_10h04.34.911,oddball,2022.1.2,60.05746302664529,
20,,,,,0,0,0,3,2,0,2,0,8,0,8,0,,,,,,,,,,,,,,,,,282.941023199819,None,283.5914679998532,284.1914309998974,284.1746191000566,286.1758218999021,None,1,0.6119970297440886,2.6133098294958472,increament,0.6,45,standard,None,100,,,,,,,,f,22,217,fr,r,0,raw,2022-06-02_10h04.34.911,oddball,2022.1.2,60.05746302664529,
20,,,,,0,0,0,3,2,0,2,0,9,0,9,0,,,,,,,,,,,,,,,,,286.19328889995813,None,286.859354800079,287.4593984000385,287.4427799000405,289.4437453998253,None,1,0.6105976300314069,2.6116435304284096,increament,0.6,45,standard,None,100,,,,,,,,f,22,217,fr,r,0,raw,2022-06-02_10h04.34.911,oddball,2022.1.2,60.05746302664529,
20,,,,,0,0,0,3,2,0,2,0,10,0,10,0,,,,,,,,,,,,,,,,,289.46089820005,None,290.0436112997122,290.6437862999737,290.62725149979815,292.6281683999114,None,1,0.611916630063206,2.612863430287689,increament,0.6,45,standard,None,100,,,,,,,,f,22,217,fr,r,0,raw,2022-06-02_10h04.34.911,oddball,2022.1.2,60.05746302664529,
20,,,,,0,0,0,3,2,0,2,0,11,0,11,0,,,,,,,,,,,,,,,,,292.64464619988576,None,293.3949009999633,293.99516399996355,293.9784808997065,295.9794340999797,None,1,0.6121705300174654,2.613160829991102,increament,0.6,45,standard,None,100,,,,,,,,f,22,217,fr,r,0,raw,2022-06-02_10h04.34.911,oddball,2022.1.2,60.05746302664529,
20,,,,,0,0,0,3,2,0,2,0,12,0,12,0,,,,,,,,,,,,,,,,,295.9958930998109,None,296.52946780016646,297.26301869982854,297.22957810014486,299.23066079989076,j,1,0.7258220301009715,2.726896029897034,increament,0.72,46,oddball,j,120,0.36786540038883686,,,,,,,f,22,217,fr,r,0,raw,2022-06-02_10h04.34.911,oddball,2022.1.2,60.05746302664529,
20,,,,,0,0,0,3,2,0,2,0,13,0,13,0,,,,,,,,,,,,,,,,,299.2471476001665,None,300.0473679997958,300.64802259998396,300.6313265999779,302.63156659994274,None,1,0.6128893299028277,2.613039330113679,increament,0.6,45,standard,None,100,,,,,,,,f,22,217,fr,r,0,raw,2022-06-02_10h04.34.911,oddball,2022.1.2,60.05746302664529,
20,,,,,0,0,0,3,2,0,2,0,14,0,14,0,,,,,,,,,,,,,,,,,302.64818069990724,None,303.3485046001151,303.94893530011177,303.9323137998581,305.932890499942,None,1,0.6141407303512096,2.6147039299830794,increament,0.6,45,standard,None,100,,,,,,,,f,22,217,fr,r,0,raw,2022-06-02_10h04.34.911,oddball,2022.1.2,60.05746302664529,
20,,,,,0,0,0,3,2,0,2,0,15,0,15,0,,,,,,,,,,,,,,,,,305.9500079997815,None,306.6667304998264,307.2664274997078,307.2498300001025,309.25098819984123,None,1,0.6129686296917498,2.614196929614991,increament,0.6,45,standard,None,100,,,,,,,,f,22,217,fr,r,0,raw,2022-06-02_10h04.34.911,oddball,2022.1.2,60.05746302664529,
20,,,,,0,0,0,3,2,0,2,0,16,0,16,0,,,,,,,,,,,,,,,,,309.26766669983044,None,309.86776639986783,310.4682005001232,310.4513083999045,312.4525150000118,None,1,0.6123535297811031,2.6136435293592513,increament,0.6,45,standard,None,100,,,,,,,,f,22,217,fr,r,0,raw,2022-06-02_10h04.34.911,oddball,2022.1.2,60.05746302664529,
20,,,,,0,0,0,3,2,0,2,0,17,0,17,0,,,,,,,,,,,,,,,,,312.4707629997283,None,313.16956650000066,313.7694847001694,313.7530252998695,315.7532373997383,None,1,0.6115886298939586,2.611747229937464,increament,0.6,45,standard,None,100,,,,,,,,f,22,217,fr,r,0,raw,2022-06-02_10h04.34.911,oddball,2022.1.2,60.05746302664529,
20,,,,,0,0,0,3,2,0,2,0,18,0,18,0,,,,,,,,,,,,,,,,,315.7702322998084,None,316.3537574997172,316.95416849991307,316.93730690004304,318.93832559976727,None,1,0.6128751300275326,2.6138923298567533,increament,0.6,45,standard,None,100,,,,,,,,f,22,217,fr,r,0,raw,2022-06-02_10h04.34.911,oddball,2022.1.2,60.05746302664529,
20,,,,,0,0,0,3,2,0,2,0,19,0,19,0,,,,,,,,,,,,,,,,,318.9549964000471,None,319.58812640002,320.1883438001387,320.1715458999388,322.17222849978134,None,1,0.612127729691565,2.6128190299496055,increament,0.6,45,standard,None,100,,,,,,,,f,22,217,fr,r,0,raw,2022-06-02_10h04.34.911,oddball,2022.1.2,60.05746302664529,
20,,,,,0,0,0,3,2,0,2,0,20,0,20,0,,,,,,,,,,,,,,,,,322.18913229973987,None,322.78988880012184,323.3898137998767,323.37338460003957,325.3739478997886,None,1,0.6110958298668265,2.6116775297559798,increament,0.6,45,standard,None,100,,,,,,,,f,22,217,fr,r,0,raw,2022-06-02_10h04.34.911,oddball,2022.1.2,60.05746302664529,
20,,,,,0,0,0,3,2,0,2,0,21,0,21,0,,,,,,,,,,,,,,,,,325.3905456997454,None,326.02422179980204,326.62424620008096,326.6078870999627,328.6081121000461,None,1,0.6114794295281172,2.611655729357153,increament,0.6,45,standard,None,100,,,,,,,,f,22,217,fr,r,0,raw,2022-06-02_10h04.34.911,oddball,2022.1.2,60.05746302664529,
20,,,,,0,0,0,3,2,0,2,0,22,0,22,0,,,,,,,,,,,,,,,,,328.6250287001021,None,329.2254177001305,329.82551170000806,329.8089908999391,331.80939169973135,None,1,0.6113269301131368,2.611660229973495,increament,0.6,45,standard,None,100,,,,,,,,f,22,217,fr,r,0,raw,2022-06-02_10h04.34.911,oddball,2022.1.2,60.05746302664529,
20,,,,,0,0,0,3,2,0,2,0,23,0,23,0,,,,,,,,,,,,,,,,,331.8259971998632,None,332.493377499748,333.093143499922,333.0768196997233,335.0773064000532,None,1,0.608140129595995,2.6086597298271954,increament,0.6,45,standard,None,100,,,,,,,,f,22,217,fr,r,0,raw,2022-06-02_10h04.34.911,oddball,2022.1.2,60.05746302664529,
20,,,,,0,0,0,3,2,0,2,0,24,0,24,0,,,,,,,,,,,,,,,,,335.0941356001422,None,335.74421599972993,336.344630099833,336.3282682998106,338.32886510016397,None,1,0.6129905297420919,2.613574929535389,increament,0.6,45,standard,None,100,,,,,,,,f,22,217,fr,r,0,raw,2022-06-02_10h04.34.911,oddball,2022.1.2,60.05746302664529,
20,,,,,0,0,0,3,2,0,2,0,25,0,25,0,,,,,,,,,,,,,,,,,338.34551359992474,None,339.0458324998617,339.8958624997176,339.8625580999069,341.86349779972807,j,1,0.8429156299680471,2.84393642982468,increament,0.84,47,oddball,j,140,0.4859568001702428,,,,,,,f,22,217,fr,r,0,raw,2022-06-02_10h04.34.911,oddball,2022.1.2,60.05746302664529,
20,,,,,0,0,0,3,2,0,2,0,26,0,26,0,,,,,,,,,,,,,,,,,341.8806986999698,None,342.61369280004874,343.2142452998087,343.19771429989487,345.1977756000124,None,1,0.614078729879111,2.614080830011517,increament,0.6,45,standard,None,100,,,,,,,,f,22,217,fr,r,0,raw,2022-06-02_10h04.34.911,oddball,2022.1.2,60.05746302664529,
20,,,,,0,0,0,3,2,0,2,0,27,0,27,0,,,,,,,,,,,,,,,,,345.2146550999023,None,345.96488229976967,346.5649371999316,346.5483377999626,348.5488650999032,None,1,0.6126974304206669,2.6131830303929746,increament,0.6,45,standard,None,100,,,,,,,,f,22,217,fr,r,0,raw,2022-06-02_10h04.34.911,oddball,2022.1.2,60.05746302664529,
20,,,,,0,0,0,3,2,0,2,0,28,0,28,0,,,,,,,,,,,,,,,,,348.5658136000857,None,349.21591239981353,349.816763299983,349.8002353999764,351.80032090004534,None,1,0.6134643303230405,2.613496730104089,increament,0.6,45,standard,None,100,,,,,,,,f,22,217,fr,r,0,raw,2022-06-02_10h04.34.911,oddball,2022.1.2,60.05746302664529,
20,,,,,0,0,0,3,2,0,2,0,29,0,29,0,,,,,,,,,,,,,,,,,351.81713049998507,None,352.3676606998779,352.9678801000118,352.9509586999193,354.95165070006624,None,1,0.61124012991786,2.6119482298381627,increament,0.6,45,standard,None,100,,,,,,,,f,22,217,fr,r,0,raw,2022-06-02_10h04.34.911,oddball,2022.1.2,60.05746302664529,
20,,,,,0,0,0,3,3,0,3,0,0,0,0,0,,,,,,,,,,,,,,,371.31685069995,None,376.6097789998166,None,377.31018640007824,377.9104503998533,377.89376479992643,379.89447790011764,None,1,0.6124203293584287,2.6131189297884703,decreament,0.6,41,standard,None,100,,354.9686329998076,None,,,,,f,22,217,fr,r,0,raw,2022-06-02_10h04.34.911,oddball,2022.1.2,60.05746302664529,
20,,,,,0,0,0,3,3,0,3,0,1,0,1,0,,,,,,,,,,,,,,,,,379.91102909995243,None,380.59476119978353,381.19462179997936,381.17804240016267,383.1791920000687,None,1,0.6117159300483763,2.6129250302910805,decreament,0.6,41,standard,None,100,,,,,,,,f,22,217,fr,r,0,raw,2022-06-02_10h04.34.911,oddball,2022.1.2,60.05746302664529,
20,,,,,0,0,0,3,3,0,3,0,2,0,2,0,,,,,,,,,,,,,,,,,383.19575920002535,None,383.7793811997399,384.379358000122,384.36256940010935,386.3634482999332,None,1,0.6115871299989522,2.6124782296828926,decreament,0.6,41,standard,None,100,,,,,,,,f,22,217,fr,r,0,raw,2022-06-02_10h04.34.911,oddball,2022.1.2,60.05746302664529,
20,,,,,0,0,0,3,3,0,3,0,3,0,3,0,,,,,,,,,,,,,,,,,386.38016369985417,None,386.99698279984295,387.597194599919,387.5808238997124,389.58120970008895,None,1,0.6133948303759098,2.613779030740261,decreament,0.6,41,standard,None,100,,,,,,,,f,22,217,fr,r,0,raw,2022-06-02_10h04.34.911,oddball,2022.1.2,60.05746302664529,
20,,,,,0,0,0,3,3,0,3,0,4,0,4,0,,,,,,,,,,,,,,,,,389.5979872001335,None,390.39878219971433,390.99887559982017,390.98229550011456,392.9830120000988,None,1,0.6105896299704909,2.611347029916942,decreament,0.6,41,standard,None,100,,,,,,,,f,22,217,fr,r,0,raw,2022-06-02_10h04.34.911,oddball,2022.1.2,60.05746302664529,
20,,,,,0,0,0,3,3,0,3,0,5,0,5,0,,,,,,,,,,,,,,,,,392.99953739997,None,393.6999751999974,394.2996366000734,394.28336470015347,396.28386709978804,None,1,0.6094523295760155,2.6099043297581375,decreament,0.6,41,standard,None,100,,,,,,,,f,22,217,fr,r,0,raw,2022-06-02_10h04.34.911,oddball,2022.1.2,60.05746302664529,
20,,,,,0,0,0,3,3,0,3,0,6,0,6,0,,,,,,,,,,,,,,,,,396.3006786000915,None,396.96742849983275,397.4504363001324,397.4173515001312,399.4185697999783,None,0,0.4798009302467108,2.4810586301609874,decreament,0.48,44,oddball,j,80,,,,,,,,f,22,217,fr,r,0,raw,2022-06-02_10h04.34.911,oddball,2022.1.2,60.05746302664529,
20,,,,,0,0,0,3,3,0,3,0,7,0,7,0,,,,,,,,,,,,,,,,,399.4353239000775,None,400.085534399841,400.6852156999521,400.6685156999156,402.67004100000486,None,1,0.6120379301719368,2.6137154302559793,decreament,0.6,41,standard,None,100,,,,,,,,f,22,217,fr,r,0,raw,2022-06-02_10h04.34.911,oddball,2022.1.2,60.05746302664529,
20,,,,,0,0,0,3,3,0,3,0,8,0,8,0,,,,,,,,,,,,,,,,,402.6862531998195,None,403.3199701998383,403.92000010004267,403.90348479989916,405.9038921999745,None,1,0.6117465300485492,2.6121104299090803,decreament,0.6,41,standard,None,100,,,,,,,,f,22,217,fr,r,0,raw,2022-06-02_10h04.34.911,oddball,2022.1.2,60.05746302664529,
20,,,,,0,0,0,3,3,0,3,0,9,0,9,0,,,,,,,,,,,,,,,,,405.92052230006084,None,406.55469979997724,407.15484370011836,407.13852269994095,409.13878089981154,None,1,0.612916530109942,2.6131375301629305,decreament,0.6,41,standard,None,100,,,,,,,,f,22,217,fr,r,0,raw,2022-06-02_10h04.34.911,oddball,2022.1.2,60.05746302664529,
20,,,,,0,0,0,3,3,0,3,0,10,0,10,0,,,,,,,,,,,,,,,,,409.1555106998421,None,409.8389372001402,410.4391081999056,410.42248849989846,412.42368509992957,None,1,0.6118276296183467,2.6130879297852516,decreament,0.6,41,standard,None,100,,,,,,,,f,22,217,fr,r,0,raw,2022-06-02_10h04.34.911,oddball,2022.1.2,60.05746302664529,
20,,,,,0,0,0,3,3,0,3,0,11,0,11,0,,,,,,,,,,,,,,,,,412.43989449972287,None,413.1233252999373,413.72376840002835,413.7075749998912,415.70777519978583,None,1,0.6147758299484849,2.614873429760337,decreament,0.6,41,standard,None,100,,,,,,,,f,22,217,fr,r,0,raw,2022-06-02_10h04.34.911,oddball,2022.1.2,60.05746302664529,
20,,,,,0,0,0,3,3,0,3,0,12,0,12,0,,,,,,,,,,,,,,,,,415.7242892999202,None,416.4916376997717,417.09163059992716,417.0751713998616,419.076132199727,None,1,0.6122446297667921,2.6132165296003222,decreament,0.6,41,standard,None,100,,,,,,,,f,22,217,fr,r,0,raw,2022-06-02_10h04.34.911,oddball,2022.1.2,60.05746302664529,
20,,,,,0,0,0,3,3,0,3,0,13,0,13,0,,,,,,,,,,,,,,,,,419.0924709001556,None,419.64268139982596,420.2429372998886,420.22639899980277,422.2268753000535,None,1,0.6140673300251365,2.6145092300139368,decreament,0.6,41,standard,None,100,,,,,,,,f,22,217,fr,r,0,raw,2022-06-02_10h04.34.911,oddball,2022.1.2,60.05746302664529,
20,,,,,0,0,0,3,3,0,3,0,14,0,14,0,,,,,,,,,,,,,,,,,422.24367220001295,None,423.07734559988603,423.6776580000296,423.661409500055,425.6615106998943,None,1,0.6136692301370203,2.6137232300825417,decreament,0.6,41,standard,None,100,,,,,,,,f,22,217,fr,r,0,raw,2022-06-02_10h04.34.911,oddball,2022.1.2,60.05746302664529,
20,,,,,0,0,0,3,3,0,3,0,15,0,15,0,,,,,,,,,,,,,,,,,425.6783142997883,None,426.37883500009775,426.97872640006244,426.96226199995726,428.96291449991986,None,1,0.6112757297232747,2.611949829850346,decreament,0.6,41,standard,None,100,,,,,,,,f,22,217,fr,r,0,raw,2022-06-02_10h04.34.911,oddball,2022.1.2,60.05746302664529,
20,,,,,0,0,0,3,3,0,3,0,16,0,16,0,,,,,,,,,,,,,,,,,428.97959249978885,None,429.4971996000968,430.0964186997153,430.08012209972367,432.0812069000676,None,1,0.6089395303279161,2.6100584301166236,decreament,0.6,41,standard,None,100,,,,,,,,f,22,217,fr,r,0,raw,2022-06-02_10h04.34.911,oddball,2022.1.2,60.05746302664529,
20,,,,,0,0,0,3,3,0,3,0,17,0,17,0,,,,,,,,,,,,,,,,,432.09897819999605,None,432.88126470008865,433.4810588997789,433.4643808999099,435.4654089999385,None,1,0.6121892300434411,2.6132885301485658,decreament,0.6,41,standard,None,100,,,,,,,,f,22,217,fr,r,0,raw,2022-06-02_10h04.34.911,oddball,2022.1.2,60.05746302664529,
20,,,,,0,0,0,3,3,0,3,0,18,0,18,0,,,,,,,,,,,,,,,,,435.48217929992825,None,436.04975599981844,436.6493643000722,436.6324307001196,438.6333233001642,None,1,0.61091673001647,2.6118377298116684,decreament,0.6,41,standard,None,100,,,,,,,,f,22,217,fr,r,0,raw,2022-06-02_10h04.34.911,oddball,2022.1.2,60.05746302664529,
20,,,,,0,0,0,3,3,0,3,0,19,0,19,0,,,,,,,,,,,,,,,,,438.6500849998556,None,439.3001699000597,439.9001834997907,439.8840018999763,441.8845815998502,None,1,0.6126872296445072,2.613299929536879,decreament,0.6,41,standard,None,100,,,,,,,,f,22,217,fr,r,0,raw,2022-06-02_10h04.34.911,oddball,2022.1.2,60.05746302664529,
20,,,,,0,0,0,3,3,0,3,0,20,0,20,0,,,,,,,,,,,,,,,,,441.9014515997842,None,442.4848226001486,443.0851108999923,443.06815950013697,445.0696347998455,None,1,0.6108301295898855,2.6123835295438766,decreament,0.6,41,standard,None,100,,,,,,,,f,22,217,fr,r,0,raw,2022-06-02_10h04.34.911,oddball,2022.1.2,60.05746302664529,
20,,,,,0,0,0,3,3,0,3,0,21,0,21,0,,,,,,,,,,,,,,,,,445.0871899998747,None,445.7196355997585,446.3193471999839,446.303097399883,448.3034506998956,None,1,0.6114279301837087,2.6118025300092995,decreament,0.6,41,standard,None,100,,,,,,,,f,22,217,fr,r,0,raw,2022-06-02_10h04.34.911,oddball,2022.1.2,60.05746302664529,
20,,,,,0,0,0,3,3,0,3,0,22,0,22,0,,,,,,,,,,,,,,,,,448.32014979980886,None,448.92070470005274,449.52084979973733,449.5039872000925,451.50451869983226,None,1,0.6123385294340551,2.612850629258901,decreament,0.6,41,standard,None,100,,,,,,,,f,22,217,fr,r,0,raw,2022-06-02_10h04.34.911,oddball,2022.1.2,60.05746302664529,
20,,,,,0,0,0,3,3,0,3,0,23,0,23,0,,,,,,,,,,,,,,,,,451.5213231998496,None,452.2884844997898,452.88867849996313,452.87199549982324,454.87291250005364,None,1,0.6110071297734976,2.61193282995373,decreament,0.6,41,standard,None,100,,,,,,,,f,22,217,fr,r,0,raw,2022-06-02_10h04.34.911,oddball,2022.1.2,60.05746302664529,
20,,,,,0,0,0,3,3,0,3,0,24,0,24,0,,,,,,,,,,,,,,,,,454.8894638000056,None,455.57314960006624,455.8231898001395,455.7896245997399,457.7908173999749,j,1,0.245880629401654,2.2471364294178784,decreament,0.24,42,oddball,j,40,0.7745885006152093,,,,,,,f,22,217,fr,r,0,raw,2022-06-02_10h04.34.911,oddball,2022.1.2,60.05746302664529,
20,,,,,0,0,0,3,3,0,3,0,25,0,25,0,,,,,,,,,,,,,,,,,457.80848179990426,None,458.37434640014544,458.9744428000413,458.9579894999042,460.9585335999727,None,1,0.6121495305560529,2.612661830149591,decreament,0.6,41,standard,None,100,,,,,,,,f,22,217,fr,r,0,raw,2022-06-02_10h04.34.911,oddball,2022.1.2,60.05746302664529,
20,,,,,0,0,0,3,3,0,3,0,26,0,26,0,,,,,,,,,,,,,,,,,460.97495639976114,None,461.6923873000778,462.29254769999534,462.275833199732,464.2763661998324,None,1,0.6109352298080921,2.6114701298065484,decreament,0.6,41,standard,None,100,,,,,,,,f,22,217,fr,r,0,raw,2022-06-02_10h04.34.911,oddball,2022.1.2,60.05746302664529,
20,,,,,0,0,0,3,3,0,3,0,27,0,27,0,,,,,,,,,,,,,,,,,464.29336259979755,None,464.9770086999051,465.57671430008486,465.5604321998544,467.56112369988114,None,1,0.6106226299889386,2.6113160299137235,decreament,0.6,41,standard,None,100,,,,,,,,f,22,217,fr,r,0,raw,2022-06-02_10h04.34.911,oddball,2022.1.2,60.05746302664529,
20,,,,,0,0,0,3,3,0,3,0,28,0,28,0,,,,,,,,,,,,,,,,,467.57762550003827,None,468.1609885999933,468.52784040011466,468.4946292997338,470.4957606997341,j,1,0.3630486303009093,2.3643210302107036,decreament,0.36,43,oddball,j,60,1.2056338000111282,,,,,,,f,22,217,fr,r,0,raw,2022-06-02_10h04.34.911,oddball,2022.1.2,60.05746302664529,
20,,,,,0,0,0,3,3,0,3,0,29,0,29,0,,,,,,,,,,,,,,,,,470.5120572000742,None,471.0958334999159,471.6958491001278,471.6798491999507,473.67968349996954,None,1,0.6110912300646305,2.6108035296201706,decreament,0.6,41,standard,None,100,,,,,,,,f,22,217,fr,r,0,raw,2022-06-02_10h04.34.911,oddball,2022.1.2,60.05746302664529,
20,,,,,0,0,0,3,4,0,4,0,0,0,0,0,,,,,,,,,,,,,,,478.39024480013177,None,480.265597499907,None,480.99937399988994,481.59976480016485,481.58300409978256,483.58398720016703,None,1,0.6130906296893954,2.6141051296144724,increament,0.6,45,standard,None,100,,473.6969503997825,None,,,,,f,22,217,fr,r,0,raw,2022-06-02_10h04.34.911,oddball,2022.1.2,60.05746302664529,
20,,,,,0,0,0,3,4,0,4,0,1,0,1,0,,,,,,,,,,,,,,,,,483.6021157000214,None,484.3671669997275,484.9673768999055,484.951119299978,486.9513906999491,None,1,0.6129181301221251,2.6131193302571774,increament,0.6,45,standard,None,100,,,,,,,,f,22,217,fr,r,0,raw,2022-06-02_10h04.34.911,oddball,2022.1.2,60.05746302664529,
20,,,,,0,0,0,3,4,0,4,0,2,0,2,0,,,,,,,,,,,,,,,,,486.96817190013826,None,487.58560620015487,488.18573069991544,488.16877250000834,490.16955820005387,None,1,0.6115593295544386,2.612364229746163,increament,0.6,45,standard,None,100,,,,,,,,f,22,217,fr,r,0,raw,2022-06-02_10h04.34.911,oddball,2022.1.2,60.05746302664529,
20,,,,,0,0,0,3,4,0,4,0,3,0,3,0,,,,,,,,,,,,,,,,,490.186489299871,None,490.78628259990364,491.3864552001469,491.36990529997274,493.37062519975007,None,1,0.612314029596746,2.613035629503429,increament,0.6,45,standard,None,100,,,,,,,,f,22,217,fr,r,0,raw,2022-06-02_10h04.34.911,oddball,2022.1.2,60.05746302664529,
20,,,,,0,0,0,3,4,0,4,0,4,0,4,0,,,,,,,,,,,,,,,,,493.3873850000091,None,494.02084959996864,494.6213277000934,494.60473549971357,496.6052267998457,None,1,0.6127839302644134,2.6132555305957794,increament,0.6,45,standard,None,100,,,,,,,,f,22,217,fr,r,0,raw,2022-06-02_10h04.34.911,oddball,2022.1.2,60.05746302664529,
20,,,,,0,0,0,3,4,0,4,0,5,0,5,0,,,,,,,,,,,,,,,,,496.6217730999924,None,497.18882300006226,497.7890817997977,497.7729948000051,499.77324400004,None,1,0.6128254295326769,2.6130061293952167,increament,0.6,45,standard,None,100,,,,,,,,f,22,217,fr,r,0,raw,2022-06-02_10h04.34.911,oddball,2022.1.2,60.05746302664529,
20,,,,,0,0,0,3,4,0,4,0,6,0,6,0,,,,,,,,,,,,,,,,,499.78961530001834,None,500.40722619974986,501.0069586997852,500.99048849986866,502.9912474998273,None,1,0.6075898297131062,2.6083326297812164,increament,0.6,45,standard,None,100,,,,,,,,f,22,217,fr,r,0,raw,2022-06-02_10h04.34.911,oddball,2022.1.2,60.05746302664529,
20,,,,,0,0,0,3,4,0,4,0,7,0,7,0,,,,,,,,,,,,,,,,,503.0078977998346,None,503.7746846997179,504.3753415001556,504.358400600031,506.3592069000006,None,1,0.613184429705143,2.613973829895258,increament,0.6,45,standard,None,100,,,,,,,,f,22,217,fr,r,0,raw,2022-06-02_10h04.34.911,oddball,2022.1.2,60.05746302664529,
20,,,,,0,0,0,3,4,0,4,0,8,0,8,0,,,,,,,,,,,,,,,,,506.37568619986996,None,506.9425069000572,507.5428595999256,507.526129799895,509.52678619977087,None,1,0.6118713296018541,2.6125291297212243,increament,0.6,45,standard,None,100,,,,,,,,f,22,217,fr,r,0,raw,2022-06-02_10h04.34.911,oddball,2022.1.2,60.05746302664529,
20,,,,,0,0,0,3,4,0,4,0,9,0,9,0,,,,,,,,,,,,,,,,,509.5436807000078,None,510.21057310001925,511.1773349000141,511.1438556998037,513.1446289001033,j,1,0.9592363298870623,2.9600084298290312,increament,0.96,48,oddball,j,160,1.0763648003339767,,,,,,,f,22,217,fr,r,0,raw,2022-06-02_10h04.34.911,oddball,2022.1.2,60.05746302664529,
20,,,,,0,0,0,3,4,0,4,0,10,0,10,0,,,,,,,,,,,,,,,,,513.1614552000538,None,513.745311500039,514.3450436000712,514.3285228000022,516.3296690997668,None,1,0.6095054298639297,2.61074673011899,increament,0.6,45,standard,None,100,,,,,,,,f,22,217,fr,r,0,raw,2022-06-02_10h04.34.911,oddball,2022.1.2,60.05746302664529,
20,,,,,0,0,0,3,4,0,4,0,11,0,11,0,,,,,,,,,,,,,,,,,516.3458841000684,None,516.929554999806,517.5298422998749,517.5131518999115,519.5140271000564,None,1,0.6107186302542686,2.611593530047685,increament,0.6,45,standard,None,100,,,,,,,,f,22,217,fr,r,0,raw,2022-06-02_10h04.34.911,oddball,2022.1.2,60.05746302664529,
20,,,,,0,0,0,3,4,0,4,0,12,0,12,0,,,,,,,,,,,,,,,,,519.5304886000231,None,520.3474762998521,520.9477834999561,520.9311685999855,522.9316758997738,None,1,0.6118141300976276,2.612295630387962,increament,0.6,45,standard,None,100,,,,,,,,f,22,217,fr,r,0,raw,2022-06-02_10h04.34.911,oddball,2022.1.2,60.05746302664529,
20,,,,,0,0,0,3,4,0,4,0,13,0,13,0,,,,,,,,,,,,,,,,,522.9485049997456,None,523.7988970000297,524.6489532999694,524.6166294999421,526.6165517000481,j,1,0.8456457299180329,2.845508129801601,increament,0.84,47,oddball,j,140,0.5314027001149952,,,,,,,f,22,217,fr,r,0,raw,2022-06-02_10h04.34.911,oddball,2022.1.2,60.05746302664529,
20,,,,,0,0,0,3,4,0,4,0,14,0,14,0,,,,,,,,,,,,,,,,,526.6334422999062,None,527.2668143999763,527.8675083001144,527.8504837001674,529.8511997000314,None,1,0.613222430460155,2.613976930268109,increament,0.6,45,standard,None,100,,,,,,,,f,22,217,fr,r,0,raw,2022-06-02_10h04.34.911,oddball,2022.1.2,60.05746302664529,
20,,,,,0,0,0,3,4,0,4,0,15,0,15,0,,,,,,,,,,,,,,,,,529.8681649998762,None,530.4514894997701,531.0518001997843,531.0350962998345,533.0359052997082,None,1,0.6116447295062244,2.612444629892707,increament,0.6,45,standard,None,100,,,,,,,,f,22,217,fr,r,0,raw,2022-06-02_10h04.34.911,oddball,2022.1.2,60.05746302664529,
20,,,,,0,0,0,3,4,0,4,0,16,0,16,0,,,,,,,,,,,,,,,,,533.0528631997295,None,533.7527847997844,534.3528764997609,534.3364312001504,536.3368560001254,None,1,0.6125184302218258,2.6129464302212,increament,0.6,45,standard,None,100,,,,,,,,f,22,217,fr,r,0,raw,2022-06-02_10h04.34.911,oddball,2022.1.2,60.05746302664529,
20,,,,,0,0,0,3,4,0,4,0,17,0,17,0,,,,,,,,,,,,,,,,,536.3538053999655,None,536.9871641998179,537.5875510997139,537.5709263999015,539.5711711999029,None,1,0.6128854299895465,2.6130853299982846,increament,0.6,45,standard,None,100,,,,,,,,f,22,217,fr,r,0,raw,2022-06-02_10h04.34.911,oddball,2022.1.2,60.05746302664529,
20,,,,,0,0,0,3,4,0,4,0,18,0,18,0,,,,,,,,,,,,,,,,,539.5880875997245,None,540.2213921998627,540.8219499997795,540.8052147999406,542.8060628999956,None,1,0.6145272296853364,2.615400429815054,increament,0.6,45,standard,None,100,,,,,,,,f,22,217,fr,r,0,raw,2022-06-02_10h04.34.911,oddball,2022.1.2,60.05746302664529,
20,,,,,0,0,0,3,4,0,4,0,19,0,19,0,,,,,,,,,,,,,,,,,542.8225488997996,None,543.4897091998719,544.0898845000193,544.0733456998132,546.0743140997365,None,1,0.6125241303816438,2.6135374302975833,increament,0.6,45,standard,None,100,,,,,,,,f,22,217,fr,r,0,raw,2022-06-02_10h04.34.911,oddball,2022.1.2,60.05746302664529,
20,,,,,0,0,0,3,4,0,4,0,20,0,20,0,,,,,,,,,,,,,,,,,546.0908609000035,None,546.6076870998368,547.2077175998129,547.1912723998539,549.1915845000185,None,1,0.612747429870069,2.61302802991122,increament,0.6,45,standard,None,100,,,,,,,,f,22,217,fr,r,0,raw,2022-06-02_10h04.34.911,oddball,2022.1.2,60.05746302664529,
20,,,,,0,0,0,3,4,0,4,0,21,0,21,0,,,,,,,,,,,,,,,,,549.2084631999023,None,549.8255561999977,550.5587826999836,550.5258534001186,552.5262254001573,None,0,0.729947529733181,2.730275229550898,increament,0.72,46,oddball,j,120,,,,,,,,f,22,217,fr,r,0,raw,2022-06-02_10h04.34.911,oddball,2022.1.2,60.05746302664529,
20,,,,,0,0,0,3,4,0,4,0,22,0,22,0,,,,,,,,,,,,,,,,,552.5428757998161,None,553.1598280998878,553.7605928997509,553.7435463997535,555.7444597999565,None,1,0.6130907298065722,2.614115030039102,increament,0.6,45,standard,None,100,,,,,,,,f,22,217,fr,r,0,raw,2022-06-02_10h04.34.911,oddball,2022.1.2,60.05746302664529,
20,,,,,0,0,0,3,4,0,4,0,23,0,23,0,,,,,,,,,,,,,,,,,555.7631870000623,None,556.5613854997791,557.16170720011,557.1453029997647,559.14588870015,None,1,0.6110383300110698,2.6116611300967634,increament,0.6,45,standard,None,100,,,,,,,,f,22,217,fr,r,0,raw,2022-06-02_10h04.34.911,oddball,2022.1.2,60.05746302664529,
20,,,,,0,0,0,3,4,0,4,0,24,0,24,0,,,,,,,,,,,,,,,,,559.1625227001496,None,559.7959337998182,560.3959777001292,560.3793971999548,562.3803583001718,None,1,0.6122188298031688,2.6132583301514387,increament,0.6,45,standard,None,100,,,,,,,,f,22,217,fr,r,0,raw,2022-06-02_10h04.34.911,oddball,2022.1.2,60.05746302664529,
20,,,,,0,0,0,3,4,0,4,0,25,0,25,0,,,,,,,,,,,,,,,,,562.397042399738,None,563.0803888998926,563.680470299907,563.6638341001235,565.6650918000378,None,1,0.611883329693228,2.613221629522741,increament,0.6,45,standard,None,100,,,,,,,,f,22,217,fr,r,0,raw,2022-06-02_10h04.34.911,oddball,2022.1.2,60.05746302664529,
20,,,,,0,0,0,3,4,0,4,0,26,0,26,0,,,,,,,,,,,,,,,,,565.6819206997752,None,566.2314180000685,566.8315797997639,566.8151302998886,568.8158474997617,None,1,0.6140016298741102,2.614741829689592,increament,0.6,45,standard,None,100,,,,,,,,f,22,217,fr,r,0,raw,2022-06-02_10h04.34.911,oddball,2022.1.2,60.05746302664529,
20,,,,,0,0,0,3,4,0,4,0,27,0,27,0,,,,,,,,,,,,,,,,,568.8327759001404,None,569.616560800001,570.2163865999319,570.2000124999322,572.2012845999561,None,1,0.6112377298995852,2.612649630289525,increament,0.6,45,standard,None,100,,,,,,,,f,22,217,fr,r,0,raw,2022-06-02_10h04.34.911,oddball,2022.1.2,60.05746302664529,
20,,,,,0,0,0,3,4,0,4,0,28,0,28,0,,,,,,,,,,,,,,,,,572.2170898998156,None,572.8007960999385,573.4008205998689,573.3840960999951,575.3853569999337,None,1,0.6126324296928942,2.6139875296503305,increament,0.6,45,standard,None,100,,,,,,,,f,22,217,fr,r,0,raw,2022-06-02_10h04.34.911,oddball,2022.1.2,60.05746302664529,
20,,,,,0,0,0,3,4,0,4,0,29,0,29,0,,,,,,,,,,,,,,,,,575.4017193997279,None,576.2022421997972,576.8022346999496,576.7854869998991,578.7865470000543,None,1,0.6077032298780978,2.608816930092871,increament,0.6,45,standard,None,100,,,,,,,,f,22,217,fr,r,0,raw,2022-06-02_10h04.34.911,oddball,2022.1.2,60.05746302664529,
20,,,,,0,0,0,3,5,0,5,0,0,0,0,0,,,,,,,,,,,,,,,587.3790331999771,None,589.4735753000714,None,590.0740132997744,590.6742114000954,590.6579598998651,592.6585536999628,None,1,0.6126596299000084,2.6132327299565077,decreament,0.6,41,standard,None,100,,578.803441000171,None,,,,,f,22,217,fr,r,0,raw,2022-06-02_10h04.34.911,oddball,2022.1.2,60.05746302664529,
20,,,,,0,0,0,3,5,0,5,0,1,0,1,0,,,,,,,,,,,,,,,,,592.6747980997898,None,593.1918147997931,593.7922259997576,593.7753472998738,595.7763872998767,None,1,0.6124526294879615,2.613857129588723,decreament,0.6,41,standard,None,100,,,,,,,,f,22,217,fr,r,0,raw,2022-06-02_10h04.34.911,oddball,2022.1.2,60.05746302664529,
20,,,,,0,0,0,3,5,0,5,0,2,0,2,0,,,,,,,,,,,,,,,,,595.7930648997426,None,596.5097280000336,597.1099188998342,597.0936667998321,599.094165999908,None,1,0.6076022302731872,2.608101730234921,decreament,0.6,41,standard,None,100,,,,,,,,f,22,217,fr,r,0,raw,2022-06-02_10h04.34.911,oddball,2022.1.2,60.05746302664529,
20,,,,,0,0,0,3,5,0,5,0,3,0,3,0,,,,,,,,,,,,,,,,,599.1110404999927,None,599.7944219997153,600.3942398000509,600.3776295999996,602.3786272997968,None,1,0.6107628298923373,2.6117808297276497,decreament,0.6,41,standard,None,100,,,,,,,,f,22,217,fr,r,0,raw,2022-06-02_10h04.34.911,oddball,2022.1.2,60.05746302664529,
20,,,,,0,0,0,3,5,0,5,0,4,0,4,0,,,,,,,,,,,,,,,,,602.3953328998759,None,603.028812599834,603.6293589998968,603.6123722000048,605.6135726999491,None,1,0.6111289300024509,2.6123588299378753,decreament,0.6,41,standard,None,100,,,,,,,,f,22,217,fr,r,0,raw,2022-06-02_10h04.34.911,oddball,2022.1.2,60.05746302664529,
20,,,,,0,0,0,3,5,0,5,0,5,0,5,0,,,,,,,,,,,,,,,,,605.6298218998127,None,606.2967070997693,606.8969054999761,606.8805684000254,608.8815203998238,None,1,0.6115367296151817,2.6125755296088755,decreament,0.6,41,standard,None,100,,,,,,,,f,22,217,fr,r,0,raw,2022-06-02_10h04.34.911,oddball,2022.1.2,60.05746302664529,
20,,,,,0,0,0,3,5,0,5,0,6,0,6,0,,,,,,,,,,,,,,,,,608.8993894001469,None,609.4642340000719,610.0653065000661,610.0485320999287,612.0489451000467,None,1,0.6152856294065714,2.61556432954967,decreament,0.6,41,standard,None,100,,,,,,,,f,22,217,fr,r,0,raw,2022-06-02_10h04.34.911,oddball,2022.1.2,60.05746302664529,
20,,,,,0,0,0,3,5,0,5,0,7,0,7,0,,,,,,,,,,,,,,,,,612.0655471999198,None,612.7327902000397,613.2163078999147,613.1999122998677,615.1999214999378,None,0,0.4919109297916293,2.491818629670888,decreament,0.48,44,oddball,j,80,,,,,,,,f,22,217,fr,r,0,raw,2022-06-02_10h04.34.911,oddball,2022.1.2,60.05746302664529,
20,,,,,0,0,0,3,5,0,5,0,8,0,8,0,,,,,,,,,,,,,,,,,615.2168117999099,None,615.9504303997383,616.5508950999938,616.5343172000721,618.5349457999691,None,1,0.6115801301784813,2.612148530315608,decreament,0.6,41,standard,None,100,,,,,,,,f,22,217,fr,r,0,raw,2022-06-02_10h04.34.911,oddball,2022.1.2,60.05746302664529,
20,,,,,0,0,0,3,5,0,5,0,9,0,9,0,,,,,,,,,,,,,,,,,618.5516344998032,None,619.4023027000949,620.0018957997672,619.9853258999065,621.9862883999012,None,1,0.607240529730916,2.60825342964381,decreament,0.6,41,standard,None,100,,,,,,,,f,22,217,fr,r,0,raw,2022-06-02_10h04.34.911,oddball,2022.1.2,60.05746302664529,
20,,,,,0,0,0,3,5,0,5,0,10,0,10,0,,,,,,,,,,,,,,,,,622.0026953998022,None,622.6863802997395,623.2867320999503,623.2697561001405,625.2706113001332,None,1,0.6080168299376965,2.6088862298056483,decreament,0.6,41,standard,None,100,,,,,,,,f,22,217,fr,r,0,raw,2022-06-02_10h04.34.911,oddball,2022.1.2,60.05746302664529,
20,,,,,0,0,0,3,5,0,5,0,11,0,11,0,,,,,,,,,,,,,,,,,625.2877096999437,None,625.8875021999702,626.4881985997781,626.4713683999144,628.4717938997783,None,1,0.6125699300318956,2.6129185296595097,decreament,0.6,41,standard,None,100,,,,,,,,f,22,217,fr,r,0,raw,2022-06-02_10h04.34.911,oddball,2022.1.2,60.05746302664529,
20,,,,,0,0,0,3,5,0,5,0,12,0,12,0,,,,,,,,,,,,,,,,,628.488609299995,None,629.0552344000898,629.6556345997378,629.6387991998345,631.6397755998187,None,1,0.6120274299755692,2.613032029941678,decreament,0.6,41,standard,None,100,,,,,,,,f,22,217,fr,r,0,raw,2022-06-02_10h04.34.911,oddball,2022.1.2,60.05746302664529,
20,,,,,0,0,0,3,5,0,5,0,13,0,13,0,,,,,,,,,,,,,,,,,631.6567375999875,None,632.4405450997874,633.0403427998535,633.0238675000146,635.0241768001579,None,1,0.6102934298105538,2.6105046295560896,decreament,0.6,41,standard,None,100,,,,,,,,f,22,217,fr,r,0,raw,2022-06-02_10h04.34.911,oddball,2022.1.2,60.05746302664529,
20,,,,,0,0,0,3,5,0,5,0,14,0,14,0,,,,,,,,,,,,,,,,,635.0411606999114,None,635.7246735999361,636.324777700007,636.3083954998292,638.3086681999266,None,1,0.6116591296158731,2.6118804295547307,decreament,0.6,41,standard,None,100,,,,,,,,f,22,217,fr,r,0,raw,2022-06-02_10h04.34.911,oddball,2022.1.2,60.05746302664529,
20,,,,,0,0,0,3,5,0,5,0,15,0,15,0,,,,,,,,,,,,,,,,,638.3254754999653,None,639.0089846998453,639.6095758997835,639.593082100153,641.593628199771,None,1,0.6138226301409304,2.6143704298883677,decreament,0.6,41,standard,None,100,,,,,,,,f,22,217,fr,r,0,raw,2022-06-02_10h04.34.911,oddball,2022.1.2,60.05746302664529,
20,,,,,0,0,0,3,5,0,5,0,16,0,16,0,,,,,,,,,,,,,,,,,641.6105412999168,None,642.3106462000869,642.6771396999247,642.6443412001245,644.6444974001497,j,1,0.3597389296628535,2.3598286299966276,decreament,0.36,43,oddball,j,60,0.8070756001397967,,,,,,,f,22,217,fr,r,0,raw,2022-06-02_10h04.34.911,oddball,2022.1.2,60.05746302664529,
20,,,,,0,0,0,3,5,0,5,0,17,0,17,0,,,,,,,,,,,,,,,,,644.6612398000434,None,645.4282657001168,646.0288271000609,646.0119571997784,648.0129013997503,None,1,0.6113981297239661,2.612398029770702,decreament,0.6,41,standard,None,100,,,,,,,,f,22,217,fr,r,0,raw,2022-06-02_10h04.34.911,oddball,2022.1.2,60.05746302664529,
20,,,,,0,0,0,3,5,0,5,0,18,0,18,0,,,,,,,,,,,,,,,,,648.030577799771,None,648.7296393997967,649.329620399978,649.31308670016,651.3138292999938,None,1,0.6126480298116803,2.613378429785371,decreament,0.6,41,standard,None,100,,,,,,,,f,22,217,fr,r,0,raw,2022-06-02_10h04.34.911,oddball,2022.1.2,60.05746302664529,
20,,,,,0,0,0,3,5,0,5,0,19,0,19,0,,,,,,,,,,,,,,,,,651.3304519001395,None,652.031152300071,652.6310736001469,652.614350900054,654.6150491000153,None,1,0.6121347299776971,2.612845530267805,decreament,0.6,41,standard,None,100,,,,,,,,f,22,217,fr,r,0,raw,2022-06-02_10h04.34.911,oddball,2022.1.2,60.05746302664529,
20,,,,,0,0,0,3,5,0,5,0,20,0,20,0,,,,,,,,,,,,,,,,,654.6318870000541,None,655.2655608998612,655.5153644001111,655.4819869999774,657.4826925001107,j,1,0.2419964298605919,2.242686530109495,decreament,0.24,42,oddball,j,40,0.8892136006616056,,,,,,,f,22,217,fr,r,0,raw,2022-06-02_10h04.34.911,oddball,2022.1.2,60.05746302664529,
20,,,,,0,0,0,3,5,0,5,0,21,0,21,0,,,,,,,,,,,,,,,,,657.4994156998582,None,658.066667099949,658.666619699914,658.6500021000393,660.6506034997292,None,1,0.6127111297100782,2.6132761295884848,decreament,0.6,41,standard,None,100,,,,,,,,f,22,217,fr,r,0,raw,2022-06-02_10h04.34.911,oddball,2022.1.2,60.05746302664529,
20,,,,,0,0,0,3,5,0,5,0,22,0,22,0,,,,,,,,,,,,,,,,,660.6672923997976,None,661.4009269000962,662.001372799743,661.9845388000831,663.9855253999121,None,1,0.6136076301336288,2.614688230212778,decreament,0.6,41,standard,None,100,,,,,,,,f,22,217,fr,r,0,raw,2022-06-02_10h04.34.911,oddball,2022.1.2,60.05746302664529,
20,,,,,0,0,0,3,5,0,5,0,23,0,23,0,,,,,,,,,,,,,,,,,664.0027652001008,None,664.6690722000785,665.2690325998701,665.2528686998412,667.2532441001385,None,1,0.6124661299400032,2.6128382300958037,decreament,0.6,41,standard,None,100,,,,,,,,f,22,217,fr,r,0,raw,2022-06-02_10h04.34.911,oddball,2022.1.2,60.05746302664529,
20,,,,,0,0,0,3,5,0,5,0,24,0,24,0,,,,,,,,,,,,,,,,,667.2697863001376,None,667.8535055001266,668.4537125998177,668.4368294999003,670.4374978998676,None,1,0.6127056302502751,2.6133357300423086,decreament,0.6,41,standard,None,100,,,,,,,,f,22,217,fr,r,0,raw,2022-06-02_10h04.34.911,oddball,2022.1.2,60.05746302664529,
20,,,,,0,0,0,3,5,0,5,0,25,0,25,0,,,,,,,,,,,,,,,,,670.4545259000733,None,671.187956799753,671.788541899994,671.7718206997961,673.772649299819,None,1,0.6114884302951396,2.6123924301937222,decreament,0.6,41,standard,None,100,,,,,,,,f,22,217,fr,r,0,raw,2022-06-02_10h04.34.911,oddball,2022.1.2,60.05746302664529,
20,,,,,0,0,0,3,5,0,5,0,26,0,26,0,,,,,,,,,,,,,,,,,673.7902394998819,None,674.506066000089,675.1062901997939,675.0893895998597,677.0902220001444,None,1,0.6104228300973773,2.611106629949063,decreament,0.6,41,standard,None,100,,,,,,,,f,22,217,fr,r,0,raw,2022-06-02_10h04.34.911,oddball,2022.1.2,60.05746302664529,
20,,,,,0,0,0,3,5,0,5,0,27,0,27,0,,,,,,,,,,,,,,,,,677.1069355998188,None,677.7408730001189,678.3409384000115,678.3242768999189,680.3250362998806,None,1,0.6105157299898565,2.611308630090207,decreament,0.6,41,standard,None,100,,,,,,,,f,22,217,fr,r,0,raw,2022-06-02_10h04.34.911,oddball,2022.1.2,60.05746302664529,
20,,,,,0,0,0,3,5,0,5,0,28,0,28,0,,,,,,,,,,,,,,,,,680.3433010997251,None,680.9249541000463,681.5253726998344,681.5090121999383,683.5095116999,None,1,0.6125459298491478,2.613022029865533,decreament,0.6,41,standard,None,100,,,,,,,,f,22,217,fr,r,0,raw,2022-06-02_10h04.34.911,oddball,2022.1.2,60.05746302664529,
20,,,,,0,0,0,3,5,0,5,0,29,0,29,0,,,,,,,,,,,,,,,,,683.5263113998808,None,684.0762653998099,684.6765413000248,684.6600088998675,686.6603752998635,None,1,0.6128779300488532,2.6132002300582826,decreament,0.6,41,standard,None,100,,,,,,,,f,22,217,fr,r,0,raw,2022-06-02_10h04.34.911,oddball,2022.1.2,60.05746302664529,
20,,,,,0,0,0,3,6,0,6,0,0,0,0,0,,,,,,,,,,,,,,,696.8042692998424,None,699.3319012997672,None,700.0322914998978,700.6329374997877,700.6159731997177,702.6167562999763,None,1,0.6120389299467206,2.612815829925239,increament,0.6,45,standard,None,100,,686.6773104998283,None,,,,,f,22,217,fr,r,0,raw,2022-06-02_10h04.34.911,oddball,2022.1.2,60.05746302664529,
20,,,,,0,0,0,3,6,0,6,0,1,0,1,0,,,,,,,,,,,,,,,,,702.6331710000522,None,703.2169262999669,703.8170189997181,703.8007260998711,705.8017743998207,None,1,0.611064029391855,2.612092829775065,increament,0.6,45,standard,None,100,,,,,,,,f,22,217,fr,r,0,raw,2022-06-02_10h04.34.911,oddball,2022.1.2,60.05746302664529,
20,,,,,0,0,0,3,6,0,6,0,2,0,2,0,,,,,,,,,,,,,,,,,705.820234300103,None,706.3677328997292,706.9687708001584,706.951777999755,708.9523430997506,None,1,0.6146652293391526,2.6151925297454,increament,0.6,45,standard,None,100,,,,,,,,f,22,217,fr,r,0,raw,2022-06-02_10h04.34.911,oddball,2022.1.2,60.05746302664529,
20,,,,,0,0,0,3,6,0,6,0,3,0,3,0,,,,,,,,,,,,,,,,,708.9688597000204,None,709.7026764997281,710.3027527998202,710.2865582997911,712.2868718998507,None,1,0.6133341295644641,2.6136062294244766,increament,0.6,45,standard,None,100,,,,,,,,f,22,217,fr,r,0,raw,2022-06-02_10h04.34.911,oddball,2022.1.2,60.05746302664529,
20,,,,,0,0,0,3,6,0,6,0,4,0,4,0,,,,,,,,,,,,,,,,,712.3035407001153,None,712.9375167000107,713.5376399997622,713.521076799836,715.5212789997458,None,1,0.613311929628253,2.613426229916513,increament,0.6,45,standard,None,100,,,,,,,,f,22,217,fr,r,0,raw,2022-06-02_10h04.34.911,oddball,2022.1.2,60.05746302664529,
20,,,,,0,0,0,3,6,0,6,0,5,0,5,0,,,,,,,,,,,,,,,,,715.5379305998795,None,716.2053101998754,716.8054829998873,716.7891473998316,718.7891939999536,None,1,0.6124056298285723,2.6123936297371984,increament,0.6,45,standard,None,100,,,,,,,,f,22,217,fr,r,0,raw,2022-06-02_10h04.34.911,oddball,2022.1.2,60.05746302664529,
20,,,,,0,0,0,3,6,0,6,0,6,0,6,0,,,,,,,,,,,,,,,,,718.8061159998178,None,719.3396519999951,719.9399705999531,719.9230603999458,721.9240346001461,None,1,0.6108017298392951,2.611818329896778,increament,0.6,45,standard,None,100,,,,,,,,f,22,217,fr,r,0,raw,2022-06-02_10h04.34.911,oddball,2022.1.2,60.05746302664529,
20,,,,,0,0,0,3,6,0,6,0,7,0,7,0,,,,,,,,,,,,,,,,,721.9406444998458,None,722.5907012997195,723.1908856001683,723.1741466997191,725.1749391998164,None,1,0.6130388299934566,2.6138395299203694,increament,0.6,45,standard,None,100,,,,,,,,f,22,217,fr,r,0,raw,2022-06-02_10h04.34.911,oddball,2022.1.2,60.05746302664529,
20,,,,,0,0,0,3,6,0,6,0,8,0,8,0,,,,,,,,,,,,,,,,,725.1918715997599,None,725.7585954000242,726.6088115000166,726.5755205997266,728.5763265001588,None,0,0.8460014299489558,2.84681192971766,increament,0.84,47,oddball,j,140,,,,,,,,f,22,217,fr,r,0,raw,2022-06-02_10h04.34.911,oddball,2022.1.2,60.05746302664529,
20,,,,,0,0,0,3,6,0,6,0,9,0,9,0,,,,,,,,,,,,,,,,,728.5928822001442,None,729.2600267999806,729.860360799823,729.8436082997359,731.8446558001451,None,1,0.6118182302452624,2.6129336301237345,increament,0.6,45,standard,None,100,,,,,,,,f,22,217,fr,r,0,raw,2022-06-02_10h04.34.911,oddball,2022.1.2,60.05746302664529,
20,,,,,0,0,0,3,6,0,6,0,10,0,10,0,,,,,,,,,,,,,,,,,731.8617022000253,None,732.6281616999768,733.2283230000176,733.211409999989,735.2124733999372,None,1,0.6099707302637398,2.6111016301438212,increament,0.6,45,standard,None,100,,,,,,,,f,22,217,fr,r,0,raw,2022-06-02_10h04.34.911,oddball,2022.1.2,60.05746302664529,
20,,,,,0,0,0,3,6,0,6,0,11,0,11,0,,,,,,,,,,,,,,,,,735.228954799939,None,735.8295621997677,736.4296817998402,736.4127926998772,738.4135265001096,None,1,0.6113462299108505,2.612020129803568,increament,0.6,45,standard,None,100,,,,,,,,f,22,217,fr,r,0,raw,2022-06-02_10h04.34.911,oddball,2022.1.2,60.05746302664529,
20,,,,,0,0,0,3,6,0,6,0,12,0,12,0,,,,,,,,,,,,,,,,,738.4300997997634,None,739.1141580999829,739.7138644000515,739.6970921000466,741.698407500051,None,1,0.6121417297981679,2.6135728298686445,increament,0.6,45,standard,None,100,,,,,,,,f,22,217,fr,r,0,raw,2022-06-02_10h04.34.911,oddball,2022.1.2,60.05746302664529,
20,,,,,0,0,0,3,6,0,6,0,13,0,13,0,,,,,,,,,,,,,,,,,741.7152982000262,None,742.3648111997172,743.3318507997319,743.2989697000012,745.2993684997782,j,1,0.9637798299081624,2.9642177298665047,increament,0.96,48,oddball,j,160,1.047521200031042,,,,,,,f,22,217,fr,r,0,raw,2022-06-02_10h04.34.911,oddball,2022.1.2,60.05746302664529,
20,,,,,0,0,0,3,6,0,6,0,14,0,14,0,,,,,,,,,,,,,,,,,745.3164820000529,None,745.9332787999883,746.5337306000292,746.516569999978,748.5171934999526,None,1,0.6078696297481656,2.6084036296233535,increament,0.6,45,standard,None,100,,,,,,,,f,22,217,fr,r,0,raw,2022-06-02_10h04.34.911,oddball,2022.1.2,60.05746302664529,
20,,,,,0,0,0,3,6,0,6,0,15,0,15,0,,,,,,,,,,,,,,,,,748.5337060997263,None,749.2175544998609,749.8179667000659,749.8010732000694,751.8018147000112,None,1,0.6124115302227437,2.6131558301858604,increament,0.6,45,standard,None,100,,,,,,,,f,22,217,fr,r,0,raw,2022-06-02_10h04.34.911,oddball,2022.1.2,60.05746302664529,
20,,,,,0,0,0,3,6,0,6,0,16,0,16,0,,,,,,,,,,,,,,,,,751.8187005999498,None,752.3860778999515,752.9854124998674,752.9689183998853,754.9695222997107,None,1,0.6104962299577892,2.6110968301072717,increament,0.6,45,standard,None,100,,,,,,,,f,22,217,fr,r,0,raw,2022-06-02_10h04.34.911,oddball,2022.1.2,60.05746302664529,
20,,,,,0,0,0,3,6,0,6,0,17,0,17,0,,,,,,,,,,,,,,,,,754.9864126998,None,755.5865708999336,756.1867911997251,756.1704592001624,758.1711920001544,None,1,0.6127412295900285,2.6135433297604322,increament,0.6,45,standard,None,100,,,,,,,,f,22,217,fr,r,0,raw,2022-06-02_10h04.34.911,oddball,2022.1.2,60.05746302664529,
20,,,,,0,0,0,3,6,0,6,0,18,0,18,0,,,,,,,,,,,,,,,,,758.1878241999075,None,758.8211034000851,759.4216009001248,759.4047904000618,761.4056114000268,None,1,0.6124042300507426,2.6132464301772416,increament,0.6,45,standard,None,100,,,,,,,,f,22,217,fr,r,0,raw,2022-06-02_10h04.34.911,oddball,2022.1.2,60.05746302664529,
20,,,,,0,0,0,3,6,0,6,0,19,0,19,0,,,,,,,,,,,,,,,,,761.4222663999535,None,762.0726287998259,762.6725373999216,762.6564001999795,764.6567162997089,None,1,0.6121993297711015,2.6124146301299334,increament,0.6,45,standard,None,100,,,,,,,,f,22,217,fr,r,0,raw,2022-06-02_10h04.34.911,oddball,2022.1.2,60.05746302664529,
20,,,,,0,0,0,3,6,0,6,0,20,0,20,0,,,,,,,,,,,,,,,,,764.6737011000514,None,765.3238184000365,765.9238883000799,765.9071864001453,767.9081637999043,None,1,0.6121657295152545,2.6131480294279754,increament,0.6,45,standard,None,100,,,,,,,,f,22,217,fr,r,0,raw,2022-06-02_10h04.34.911,oddball,2022.1.2,60.05746302664529,
20,,,,,0,0,0,3,6,0,6,0,21,0,21,0,,,,,,,,,,,,,,,,,767.9246331001632,None,768.5250280001201,769.124931300059,769.1082441001199,771.1092660999857,None,1,0.6122324299067259,2.6132806302048266,increament,0.6,45,standard,None,100,,,,,,,,f,22,217,fr,r,0,raw,2022-06-02_10h04.34.911,oddball,2022.1.2,60.05746302664529,
20,,,,,0,0,0,3,6,0,6,0,22,0,22,0,,,,,,,,,,,,,,,,,771.1260059997439,None,771.675995499827,772.2763792001642,772.2599347997457,774.2605508998968,None,1,0.6097405296750367,2.6103218300268054,increament,0.6,45,standard,None,100,,,,,,,,f,22,217,fr,r,0,raw,2022-06-02_10h04.34.911,oddball,2022.1.2,60.05746302664529,
20,,,,,0,0,0,3,6,0,6,0,23,0,23,0,,,,,,,,,,,,,,,,,774.2772780000232,None,774.9773444999009,775.5776360998861,775.5611692997627,777.5620385999791,None,1,0.6089350301772356,2.609820930287242,increament,0.6,45,standard,None,100,,,,,,,,f,22,217,fr,r,0,raw,2022-06-02_10h04.34.911,oddball,2022.1.2,60.05746302664529,
20,,,,,0,0,0,3,6,0,6,0,24,0,24,0,,,,,,,,,,,,,,,,,777.5781717998907,None,778.1451769000851,778.74526529992,778.7286065998487,780.7295276001096,None,1,0.6130315298214555,2.6139324298128486,increament,0.6,45,standard,None,100,,,,,,,,f,22,217,fr,r,0,raw,2022-06-02_10h04.34.911,oddball,2022.1.2,60.05746302664529,
20,,,,,0,0,0,3,6,0,6,0,25,0,25,0,,,,,,,,,,,,,,,,,780.7460807999596,None,781.4464412997477,782.0465708998963,782.0298616997898,784.0306449001655,None,1,0.6124623296782374,2.6132693300023675,increament,0.6,45,standard,None,100,,,,,,,,f,22,217,fr,r,0,raw,2022-06-02_10h04.34.911,oddball,2022.1.2,60.05746302664529,
20,,,,,0,0,0,3,6,0,6,0,26,0,26,0,,,,,,,,,,,,,,,,,784.0473968000151,None,784.6809331001714,785.2811032999307,785.2648538998328,787.2654352998361,None,1,0.6132584298029542,2.6137643298134208,increament,0.6,45,standard,None,100,,,,,,,,f,22,217,fr,r,0,raw,2022-06-02_10h04.34.911,oddball,2022.1.2,60.05746302664529,
20,,,,,0,0,0,3,6,0,6,0,27,0,27,0,,,,,,,,,,,,,,,,,787.2820608997717,None,787.8823329000734,788.482342499774,788.4655005000532,790.466186599806,None,1,0.6123995301313698,2.613096230197698,increament,0.6,45,standard,None,100,,,,,,,,f,22,217,fr,r,0,raw,2022-06-02_10h04.34.911,oddball,2022.1.2,60.05746302664529,
20,,,,,0,0,0,3,6,0,6,0,28,0,28,0,,,,,,,,,,,,,,,,,790.482826099731,None,791.0500130001456,791.7834894000553,791.750367499888,793.7516720001586,None,0,0.729622530285269,2.731025530025363,increament,0.72,46,oddball,j,120,,,,,,,,f,22,217,fr,r,0,raw,2022-06-02_10h04.34.911,oddball,2022.1.2,60.05746302664529,
20,,,,,0,0,0,3,6,0,6,0,29,0,29,0,,,,,,,,,,,,,,,,,793.7702350998297,None,794.3348508998752,794.9350693998858,794.9181927000172,796.9192035999149,None,1,0.6119727296754718,2.613014429807663,increament,0.6,45,standard,None,100,,,,,,,,f,22,217,fr,r,0,raw,2022-06-02_10h04.34.911,oddball,2022.1.2,60.05746302664529,
20,,,,,0,0,0,3,7,0,7,0,0,0,0,0,,,,,,,,,,,,,,,805.9427721998654,None,808.0566658000462,None,808.673446000088,809.2733966000378,809.2569164000452,811.257844899781,None,1,0.6120717297308147,2.6130086299963295,decreament,0.6,41,standard,None,100,,796.9357616999187,None,,,,,f,22,217,fr,r,0,raw,2022-06-02_10h04.34.911,oddball,2022.1.2,60.05746302664529,
20,,,,,0,0,0,3,7,0,7,0,1,0,1,0,,,,,,,,,,,,,,,,,811.2745276000351,None,811.9746032999828,812.5754744997248,812.5582416001707,814.5591695001349,None,1,0.6094258297234774,2.610351129900664,decreament,0.6,41,standard,None,100,,,,,,,,f,22,217,fr,r,0,raw,2022-06-02_10h04.34.911,oddball,2022.1.2,60.05746302664529,
20,,,,,0,0,0,3,7,0,7,0,2,0,2,0,,,,,,,,,,,,,,,,,814.5758226001635,None,815.1925868000835,815.7926922999322,815.7758535998873,817.7768100998364,None,1,0.6119930297136307,2.6129937297664583,decreament,0.6,41,standard,None,100,,,,,,,,f,22,217,fr,r,0,raw,2022-06-02_10h04.34.911,oddball,2022.1.2,60.05746302664529,
20,,,,,0,0,0,3,7,0,7,0,3,0,3,0,,,,,,,,,,,,,,,,,817.7936578998342,None,818.4609448998235,819.0606096000411,819.0441847001202,821.0447227000259,None,1,0.6115811294876039,2.612116129603237,decreament,0.6,41,standard,None,100,,,,,,,,f,22,217,fr,r,0,raw,2022-06-02_10h04.34.911,oddball,2022.1.2,60.05746302664529,
20,,,,,0,0,0,3,7,0,7,0,4,0,4,0,,,,,,,,,,,,,,,,,821.0613834001124,None,821.6783090997487,822.2783840000629,822.2618196997792,824.2626175000332,None,1,0.6123259295709431,2.6131985294632614,decreament,0.6,41,standard,None,100,,,,,,,,f,22,217,fr,r,0,raw,2022-06-02_10h04.34.911,oddball,2022.1.2,60.05746302664529,
20,,,,,0,0,0,3,7,0,7,0,5,0,5,0,,,,,,,,,,,,,,,,,824.2793469000608,None,824.8964551999234,825.4967506998219,825.4804341001436,827.480700999964,None,1,0.6103679304942489,2.610603630542755,decreament,0.6,41,standard,None,100,,,,,,,,f,22,217,fr,r,0,raw,2022-06-02_10h04.34.911,oddball,2022.1.2,60.05746302664529,
20,,,,,0,0,0,3,7,0,7,0,6,0,6,0,,,,,,,,,,,,,,,,,827.4974150997587,None,828.0474172001705,828.6476779999211,828.631568999961,830.6320043997839,None,1,0.6120589296333492,2.612372429575771,decreament,0.6,41,standard,None,100,,,,,,,,f,22,217,fr,r,0,raw,2022-06-02_10h04.34.911,oddball,2022.1.2,60.05746302664529,
20,,,,,0,0,0,3,7,0,7,0,7,0,7,0,,,,,,,,,,,,,,,,,830.6485596001148,None,831.215778300073,831.5820721001364,831.5487907999195,833.5494701000862,j,1,0.361375929787755,2.3620453299954534,decreament,0.36,43,oddball,j,60,0.9330370002426207,,,,,,,f,22,217,fr,r,0,raw,2022-06-02_10h04.34.911,oddball,2022.1.2,60.05746302664529,
20,,,,,0,0,0,3,7,0,7,0,8,0,8,0,,,,,,,,,,,,,,,,,833.5662501999177,None,834.1663591000251,834.7668673000298,834.7504877997562,836.7513699997216,None,1,0.6131294299848378,2.6140138297341764,decreament,0.6,41,standard,None,100,,,,,,,,f,22,217,fr,r,0,raw,2022-06-02_10h04.34.911,oddball,2022.1.2,60.05746302664529,
20,,,,,0,0,0,3,7,0,7,0,9,0,9,0,,,,,,,,,,,,,,,,,836.7681069001555,None,837.417924199719,838.0182084999979,838.0010484997183,840.0020841998048,None,1,0.6089317300356925,2.610004829708487,decreament,0.6,41,standard,None,100,,,,,,,,f,22,217,fr,r,0,raw,2022-06-02_10h04.34.911,oddball,2022.1.2,60.05746302664529,
20,,,,,0,0,0,3,7,0,7,0,10,0,10,0,,,,,,,,,,,,,,,,,840.018557399977,None,840.6692106998526,841.269346000161,841.2525206999853,843.2538052001037,None,1,0.6118783298879862,2.6132606295868754,decreament,0.6,41,standard,None,100,,,,,,,,f,22,217,fr,r,0,raw,2022-06-02_10h04.34.911,oddball,2022.1.2,60.05746302664529,
20,,,,,0,0,0,3,7,0,7,0,11,0,11,0,,,,,,,,,,,,,,,,,843.2719129999168,None,844.0200378997251,844.6203617998399,844.6037371000275,846.6043893001042,None,1,0.6109353299252689,2.6115661300718784,decreament,0.6,41,standard,None,100,,,,,,,,f,22,217,fr,r,0,raw,2022-06-02_10h04.34.911,oddball,2022.1.2,60.05746302664529,
20,,,,,0,0,0,3,7,0,7,0,12,0,12,0,,,,,,,,,,,,,,,,,846.6212355997413,None,847.388251400087,847.8714156998321,847.8549496000633,849.8556886999868,j,1,0.4929058300331235,2.493666530121118,decreament,0.48,44,oddball,j,80,0.8191769002005458,,,,,,,f,22,217,fr,r,0,raw,2022-06-02_10h04.34.911,oddball,2022.1.2,60.05746302664529,
20,,,,,0,0,0,3,7,0,7,0,13,0,13,0,,,,,,,,,,,,,,,,,849.8725872999057,None,850.605872400105,851.2059690998867,851.1893652998842,853.1904386999086,None,1,0.6101590297184885,2.611337829846889,decreament,0.6,41,standard,None,100,,,,,,,,f,22,217,fr,r,0,raw,2022-06-02_10h04.34.911,oddball,2022.1.2,60.05746302664529,
20,,,,,0,0,0,3,7,0,7,0,14,0,14,0,,,,,,,,,,,,,,,,,853.2073678998277,None,853.9241005997173,854.523997399956,854.5075833997689,856.5081524001434,None,1,0.6126759299077094,2.613249129615724,decreament,0.6,41,standard,None,100,,,,,,,,f,22,217,fr,r,0,raw,2022-06-02_10h04.34.911,oddball,2022.1.2,60.05746302664529,
20,,,,,0,0,0,3,7,0,7,0,15,0,15,0,,,,,,,,,,,,,,,,,856.5250634001568,None,857.1085453997366,857.7086402997375,857.6920201997273,859.6927399998531,None,1,0.609588430263102,2.6103189303539693,decreament,0.6,41,standard,None,100,,,,,,,,f,22,217,fr,r,0,raw,2022-06-02_10h04.34.911,oddball,2022.1.2,60.05746302664529,
20,,,,,0,0,0,3,7,0,7,0,16,0,16,0,,,,,,,,,,,,,,,,,859.7096571000293,None,860.3596407999285,860.9598769997247,860.9434691998176,862.9444365999661,None,1,0.6122439298778772,2.6133416295051575,decreament,0.6,41,standard,None,100,,,,,,,,f,22,217,fr,r,0,raw,2022-06-02_10h04.34.911,oddball,2022.1.2,60.05746302664529,
20,,,,,0,0,0,3,7,0,7,0,17,0,17,0,,,,,,,,,,,,,,,,,862.9630065998062,None,863.6944606001489,864.2944232998416,864.2779019000009,866.2786439000629,None,1,0.6123651298694313,2.613138330169022,decreament,0.6,41,standard,None,100,,,,,,,,f,22,217,fr,r,0,raw,2022-06-02_10h04.34.911,oddball,2022.1.2,60.05746302664529,
20,,,,,0,0,0,3,7,0,7,0,18,0,18,0,,,,,,,,,,,,,,,,,866.2951940000057,None,866.9120988999493,867.1622150000185,867.1288673998788,869.1295797997154,j,1,0.24619433004409075,2.246899829711765,decreament,0.24,42,oddball,j,40,0.8102285000495613,,,,,,,f,22,217,fr,r,0,raw,2022-06-02_10h04.34.911,oddball,2022.1.2,60.05746302664529,
20,,,,,0,0,0,3,7,0,7,0,19,0,19,0,,,,,,,,,,,,,,,,,869.1462341998704,None,869.7634634999558,870.3635702999309,870.3466986999847,872.3476013001055,None,1,0.6095813298597932,2.6104900296777487,decreament,0.6,41,standard,None,100,,,,,,,,f,22,217,fr,r,0,raw,2022-06-02_10h04.34.911,oddball,2022.1.2,60.05746302664529,
20,,,,,0,0,0,3,7,0,7,0,20,0,20,0,,,,,,,,,,,,,,,,,872.3641093997285,None,873.0814402997494,873.6815741001628,873.6646728999913,875.6653081998229,None,1,0.6102711302228272,2.6108421301469207,decreament,0.6,41,standard,None,100,,,,,,,,f,22,217,fr,r,0,raw,2022-06-02_10h04.34.911,oddball,2022.1.2,60.05746302664529,
20,,,,,0,0,0,3,7,0,7,0,21,0,21,0,,,,,,,,,,,,,,,,,875.6818352001719,None,876.2822660999373,876.88253419986,876.866366900038,878.8672708999366,None,1,0.6143066296353936,2.6153370295651257,decreament,0.6,41,standard,None,100,,,,,,,,f,22,217,fr,r,0,raw,2022-06-02_10h04.34.911,oddball,2022.1.2,60.05746302664529,
20,,,,,0,0,0,3,7,0,7,0,22,0,22,0,,,,,,,,,,,,,,,,,878.8849659999833,None,879.634037700016,880.2337368000299,880.2170698000118,882.218010599725,None,1,0.6089087300933897,2.6100102299824357,decreament,0.6,41,standard,None,100,,,,,,,,f,22,217,fr,r,0,raw,2022-06-02_10h04.34.911,oddball,2022.1.2,60.05746302664529,
20,,,,,0,0,0,3,7,0,7,0,23,0,23,0,,,,,,,,,,,,,,,,,882.2347941999324,None,882.9015077999793,883.5015373998322,883.4852607999928,885.4854425000958,None,1,0.6106684301048517,2.610825629904866,decreament,0.6,41,standard,None,100,,,,,,,,f,22,217,fr,r,0,raw,2022-06-02_10h04.34.911,oddball,2022.1.2,60.05746302664529,
20,,,,,0,0,0,3,7,0,7,0,24,0,24,0,,,,,,,,,,,,,,,,,885.5023984001018,None,886.2528591998853,886.8527836999856,886.8362798001617,888.836923299823,None,1,0.611479529645294,2.612371829804033,decreament,0.6,41,standard,None,100,,,,,,,,f,22,217,fr,r,0,raw,2022-06-02_10h04.34.911,oddball,2022.1.2,60.05746302664529,
20,,,,,0,0,0,3,7,0,7,0,25,0,25,0,,,,,,,,,,,,,,,,,888.8539293999784,None,889.4037866997533,890.0044712000526,889.9877035999671,891.9883079999126,None,1,0.6126483301632106,2.6132056303322315,decreament,0.6,41,standard,None,100,,,,,,,,f,22,217,fr,r,0,raw,2022-06-02_10h04.34.911,oddball,2022.1.2,60.05746302664529,
20,,,,,0,0,0,3,7,0,7,0,26,0,26,0,,,,,,,,,,,,,,,,,892.0049624000676,None,892.755140000023,893.3555461000651,893.3391105998307,895.3395233000629,None,1,0.61253463011235,2.612937130499631,decreament,0.6,41,standard,None,100,,,,,,,,f,22,217,fr,r,0,raw,2022-06-02_10h04.34.911,oddball,2022.1.2,60.05746302664529,
20,,,,,0,0,0,3,7,0,7,0,27,0,27,0,,,,,,,,,,,,,,,,,895.3565237000585,None,896.0565058998764,896.6567381997593,896.6401598998345,898.6407520999201,None,1,0.6118921297602355,2.6124527300707996,decreament,0.6,41,standard,None,100,,,,,,,,f,22,217,fr,r,0,raw,2022-06-02_10h04.34.911,oddball,2022.1.2,60.05746302664529,
20,,,,,0,0,0,3,7,0,7,0,28,0,28,0,,,,,,,,,,,,,,,,,898.657313699834,None,899.3246545000002,899.9245064998977,899.9081812999211,901.9090884998441,None,1,0.6117654298432171,2.6126732300035655,decreament,0.6,41,standard,None,100,,,,,,,,f,22,217,fr,r,0,raw,2022-06-02_10h04.34.911,oddball,2022.1.2,60.05746302664529,
20,,,,,0,0,0,3,7,0,7,0,29,0,29,0,,,,,,,,,,,,,,,,,901.9257563999854,None,902.5586870997213,903.158942699898,903.1423888998106,905.1435116999783,None,1,0.6142750298604369,2.6154640298336744,decreament,0.6,41,standard,None,100,,,,,,,,f,22,217,fr,r,0,raw,2022-06-02_10h04.34.911,oddball,2022.1.2,60.05746302664529,
20,,,,,0,0,0,3,8,0,8,0,0,0,0,0,,,,,,,,,,,,,,,910.7452988000587,None,912.6794731998816,None,913.4131136997603,914.0132956998423,913.9966837000102,915.9976209998131,None,1,0.6131359301507473,2.6141726300120354,increament,0.6,45,standard,None,100,,905.1615689997561,None,,,,,f,22,217,fr,r,0,raw,2022-06-02_10h04.34.911,oddball,2022.1.2,60.05746302664529,
20,,,,,0,0,0,3,8,0,8,0,1,0,1,0,,,,,,,,,,,,,,,,,916.0144048999064,None,916.6475470997393,917.2474799999036,917.2313717999496,919.2319836998358,None,1,0.6136527298949659,2.614265729673207,increament,0.6,45,standard,None,100,,,,,,,,f,22,217,fr,r,0,raw,2022-06-02_10h04.34.911,oddball,2022.1.2,60.05746302664529,
20,,,,,0,0,0,3,8,0,8,0,2,0,2,0,,,,,,,,,,,,,,,,,919.2485495000146,None,919.8654911997728,920.4657898000441,920.4490890000015,922.4499082998373,None,1,0.6130998297594488,2.6139168296940625,increament,0.6,45,standard,None,100,,,,,,,,f,22,217,fr,r,0,raw,2022-06-02_10h04.34.911,oddball,2022.1.2,60.05746302664529,
20,,,,,0,0,0,3,8,0,8,0,3,0,3,0,,,,,,,,,,,,,,,,,922.4666439997964,None,923.0502106999047,923.6501335999928,923.6335780997761,925.6344893998466,None,1,0.6110071293078363,2.611967029515654,increament,0.6,45,standard,None,100,,,,,,,,f,22,217,fr,r,0,raw,2022-06-02_10h04.34.911,oddball,2022.1.2,60.05746302664529,
20,,,,,0,0,0,3,8,0,8,0,4,0,4,0,,,,,,,,,,,,,,,,,925.6513088997453,None,926.3180407998152,926.9186128997244,926.9019162999466,928.902219499927,None,1,0.6131118298508227,2.613366429693997,increament,0.6,45,standard,None,100,,,,,,,,f,22,217,fr,r,0,raw,2022-06-02_10h04.34.911,oddball,2022.1.2,60.05746302664529,
20,,,,,0,0,0,3,8,0,8,0,5,0,5,0,,,,,,,,,,,,,,,,,928.919114400167,None,929.7359961997718,930.336642799899,930.3197956001386,932.3201091997325,None,1,0.6124886297620833,2.612685229629278,increament,0.6,45,standard,None,100,,,,,,,,f,22,217,fr,r,0,raw,2022-06-02_10h04.34.911,oddball,2022.1.2,60.05746302664529,
20,,,,,0,0,0,3,8,0,8,0,6,0,6,0,,,,,,,,,,,,,,,,,932.3366096001118,None,933.0538571998477,933.6540950001217,933.6372262998484,935.6380574000068,None,1,0.6122013297863305,2.613020029850304,increament,0.6,45,standard,None,100,,,,,,,,f,22,217,fr,r,0,raw,2022-06-02_10h04.34.911,oddball,2022.1.2,60.05746302664529,
20,,,,,0,0,0,3,8,0,8,0,7,0,7,0,,,,,,,,,,,,,,,,,935.654888200108,None,936.3218307001516,936.9222130998969,936.9053616998717,938.9062131997198,None,1,0.6128750303760171,2.6136635304428637,increament,0.6,45,standard,None,100,,,,,,,,f,22,217,fr,r,0,raw,2022-06-02_10h04.34.911,oddball,2022.1.2,60.05746302664529,
20,,,,,0,0,0,3,8,0,8,0,8,0,8,0,,,,,,,,,,,,,,,,,938.9226158000529,None,939.6229595998302,940.2235619998537,940.2071420997381,942.2072923998348,None,1,0.6142127299681306,2.6142808296717703,increament,0.6,45,standard,None,100,,,,,,,,f,22,217,fr,r,0,raw,2022-06-02_10h04.34.911,oddball,2022.1.2,60.05746302664529,
20,,,,,0,0,0,3,8,0,8,0,9,0,9,0,,,,,,,,,,,,,,,,,942.2241839999333,None,942.8578260000795,943.8245798000135,943.7910704999231,945.7920142998919,j,1,0.9613216300494969,2.9622961301356554,increament,0.96,48,oddball,j,160,0.3717487002722919,,,,,,,f,22,217,fr,r,0,raw,2022-06-02_10h04.34.911,oddball,2022.1.2,60.05746302664529,
20,,,,,0,0,0,3,8,0,8,0,10,0,10,0,,,,,,,,,,,,,,,,,945.8084801998921,None,946.3754843999632,946.9757614997216,946.9591732998379,948.9596535000019,None,1,0.6122807296924293,2.61275442969054,increament,0.6,45,standard,None,100,,,,,,,,f,22,217,fr,r,0,raw,2022-06-02_10h04.34.911,oddball,2022.1.2,60.05746302664529,
20,,,,,0,0,0,3,8,0,8,0,11,0,11,0,,,,,,,,,,,,,,,,,948.9764052997343,None,949.4766218001023,950.0768242999911,950.0605008997954,952.060844999738,None,1,0.6129300300963223,2.613233630079776,increament,0.6,45,standard,None,100,,,,,,,,f,22,217,fr,r,0,raw,2022-06-02_10h04.34.911,oddball,2022.1.2,60.05746302664529,
20,,,,,0,0,0,3,8,0,8,0,12,0,12,0,,,,,,,,,,,,,,,,,952.077414999716,None,952.7778483997099,953.3781674001366,953.3616720000282,955.3623326001689,None,1,0.6134195299819112,2.6141085298731923,increament,0.6,45,standard,None,100,,,,,,,,f,22,217,fr,r,0,raw,2022-06-02_10h04.34.911,oddball,2022.1.2,60.05746302664529,
20,,,,,0,0,0,3,8,0,8,0,13,0,13,0,,,,,,,,,,,,,,,,,955.3790976000018,None,956.2957965000533,956.8964037997648,956.8798329997808,958.8805999998003,None,1,0.6150808301754296,2.6158138304017484,increament,0.6,45,standard,None,100,,,,,,,,f,22,217,fr,r,0,raw,2022-06-02_10h04.34.911,oddball,2022.1.2,60.05746302664529,
20,,,,,0,0,0,3,8,0,8,0,14,0,14,0,,,,,,,,,,,,,,,,,958.8968865000643,None,959.5305391997099,960.130487699993,960.1140394997783,962.1150416997261,None,1,0.6121391300112009,2.6132271299138665,increament,0.6,45,standard,None,100,,,,,,,,f,22,217,fr,r,0,raw,2022-06-02_10h04.34.911,oddball,2022.1.2,60.05746302664529,
20,,,,,0,0,0,3,8,0,8,0,15,0,15,0,,,,,,,,,,,,,,,,,962.1331954998896,None,962.6653546998277,963.2650549998507,963.248362599872,965.2498204000294,None,1,0.6078808293677866,2.6094994293525815,increament,0.6,45,standard,None,100,,,,,,,,f,22,217,fr,r,0,raw,2022-06-02_10h04.34.911,oddball,2022.1.2,60.05746302664529,
20,,,,,0,0,0,3,8,0,8,0,16,0,16,0,,,,,,,,,,,,,,,,,965.2662777998485,None,965.8162663998082,966.4167745001614,966.4000510000624,968.4006703998893,None,1,0.6088133295997977,2.6094304299913347,increament,0.6,45,standard,None,100,,,,,,,,f,22,217,fr,r,0,raw,2022-06-02_10h04.34.911,oddball,2022.1.2,60.05746302664529,
20,,,,,0,0,0,3,8,0,8,0,17,0,17,0,,,,,,,,,,,,,,,,,968.4172068000771,None,969.1340199001133,969.7343522999436,969.717748099938,971.7180714998394,None,1,0.6119056292809546,2.61221172939986,increament,0.6,45,standard,None,100,,,,,,,,f,22,217,fr,r,0,raw,2022-06-02_10h04.34.911,oddball,2022.1.2,60.05746302664529,
20,,,,,0,0,0,3,8,0,8,0,18,0,18,0,,,,,,,,,,,,,,,,,971.7348683001474,None,972.3525140997954,972.9520847001113,972.9355973000638,974.9363536001183,None,1,0.6091560297645628,2.609903129749,increament,0.6,45,standard,None,100,,,,,,,,f,22,217,fr,r,0,raw,2022-06-02_10h04.34.911,oddball,2022.1.2,60.05746302664529,
20,,,,,0,0,0,3,8,0,8,0,19,0,19,0,,,,,,,,,,,,,,,,,974.9534609997645,None,975.5032877000049,976.103318599984,976.0867250999436,978.0875709000975,None,1,0.6120035299099982,2.61286702984944,increament,0.6,45,standard,None,100,,,,,,,,f,22,217,fr,r,0,raw,2022-06-02_10h04.34.911,oddball,2022.1.2,60.05746302664529,
20,,,,,0,0,0,3,8,0,8,0,20,0,20,0,,,,,,,,,,,,,,,,,978.1043356000446,None,978.9713773000985,979.8213367997669,979.7882261001505,981.7891949997284,j,1,0.8432439295575023,2.8442347296513617,increament,0.84,47,oddball,j,140,0.6147857001051307,,,,,,,f,22,217,fr,r,0,raw,2022-06-02_10h04.34.911,oddball,2022.1.2,60.05746302664529,
20,,,,,0,0,0,3,8,0,8,0,21,0,21,0,,,,,,,,,,,,,,,,,981.8055569999851,None,982.6065250998363,983.2061524000019,983.1894601997919,985.1904389997944,None,1,0.6092172297649086,2.6101910299621522,increament,0.6,45,standard,None,100,,,,,,,,f,22,217,fr,r,0,raw,2022-06-02_10h04.34.911,oddball,2022.1.2,60.05746302664529,
20,,,,,0,0,0,3,8,0,8,0,22,0,22,0,,,,,,,,,,,,,,,,,985.2070951000787,None,985.790493299719,986.3904944001697,986.3740300000645,988.3751300000586,None,1,0.612269529607147,2.613522029481828,increament,0.6,45,standard,None,100,,,,,,,,f,22,217,fr,r,0,raw,2022-06-02_10h04.34.911,oddball,2022.1.2,60.05746302664529,
20,,,,,0,0,0,3,8,0,8,0,23,0,23,0,,,,,,,,,,,,,,,,,988.3932978999801,None,989.0418740999885,989.6421356997453,989.6252922001295,991.6265308000147,None,1,0.6121982298791409,2.6134928297251463,increament,0.6,45,standard,None,100,,,,,,,,f,22,217,fr,r,0,raw,2022-06-02_10h04.34.911,oddball,2022.1.2,60.05746302664529,
20,,,,,0,0,0,3,8,0,8,0,24,0,24,0,,,,,,,,,,,,,,,,,991.642793700099,None,992.2094073998742,992.8097231001593,992.7931623999029,994.7939554001205,None,1,0.613464429974556,2.6142206299118698,increament,0.6,45,standard,None,100,,,,,,,,f,22,217,fr,r,0,raw,2022-06-02_10h04.34.911,oddball,2022.1.2,60.05746302664529,
20,,,,,0,0,0,3,8,0,8,0,25,0,25,0,,,,,,,,,,,,,,,,,994.810435899999,None,995.5607002000324,996.161170899868,996.1447079000063,998.1456022998318,None,1,0.6136035299859941,2.6145720300264657,increament,0.6,45,standard,None,100,,,,,,,,f,22,217,fr,r,0,raw,2022-06-02_10h04.34.911,oddball,2022.1.2,60.05746302664529,
20,,,,,0,0,0,3,8,0,8,0,26,0,26,0,,,,,,,,,,,,,,,,,998.1620005997829,None,998.795266199857,999.5289421998896,999.4955573999323,1001.4961079000495,None,0,0.7298741298727691,2.730366929899901,increament,0.72,46,oddball,j,120,,,,,,,,f,22,217,fr,r,0,raw,2022-06-02_10h04.34.911,oddball,2022.1.2,60.05746302664529,
20,,,,,0,0,0,3,8,0,8,0,27,0,27,0,,,,,,,,,,,,,,,,,1001.5129919997416,None,1002.1634256001562,1002.7636528997682,1002.7468313998543,1004.7479596999474,None,1,0.6133107300847769,2.614509529899806,increament,0.6,45,standard,None,100,,,,,,,,f,22,217,fr,r,0,raw,2022-06-02_10h04.34.911,oddball,2022.1.2,60.05746302664529,
20,,,,,0,0,0,3,8,0,8,0,28,0,28,0,,,,,,,,,,,,,,,,,1004.7643023999408,None,1005.3644730001688,1005.9645365001634,1005.947887300048,1007.9486055001616,None,1,0.6122723291628063,2.613008029293269,increament,0.6,45,standard,None,100,,,,,,,,f,22,217,fr,r,0,raw,2022-06-02_10h04.34.911,oddball,2022.1.2,60.05746302664529,
20,,,,,0,0,0,3,8,0,8,0,29,0,29,0,,,,,,,,,,,,,,,,,1007.9658813001588,None,1008.615807400085,1009.2161165000871,1009.199380800128,1011.1999848000705,None,1,0.6085929297842085,2.6091986298561096,increament,0.6,45,standard,None,100,,,,,,,,f,22,217,fr,r,0,raw,2022-06-02_10h04.34.911,oddball,2022.1.2,60.05746302664529,
20,,,,,0,0,0,3,9,0,9,0,0,0,0,0,,,,,,,,,,,,,,,1021.7599402000196,None,1023.0216890000738,None,1023.7715670997277,1024.3717398997396,1024.355141399894,1026.3557070000097,None,1,0.6130552301183343,2.613549429923296,decreament,0.6,41,standard,None,100,,1011.2171932999045,None,,,,,f,22,217,fr,r,0,raw,2022-06-02_10h04.34.911,oddball,2022.1.2,60.05746302664529,
20,,,,,0,0,0,3,9,0,9,0,1,0,1,0,,,,,,,,,,,,,,,,,1026.3728241999634,None,1026.9561979998834,1027.5565130999312,1027.5396909001283,1029.5402945000678,None,1,0.6112865298055112,2.61189032997936,decreament,0.6,41,standard,None,100,,,,,,,,f,22,217,fr,r,0,raw,2022-06-02_10h04.34.911,oddball,2022.1.2,60.05746302664529,
20,,,,,0,0,0,3,9,0,9,0,2,0,2,0,,,,,,,,,,,,,,,,,1029.557003799826,None,1030.25744069973,1030.8574479999952,1030.841129399836,1032.8418541001156,None,1,0.6086168298497796,2.6094315298832953,decreament,0.6,41,standard,None,100,,,,,,,,f,22,217,fr,r,0,raw,2022-06-02_10h04.34.911,oddball,2022.1.2,60.05746302664529,
20,,,,,0,0,0,3,9,0,9,0,3,0,3,0,,,,,,,,,,,,,,,,,1032.858389500063,None,1033.3921616999432,1033.991947799921,1033.9759446997195,1035.976023899857,None,1,0.6126440297812223,2.6124228299595416,decreament,0.6,41,standard,None,100,,,,,,,,f,22,217,fr,r,0,raw,2022-06-02_10h04.34.911,oddball,2022.1.2,60.05746302664529,
20,,,,,0,0,0,3,9,0,9,0,4,0,4,0,,,,,,,,,,,,,,,,,1035.9931697999127,None,1036.6764883999713,1037.2767973998562,1037.2599798999727,1039.2607499998994,None,1,0.6109454301185906,2.611766930203885,decreament,0.6,41,standard,None,100,,,,,,,,f,22,217,fr,r,0,raw,2022-06-02_10h04.34.911,oddball,2022.1.2,60.05746302664529,
20,,,,,0,0,0,3,9,0,9,0,5,0,5,0,,,,,,,,,,,,,,,,,1039.277759899851,None,1040.0111544998363,1040.611288299784,1040.5946407001466,1042.5954601000994,None,1,0.6105518299154937,2.6113489298149943,decreament,0.6,41,standard,None,100,,,,,,,,f,22,217,fr,r,0,raw,2022-06-02_10h04.34.911,oddball,2022.1.2,60.05746302664529,
20,,,,,0,0,0,3,9,0,9,0,6,0,6,0,,,,,,,,,,,,,,,,,1042.611978400033,None,1043.2456013001502,1043.8460725997575,1043.8290786999278,1045.830237600021,None,1,0.6123305298388004,2.6135485298000276,decreament,0.6,41,standard,None,100,,,,,,,,f,22,217,fr,r,0,raw,2022-06-02_10h04.34.911,oddball,2022.1.2,60.05746302664529,
20,,,,,0,0,0,3,9,0,9,0,7,0,7,0,,,,,,,,,,,,,,,,,1045.8469083998352,None,1046.4635276999325,1046.8303803997114,1046.7973488001153,1048.7977422997355,j,1,0.3617215300910175,2.3620748301036656,decreament,0.36,43,oddball,j,60,0.9568684003315866,,,,,,,f,22,217,fr,r,0,raw,2022-06-02_10h04.34.911,oddball,2022.1.2,60.05746302664529,
20,,,,,0,0,0,3,9,0,9,0,8,0,8,0,,,,,,,,,,,,,,,,,1048.814219799824,None,1049.5645717997104,1050.164823899977,1050.1484783999622,1052.1492284997366,None,1,0.612524529453367,2.613323829136789,decreament,0.6,41,standard,None,100,,,,,,,,f,22,217,fr,r,0,raw,2022-06-02_10h04.34.911,oddball,2022.1.2,60.05746302664529,
20,,,,,0,0,0,3,9,0,9,0,9,0,9,0,,,,,,,,,,,,,,,,,1052.1661652997136,None,1052.7824189001694,1053.3828098000959,1053.3662254000083,1055.366874099709,None,1,0.6123724300414324,2.6130352299660444,decreament,0.6,41,standard,None,100,,,,,,,,f,22,217,fr,r,0,raw,2022-06-02_10h04.34.911,oddball,2022.1.2,60.05746302664529,
20,,,,,0,0,0,3,9,0,9,0,10,0,10,0,,,,,,,,,,,,,,,,,1055.383566299919,None,1055.933752299752,1056.5339095997624,1056.517234600149,1058.5183413997293,None,1,0.6081925299949944,2.6094089299440384,decreament,0.6,41,standard,None,100,,,,,,,,f,22,217,fr,r,0,raw,2022-06-02_10h04.34.911,oddball,2022.1.2,60.05746302664529,
20,,,,,0,0,0,3,9,0,9,0,11,0,11,0,,,,,,,,,,,,,,,,,1058.5347361997701,None,1059.2682926999405,1059.8685499001294,1059.8521687998436,1061.8525940999389,None,1,0.6138850301504135,2.6142427301965654,decreament,0.6,41,standard,None,100,,,,,,,,f,22,217,fr,r,0,raw,2022-06-02_10h04.34.911,oddball,2022.1.2,60.05746302664529,
20,,,,,0,0,0,3,9,0,9,0,12,0,12,0,,,,,,,,,,,,,,,,,1061.8694672998972,None,1062.4529324001633,1063.0533209000714,1063.036777399946,1065.0375181999989,None,1,0.6116809295490384,2.6124745295383036,decreament,0.6,41,standard,None,100,,,,,,,,f,22,217,fr,r,0,raw,2022-06-02_10h04.34.911,oddball,2022.1.2,60.05746302664529,
20,,,,,0,0,0,3,9,0,9,0,13,0,13,0,,,,,,,,,,,,,,,,,1065.0550278001465,None,1065.6540202000178,1066.2542869998142,1066.2378866998479,1068.2387632997707,None,1,0.6119048297405243,2.612859329674393,decreament,0.6,41,standard,None,100,,,,,,,,f,22,217,fr,r,0,raw,2022-06-02_10h04.34.911,oddball,2022.1.2,60.05746302664529,
20,,,,,0,0,0,3,9,0,9,0,14,0,14,0,,,,,,,,,,,,,,,,,1068.2550678001717,None,1068.8221797998995,1069.422520100139,1069.4057498998009,1071.4063979000784,None,1,0.6116049299016595,2.6122225299477577,decreament,0.6,41,standard,None,100,,,,,,,,f,22,217,fr,r,0,raw,2022-06-02_10h04.34.911,oddball,2022.1.2,60.05746302664529,
20,,,,,0,0,0,3,9,0,9,0,15,0,15,0,,,,,,,,,,,,,,,,,1071.422992200125,None,1072.1898910999298,1072.7902840999886,1072.7737942999229,1074.7740180999972,None,1,0.6131697297096252,2.6133742299862206,decreament,0.6,41,standard,None,100,,,,,,,,f,22,217,fr,r,0,raw,2022-06-02_10h04.34.911,oddball,2022.1.2,60.05746302664529,
20,,,,,0,0,0,3,9,0,9,0,16,0,16,0,,,,,,,,,,,,,,,,,1074.79085520003,None,1075.4580089999363,1076.0582489999942,1076.0419026999734,1078.042641799897,None,1,0.6123668299987912,2.6131338300183415,decreament,0.6,41,standard,None,100,,,,,,,,f,22,217,fr,r,0,raw,2022-06-02_10h04.34.911,oddball,2022.1.2,60.05746302664529,
20,,,,,0,0,0,3,9,0,9,0,17,0,17,0,,,,,,,,,,,,,,,,,1078.0600850000046,None,1078.8256330997683,1079.4261980997398,1079.4095835001208,1081.4101169998758,None,1,0.6128438301384449,2.6133294301107526,decreament,0.6,41,standard,None,100,,,,,,,,f,22,217,fr,r,0,raw,2022-06-02_10h04.34.911,oddball,2022.1.2,60.05746302664529,
20,,,,,0,0,0,3,9,0,9,0,18,0,18,0,,,,,,,,,,,,,,,,,1081.4266411000863,None,1082.0938428998925,1082.6938518001698,1082.6773728998378,1084.6779284998775,None,1,0.6120137302204967,2.6125766299664974,decreament,0.6,41,standard,None,100,,,,,,,,f,22,217,fr,r,0,raw,2022-06-02_10h04.34.911,oddball,2022.1.2,60.05746302664529,
20,,,,,0,0,0,3,9,0,9,0,19,0,19,0,,,,,,,,,,,,,,,,,1084.6945118997246,None,1085.461972899735,1085.945063199848,1085.9286863999441,1087.9290578998625,j,1,0.49374713003635406,2.4941062298603356,decreament,0.48,44,oddball,j,80,0.633410700596869,,,,,,,f,22,217,fr,r,0,raw,2022-06-02_10h04.34.911,oddball,2022.1.2,60.05746302664529,
20,,,,,0,0,0,3,9,0,9,0,20,0,20,0,,,,,,,,,,,,,,,,,1087.9459858997725,None,1088.6461189999245,1089.2460861001164,1089.2296710000373,1091.230333799962,None,1,0.6116889296099544,2.6123503292910755,decreament,0.6,41,standard,None,100,,,,,,,,f,22,217,fr,r,0,raw,2022-06-02_10h04.34.911,oddball,2022.1.2,60.05746302664529,
20,,,,,0,0,0,3,9,0,9,0,21,0,21,0,,,,,,,,,,,,,,,,,1091.2471123998985,None,1091.8307797997259,1092.430587799754,1092.4140945998952,1094.4151222999208,None,1,0.6121833301149309,2.6132594300433993,decreament,0.6,41,standard,None,100,,,,,,,,f,22,217,fr,r,0,raw,2022-06-02_10h04.34.911,oddball,2022.1.2,60.05746302664529,
20,,,,,0,0,0,3,9,0,9,0,22,0,22,0,,,,,,,,,,,,,,,,,1094.4328554999083,None,1095.0487879998982,1095.648895099759,1095.632034599781,1097.6332160998136,None,1,0.6116119297221303,2.6128238295204937,decreament,0.6,41,standard,None,100,,,,,,,,f,22,217,fr,r,0,raw,2022-06-02_10h04.34.911,oddball,2022.1.2,60.05746302664529,
20,,,,,0,0,0,3,9,0,9,0,23,0,23,0,,,,,,,,,,,,,,,,,1097.6495153000578,None,1098.266458499711,1098.8667407999747,1098.8502094000578,1100.850994599983,None,1,0.6126281297765672,2.6134440298192203,decreament,0.6,41,standard,None,100,,,,,,,,f,22,217,fr,r,0,raw,2022-06-02_10h04.34.911,oddball,2022.1.2,60.05746302664529,
20,,,,,0,0,0,3,9,0,9,0,24,0,24,0,,,,,,,,,,,,,,,,,1100.8674340001307,None,1101.534136899747,1102.1348979999311,1102.1185113000683,1104.1188618000597,None,1,0.6140644294209778,2.614388229791075,decreament,0.6,41,standard,None,100,,,,,,,,f,22,217,fr,r,0,raw,2022-06-02_10h04.34.911,oddball,2022.1.2,60.05746302664529,
20,,,,,0,0,0,3,9,0,9,0,25,0,25,0,,,,,,,,,,,,,,,,,1104.1356230000965,None,1104.7687367000617,1105.36934009986,1105.3527437997982,1107.353393400088,None,1,0.6136556300334632,2.614218229893595,decreament,0.6,41,standard,None,100,,,,,,,,f,22,217,fr,r,0,raw,2022-06-02_10h04.34.911,oddball,2022.1.2,60.05746302664529,
20,,,,,0,0,0,3,9,0,9,0,26,0,26,0,,,,,,,,,,,,,,,,,1107.369847000111,None,1108.1367147997953,1108.7371286000125,1108.7206930001266,1110.7214748999104,None,1,0.6133676301687956,2.6141527299769223,decreament,0.6,41,standard,None,100,,,,,,,,f,22,217,fr,r,0,raw,2022-06-02_10h04.34.911,oddball,2022.1.2,60.05746302664529,
20,,,,,0,0,0,3,9,0,9,0,27,0,27,0,,,,,,,,,,,,,,,,,1110.7381098000333,None,1111.4045492997393,1112.005129300058,1111.9885240001604,1113.988949699793,None,1,0.6138568301685154,2.6142264301888645,decreament,0.6,41,standard,None,100,,,,,,,,f,22,217,fr,r,0,raw,2022-06-02_10h04.34.911,oddball,2022.1.2,60.05746302664529,
20,,,,,0,0,0,3,9,0,9,0,28,0,28,0,,,,,,,,,,,,,,,,,1114.005856799893,None,1114.6393459001556,1115.2397619001567,1115.2227638997138,1117.2237244998105,None,1,0.6120774303562939,2.6130213304422796,decreament,0.6,41,standard,None,100,,,,,,,,f,22,217,fr,r,0,raw,2022-06-02_10h04.34.911,oddball,2022.1.2,60.05746302664529,
20,,,,,0,0,0,3,9,0,9,0,29,0,29,0,,,,,,,,,,,,,,,,,1117.2402725000866,None,1117.8071833997965,1118.0570841999725,1118.024158100132,1120.0245830998756,j,1,0.246319729834795,2.2467177296057343,decreament,0.24,42,oddball,j,40,0.8737321002408862,,,,,,,f,22,217,fr,r,0,raw,2022-06-02_10h04.34.911,oddball,2022.1.2,60.05746302664529,
0,,,,,0,1,1,0,0,0,0,0,0,0,0,0,,,,,,,,,,,,,,,1302.3169237999246,None,1304.327662799973,None,1304.9614635999314,1305.5613787998445,1305.5448361998424,1307.5459162001498,None,1,0.6117906295694411,2.612892529927194,increament,0.6,5,standard,None,100,,1300.076226499863,None,1120.0642681000754,None,,,f,22,217,fr,r,0,raw,2022-06-02_10h04.34.911,oddball,2022.1.2,60.05746302664529,
0,,,,,0,1,1,0,0,0,0,0,1,0,1,0,,,,,,,,,,,,,,,,,1307.5623254999518,None,1308.1290473998524,1308.7298037,1308.7128705000505,1310.7137560001574,None,1,0.6135538299567997,2.6145348297432065,increament,0.6,5,standard,None,100,,,,,,,,f,22,217,fr,r,0,raw,2022-06-02_10h04.34.911,oddball,2022.1.2,60.05746302664529,
0,,,,,0,1,1,0,0,0,0,0,2,0,2,0,,,,,,,,,,,,,,,,,1310.7307599000633,None,1311.363604299724,1311.9639729997143,1311.9475821000524,1313.9484064998105,None,1,0.613588229753077,2.614502429962158,increament,0.6,5,standard,None,100,,,,,,,,f,22,217,fr,r,0,raw,2022-06-02_10h04.34.911,oddball,2022.1.2,60.05746302664529,
0,,,,,0,1,1,0,0,0,0,0,3,0,3,0,,,,,,,,,,,,,,,,,1313.9664170001633,None,1314.6486307000741,1315.24920189986,1315.2325770999305,1317.2325251000002,None,1,0.6118506300263107,2.6116927303373814,increament,0.6,5,standard,None,100,,,,,,,,f,22,217,fr,r,0,raw,2022-06-02_10h04.34.911,oddball,2022.1.2,60.05746302664529,
0,,,,,0,1,1,0,0,0,0,0,4,0,4,0,,,,,,,,,,,,,,,,,1317.2494548000395,None,1317.9830300998874,1318.5836827000603,1318.5672069997527,1320.5674196998589,None,1,0.6129383300431073,2.6130593298003078,increament,0.6,5,standard,None,100,,,,,,,,f,22,217,fr,r,0,raw,2022-06-02_10h04.34.911,oddball,2022.1.2,60.05746302664529,
0,,,,,0,1,1,0,0,0,0,0,5,0,5,0,,,,,,,,,,,,,,,,,1320.5840429998934,None,1321.2011587000452,1321.800975299906,1321.7844763998874,1323.7849325998686,None,1,0.612295429687947,2.6127040297724307,increament,0.6,5,standard,None,100,,,,,,,,f,22,217,fr,r,0,raw,2022-06-02_10h04.34.911,oddball,2022.1.2,60.05746302664529,
0,,,,,0,1,1,0,0,0,0,0,6,0,6,0,,,,,,,,,,,,,,,,,1323.8017525998875,None,1324.3689987999387,1324.9690962997265,1324.9522115001455,1326.9533687001094,None,1,0.6130578299053013,2.6143021299503744,increament,0.6,5,standard,None,100,,,,,,,,f,22,217,fr,r,0,raw,2022-06-02_10h04.34.911,oddball,2022.1.2,60.05746302664529,
0,,,,,0,1,1,0,0,0,0,0,7,0,7,0,,,,,,,,,,,,,,,,,1326.9695700998418,None,1327.5198769997805,1328.1204903000034,1328.1037559001707,1330.1045591998845,None,1,0.6121258302591741,2.6129134302027524,increament,0.6,5,standard,None,100,,,,,,,,f,22,217,fr,r,0,raw,2022-06-02_10h04.34.911,oddball,2022.1.2,60.05746302664529,
0,,,,,0,1,1,0,0,0,0,0,8,0,8,0,,,,,,,,,,,,,,,,,1330.120939699933,None,1330.7712216000073,1331.3714211997576,1331.3545781001449,1333.355525800027,None,1,0.613396629691124,2.6143508297391236,increament,0.6,5,standard,None,100,,,,,,,,f,22,217,fr,r,0,raw,2022-06-02_10h04.34.911,oddball,2022.1.2,60.05746302664529,
0,,,,,0,1,1,0,0,0,0,0,9,0,9,0,,,,,,,,,,,,,,,,,1333.3720263997093,None,1333.905872500036,1334.5057240999304,1334.4889408000745,1336.4898358997889,None,1,0.6082991296425462,2.6092678299173713,increament,0.6,5,standard,None,100,,,,,,,,f,22,217,fr,r,0,raw,2022-06-02_10h04.34.911,oddball,2022.1.2,60.05746302664529,
0,,,,,0,1,1,0,0,0,0,0,10,0,10,0,,,,,,,,,,,,,,,,,1336.5066041001119,None,1337.190059499815,1337.790304900147,1337.7738239001483,1339.7744092000648,None,1,0.6147891297005117,2.6153975296765566,increament,0.6,5,standard,None,100,,,,,,,,f,22,217,fr,r,0,raw,2022-06-02_10h04.34.911,oddball,2022.1.2,60.05746302664529,
0,,,,,0,1,1,0,0,0,0,0,11,0,11,0,,,,,,,,,,,,,,,,,1339.7914395001717,None,1340.4749659998342,1341.075047899969,1341.0582999000326,1343.0589085998945,None,1,0.6099929301999509,2.61060093017295,increament,0.6,5,standard,None,100,,,,,,,,f,22,217,fr,r,0,raw,2022-06-02_10h04.34.911,oddball,2022.1.2,60.05746302664529,
0,,,,,0,1,1,0,0,0,0,0,12,0,12,0,,,,,,,,,,,,,,,,,1343.075792599935,None,1343.6927828998305,1344.4260753998533,1344.3928588000126,1346.3938511000015,None,0,0.7290132301859558,2.7300228299573064,increament,0.72,6,oddball,j,120,,,,,,,,f,22,217,fr,r,0,raw,2022-06-02_10h04.34.911,oddball,2022.1.2,60.05746302664529,
0,,,,,0,1,1,0,0,0,0,0,13,0,13,0,,,,,,,,,,,,,,,,,1346.4103175997734,None,1347.0773106999695,1347.677443199791,1347.6610627998598,1349.661973199807,None,1,0.6132513303309679,2.614197430200875,increament,0.6,5,standard,None,100,,,,,,,,f,22,217,fr,r,0,raw,2022-06-02_10h04.34.911,oddball,2022.1.2,60.05746302664529,
