grating_freq,blocks_prac.thisRepN,blocks_prac.thisTrialN,blocks_prac.thisN,blocks_prac.thisIndex,blocks.thisRepN,blocks.thisTrialN,blocks.thisN,blocks.thisIndex,repeat_freq.thisRepN,repeat_freq.thisTrialN,repeat_freq.thisN,repeat_freq.thisIndex,trials.thisRepN,trials.thisTrialN,trials.thisN,trials.thisIndex,break_loop.thisRepN,break_loop.thisTrialN,break_loop.thisN,break_loop.thisIndex,rest_loop.thisRepN,rest_loop.thisTrialN,rest_loop.thisN,rest_loop.thisIndex,instruct_prac_text.started,instruct_prac_text.stopped,b_instruct_text_2_.started,b_instruct_text_2_.stopped,prac_done_text.started,prac_done_text.stopped,instruct_text.started,instruct_text.stopped,fixation.started,fixation.stopped,grating.started,grating.stopped,blank.started,blank.stopped,resp.keys,resp.corr,resp.started,resp.stopped,direction,duration,trigger,stim_type,corr_ans,scaling,resp.rt,rest_text.started,rest_text.stopped,text_2.started,text_2.stopped,thx_txt.started,thx_txt.stopped,gender,age,participant,language,main_hand,nBlock_prac,file_suffix,date,expName,psychopyVersion,frameRate,
5,,,,,0,0,0,1,0,0,0,0,0,0,0,0,,,,,,,,,19.18446440016851,None,27.372604500036687,None,38.24627230037004,None,46.79949550004676,None,50.08093610033393,None,50.81497210031375,51.4146784003824,51.38143080007285,53.382392700295895,None,1,0.614452559966594,2.615455459803343,decreament,0.6,11,standard,None,100,,,,,,,,f,30,219,fr,r,0,raw,2022-06-07_10h40.38.189,oddball,2022.1.2,59.93576076715277,
5,,,,,0,0,0,1,0,0,0,0,1,0,1,0,,,,,,,,,,,,,,,,,53.39866359997541,None,54.015585200395435,54.616033600177616,54.59965580003336,56.60009380010888,None,1,0.6130593596026301,2.613476059399545,decreament,0.6,11,standard,None,100,,,,,,,,f,30,219,fr,r,0,raw,2022-06-07_10h40.38.189,oddball,2022.1.2,59.93576076715277,
5,,,,,0,0,0,1,0,0,0,0,2,0,2,0,,,,,,,,,,,,,,,,,56.61738790012896,None,57.333573900163174,57.93408490018919,57.91757980035618,59.91814600024372,None,1,0.6131304600276053,2.613633259665221,decreament,0.6,11,standard,None,100,,,,,,,,f,30,219,fr,r,0,raw,2022-06-07_10h40.38.189,oddball,2022.1.2,59.93576076715277,
5,,,,,0,0,0,1,0,0,0,0,3,0,3,0,,,,,,,,,,,,,,,,,59.93453870015219,None,60.601592800114304,61.20164250023663,61.18508700001985,63.1859858003445,None,1,0.6081998599693179,2.609172460157424,decreament,0.6,11,standard,None,100,,,,,,,,f,30,219,fr,r,0,raw,2022-06-07_10h40.38.189,oddball,2022.1.2,59.93576076715277,
5,,,,,0,0,0,1,0,0,0,0,4,0,4,0,,,,,,,,,,,,,,,,,63.20241210004315,None,63.85309280036017,64.45298130018637,64.4363047000952,66.43719150032848,None,1,0.6084887594915926,2.609391159377992,decreament,0.6,11,standard,None,100,,,,,,,,f,30,219,fr,r,0,raw,2022-06-07_10h40.38.189,oddball,2022.1.2,59.93576076715277,
5,,,,,0,0,0,1,0,0,0,0,5,0,5,0,,,,,,,,,,,,,,,,,66.45366520015523,None,67.13763810042292,67.62070660013705,67.6043664002791,69.60487290006131,j,1,0.4925965596921742,2.493071859702468,decreament,0.48,14,oddball,j,80,1.739666699897498,,,,,,,f,30,219,fr,r,0,raw,2022-06-07_10h40.38.189,oddball,2022.1.2,59.93576076715277,
5,,,,,0,0,0,1,0,0,0,0,6,0,6,0,,,,,,,,,,,,,,,,,69.62162850005552,None,70.32196270022541,70.92230139998719,70.90589400008321,72.90622040024027,None,1,0.6121134599670768,2.6123286597430706,decreament,0.6,11,standard,None,100,,,,,,,,f,30,219,fr,r,0,raw,2022-06-07_10h40.38.189,oddball,2022.1.2,59.93576076715277,
5,,,,,0,0,0,1,0,0,0,0,7,0,7,0,,,,,,,,,,,,,,,,,72.92274110019207,None,73.62309830030426,74.22347840014845,74.20701290015131,76.2078605000861,None,1,0.6131436596624553,2.6140249595046043,decreament,0.6,11,standard,None,100,,,,,,,,f,30,219,fr,r,0,raw,2022-06-07_10h40.38.189,oddball,2022.1.2,59.93576076715277,
5,,,,,0,0,0,1,0,0,0,0,8,0,8,0,,,,,,,,,,,,,,,,,76.22415060037747,None,76.89154740003869,77.49175900034606,77.47495960025117,79.47520070010796,None,1,0.6127958595752716,2.6129533597268164,decreament,0.6,11,standard,None,100,,,,,,,,f,30,219,fr,r,0,raw,2022-06-07_10h40.38.189,oddball,2022.1.2,59.93576076715277,
5,,,,,0,0,0,1,0,0,0,0,9,0,9,0,,,,,,,,,,,,,,,,,79.49195520021021,None,80.02540800021961,80.62592790042982,80.60915280040354,82.61008530016989,None,1,0.6133985598571599,2.6143108597025275,decreament,0.6,11,standard,None,100,,,,,,,,f,30,219,fr,r,0,raw,2022-06-07_10h40.38.189,oddball,2022.1.2,59.93576076715277,
5,,,,,0,0,0,1,0,0,0,0,10,0,10,0,,,,,,,,,,,,,,,,,82.62655040016398,None,83.22697710013017,83.82720030006021,83.81059530004859,85.81149560026824,None,1,0.6094654598273337,2.6104112598113716,decreament,0.6,11,standard,None,100,,,,,,,,f,30,219,fr,r,0,raw,2022-06-07_10h40.38.189,oddball,2022.1.2,59.93576076715277,
5,,,,,0,0,0,1,0,0,0,0,11,0,11,0,,,,,,,,,,,,,,,,,85.82873020041734,None,86.561366900336,87.16173210041597,87.14492430025712,89.14602110022679,None,1,0.6119794598780572,2.613154159858823,decreament,0.6,11,standard,None,100,,,,,,,,f,30,219,fr,r,0,raw,2022-06-07_10h40.38.189,oddball,2022.1.2,59.93576076715277,
5,,,,,0,0,0,1,0,0,0,0,12,0,12,0,,,,,,,,,,,,,,,,,89.16393210040405,None,89.6957535003312,90.06248530000448,90.02940400037915,92.029878300149,j,1,0.36410516034811735,2.364503860473633,decreament,0.36,13,oddball,j,60,0.7707536998204887,,,,,,,f,30,219,fr,r,0,raw,2022-06-07_10h40.38.189,oddball,2022.1.2,59.93576076715277,
5,,,,,0,0,0,1,0,0,0,0,13,0,13,0,,,,,,,,,,,,,,,,,92.04650470009074,None,92.6136500001885,93.21394020039588,93.1974290004,95.19788830028847,None,1,0.6137609593570232,2.61414865963161,decreament,0.6,11,standard,None,100,,,,,,,,f,30,219,fr,r,0,raw,2022-06-07_10h40.38.189,oddball,2022.1.2,59.93576076715277,
5,,,,,0,0,0,1,0,0,0,0,14,0,14,0,,,,,,,,,,,,,,,,,95.21452570008114,None,95.78174770018086,96.38181950012222,96.36503980029374,98.36572520015761,None,1,0.6103875604458153,2.6110864602960646,decreament,0.6,11,standard,None,100,,,,,,,,f,30,219,fr,r,0,raw,2022-06-07_10h40.38.189,oddball,2022.1.2,59.93576076715277,
5,,,,,0,0,0,1,0,0,0,0,15,0,15,0,,,,,,,,,,,,,,,,,98.3826967002824,None,99.03273210022599,99.63286990020424,99.61623490042984,101.61736540030688,None,1,0.6122176595963538,2.613475859630853,decreament,0.6,11,standard,None,100,,,,,,,,f,30,219,fr,r,0,raw,2022-06-07_10h40.38.189,oddball,2022.1.2,59.93576076715277,
5,,,,,0,0,0,1,0,0,0,0,16,0,16,0,,,,,,,,,,,,,,,,,101.635951500386,None,102.28373110014945,102.8843655004166,102.86766500025988,104.8685731003061,None,1,0.6155435596592724,2.616501059848815,decreament,0.6,11,standard,None,100,,,,,,,,f,30,219,fr,r,0,raw,2022-06-07_10h40.38.189,oddball,2022.1.2,59.93576076715277,
5,,,,,0,0,0,1,0,0,0,0,17,0,17,0,,,,,,,,,,,,,,,,,104.88486350001767,None,105.4850956001319,106.0853086002171,106.0690689003095,108.06941570015624,None,1,0.6134645598940551,2.6137360599823296,decreament,0.6,11,standard,None,100,,,,,,,,f,30,219,fr,r,0,raw,2022-06-07_10h40.38.189,oddball,2022.1.2,59.93576076715277,
5,,,,,0,0,0,1,0,0,0,0,18,0,18,0,,,,,,,,,,,,,,,,,108.08593389997259,None,108.6198468003422,109.21988770039752,109.20315060019493,111.2037729001604,None,1,0.6118513597175479,2.6124343597330153,decreament,0.6,11,standard,None,100,,,,,,,,f,30,219,fr,r,0,raw,2022-06-07_10h40.38.189,oddball,2022.1.2,59.93576076715277,
5,,,,,0,0,0,1,0,0,0,0,19,0,19,0,,,,,,,,,,,,,,,,,111.22057100012898,None,111.97087770001963,112.57107280008495,112.55453040031716,114.55515520041808,None,1,0.613505860324949,2.6141558601520956,decreament,0.6,11,standard,None,100,,,,,,,,f,30,219,fr,r,0,raw,2022-06-07_10h40.38.189,oddball,2022.1.2,59.93576076715277,
5,,,,,0,0,0,1,0,0,0,0,20,0,20,0,,,,,,,,,,,,,,,,,114.57189050037414,None,115.15562720037997,115.75617830036208,115.73931250022724,117.74000500002876,None,1,0.6129389596171677,2.6136540598236024,decreament,0.6,11,standard,None,100,,,,,,,,f,30,219,fr,r,0,raw,2022-06-07_10h40.38.189,oddball,2022.1.2,59.93576076715277,
5,,,,,0,0,0,1,0,0,0,0,21,0,21,0,,,,,,,,,,,,,,,,,117.75698820035905,None,118.5069939000532,119.10734050022438,119.09064840013161,121.0911044003442,None,1,0.6097781592980027,2.610135459341109,decreament,0.6,11,standard,None,100,,,,,,,,f,30,219,fr,r,0,raw,2022-06-07_10h40.38.189,oddball,2022.1.2,59.93576076715277,
5,,,,,0,0,0,1,0,0,0,0,22,0,22,0,,,,,,,,,,,,,,,,,121.10792000032961,None,121.77510510012507,122.37489290023223,122.35854810010642,124.35875050025061,None,1,0.6117276600562036,2.611849660053849,decreament,0.6,11,standard,None,100,,,,,,,,f,30,219,fr,r,0,raw,2022-06-07_10h40.38.189,oddball,2022.1.2,59.93576076715277,
5,,,,,0,0,0,1,0,0,0,0,23,0,23,0,,,,,,,,,,,,,,,,,124.37562650023028,None,125.09250940009952,125.69273570040241,125.67617020010948,127.67682080017403,None,1,0.6121503598988056,2.6128218597732484,decreament,0.6,11,standard,None,100,,,,,,,,f,30,219,fr,r,0,raw,2022-06-07_10h40.38.189,oddball,2022.1.2,59.93576076715277,
5,,,,,0,0,0,1,0,0,0,0,24,0,24,0,,,,,,,,,,,,,,,,,127.69351050024852,None,128.2439482002519,128.84415900008753,128.82717050006613,130.82817580038682,None,1,0.6127099599689245,2.613740360364318,decreament,0.6,11,standard,None,100,,,,,,,,f,30,219,fr,r,0,raw,2022-06-07_10h40.38.189,oddball,2022.1.2,59.93576076715277,
5,,,,,0,0,0,1,0,0,0,0,25,0,25,0,,,,,,,,,,,,,,,,,130.84463470010087,None,131.49524530023336,132.0951177002862,132.0786826000549,134.07915940042585,None,1,0.612334260251373,2.6127531598322093,decreament,0.6,11,standard,None,100,,,,,,,,f,30,219,fr,r,0,raw,2022-06-07_10h40.38.189,oddball,2022.1.2,59.93576076715277,
5,,,,,0,0,0,1,0,0,0,0,26,0,26,0,,,,,,,,,,,,,,,,,134.0958585999906,None,134.64614590024576,134.89644370041788,134.86302330018952,136.86385320033878,j,1,0.24637276027351618,2.247211660258472,decreament,0.24,12,oddball,j,40,0.7124629002064466,,,,,,,f,30,219,fr,r,0,raw,2022-06-07_10h40.38.189,oddball,2022.1.2,59.93576076715277,
5,,,,,0,0,0,1,0,0,0,0,27,0,27,0,,,,,,,,,,,,,,,,,136.88052820041776,None,137.63068460021168,138.2310398002155,138.2146544000134,140.21512980014086,None,1,0.612903059925884,2.613268160261214,decreament,0.6,11,standard,None,100,,,,,,,,f,30,219,fr,r,0,raw,2022-06-07_10h40.38.189,oddball,2022.1.2,59.93576076715277,
5,,,,,0,0,0,1,0,0,0,0,28,0,28,0,,,,,,,,,,,,,,,,,140.2317829001695,None,140.7652447000146,141.36520280037075,141.348713000305,143.34947690041736,None,1,0.6112679596990347,2.6120395599864423,decreament,0.6,11,standard,None,100,,,,,,,,f,30,219,fr,r,0,raw,2022-06-07_10h40.38.189,oddball,2022.1.2,59.93576076715277,
5,,,,,0,0,0,1,0,0,0,0,29,0,29,0,,,,,,,,,,,,,,,,,143.36606900021434,None,144.09970260038972,144.6999123999849,144.68325270013884,146.6838973001577,None,1,0.6118522598408163,2.612490859813988,decreament,0.6,11,standard,None,100,,,,,,,,f,30,219,fr,r,0,raw,2022-06-07_10h40.38.189,oddball,2022.1.2,59.93576076715277,
5,,,,,0,0,0,1,1,0,1,0,0,0,0,0,,,,,,,,,,,,,,,160.57613559998572,None,163.94056150037795,None,164.65748120006174,165.25801130011678,165.24125180020928,167.24188580038026,None,1,0.6132748597301543,2.6139011597260833,increament,0.6,15,standard,None,100,,146.70110640022904,None,,,,,f,30,219,fr,r,0,raw,2022-06-07_10h40.38.189,oddball,2022.1.2,59.93576076715277,
5,,,,,0,0,0,1,1,0,1,0,1,0,1,0,,,,,,,,,,,,,,,,,167.25855720043182,None,167.8753224001266,168.47574070002884,168.45925670024008,170.4601136003621,None,1,0.6126308599486947,2.6134613598696887,increament,0.6,15,standard,None,100,,,,,,,,f,30,219,fr,r,0,raw,2022-06-07_10h40.38.189,oddball,2022.1.2,59.93576076715277,
5,,,,,0,0,0,1,1,0,1,0,2,0,2,0,,,,,,,,,,,,,,,,,170.4764006002806,None,171.02677140012383,171.62676840042695,171.6103774001822,173.6109335999936,None,1,0.6108144600875676,2.61135566001758,increament,0.6,15,standard,None,100,,,,,,,,f,30,219,fr,r,0,raw,2022-06-07_10h40.38.189,oddball,2022.1.2,59.93576076715277,
5,,,,,0,0,0,1,1,0,1,0,3,0,3,0,,,,,,,,,,,,,,,,,173.62754830019549,None,174.17787570040673,174.7781069003977,174.7613201001659,176.76193810021505,None,1,0.6127325599081814,2.613305559847504,increament,0.6,15,standard,None,100,,,,,,,,f,30,219,fr,r,0,raw,2022-06-07_10h40.38.189,oddball,2022.1.2,59.93576076715277,
5,,,,,0,0,0,1,1,0,1,0,4,0,4,0,,,,,,,,,,,,,,,,,176.77864260040224,None,177.54559320025146,178.14586000004783,178.1292610000819,180.13032480003312,None,1,0.6134013598784804,2.6145668597891927,increament,0.6,15,standard,None,100,,,,,,,,f,30,219,fr,r,0,raw,2022-06-07_10h40.38.189,oddball,2022.1.2,59.93576076715277,
5,,,,,0,0,0,1,1,0,1,0,5,0,5,0,,,,,,,,,,,,,,,,,180.14717040024698,None,181.0470981001854,181.6478123003617,181.63099880004302,183.63145070010796,None,1,0.6118596596643329,2.6122101596556604,increament,0.6,15,standard,None,100,,,,,,,,f,30,219,fr,r,0,raw,2022-06-07_10h40.38.189,oddball,2022.1.2,59.93576076715277,
5,,,,,0,0,0,1,1,0,1,0,6,0,6,0,,,,,,,,,,,,,,,,,183.6483535002917,None,184.24867980042472,184.8485202002339,184.83182420022786,186.83275360008702,None,1,0.6110866600647569,2.6120637599378824,increament,0.6,15,standard,None,100,,,,,,,,f,30,219,fr,r,0,raw,2022-06-07_10h40.38.189,oddball,2022.1.2,59.93576076715277,
5,,,,,0,0,0,1,1,0,1,0,7,0,7,0,,,,,,,,,,,,,,,,,186.84935250040144,None,187.36599420011044,187.9664738001302,187.94992840010673,189.9509658999741,None,1,0.6142216599546373,2.615395760163665,increament,0.6,15,standard,None,100,,,,,,,,f,30,219,fr,r,0,raw,2022-06-07_10h40.38.189,oddball,2022.1.2,59.93576076715277,
5,,,,,0,0,0,1,1,0,1,0,8,0,8,0,,,,,,,,,,,,,,,,,189.96785100037232,None,190.56747380038723,191.41752240015194,191.38487480022013,193.38487750012428,j,1,0.8474107594229281,2.847303159534931,increament,0.84,17,oddball,j,140,0.5579141997732222,,,,,,,f,30,219,fr,r,0,raw,2022-06-07_10h40.38.189,oddball,2022.1.2,59.93576076715277,
5,,,,,0,0,0,1,1,0,1,0,9,0,9,0,,,,,,,,,,,,,,,,,193.40167930023745,None,193.95192500017583,194.55208680033684,194.53541500028223,196.53635570034385,None,1,0.6126076597720385,2.6136011597700417,increament,0.6,15,standard,None,100,,,,,,,,f,30,219,fr,r,0,raw,2022-06-07_10h40.38.189,oddball,2022.1.2,59.93576076715277,
5,,,,,0,0,0,1,1,0,1,0,10,0,10,0,,,,,,,,,,,,,,,,,196.55512960022315,None,197.06976600037888,197.67011230019853,197.65392880002037,199.65406660037115,None,1,0.6119183604605496,2.6120069604367018,increament,0.6,15,standard,None,100,,,,,,,,f,30,219,fr,r,0,raw,2022-06-07_10h40.38.189,oddball,2022.1.2,59.93576076715277,
5,,,,,0,0,0,1,1,0,1,0,11,0,11,0,,,,,,,,,,,,,,,,,199.67102040024474,None,200.3041919004172,200.9047308000736,200.88809230038896,202.88877840014175,None,1,0.6134706600569189,2.6141579602845013,increament,0.6,15,standard,None,100,,,,,,,,f,30,219,fr,r,0,raw,2022-06-07_10h40.38.189,oddball,2022.1.2,59.93576076715277,
5,,,,,0,0,0,1,1,0,1,0,12,0,12,0,,,,,,,,,,,,,,,,,202.90568180009723,None,203.78927640011534,204.38936520041898,204.37252970039845,206.3731507002376,None,1,0.6111984592862427,2.6118089593946934,increament,0.6,15,standard,None,100,,,,,,,,f,30,219,fr,r,0,raw,2022-06-07_10h40.38.189,oddball,2022.1.2,59.93576076715277,
5,,,,,0,0,0,1,1,0,1,0,13,0,13,0,,,,,,,,,,,,,,,,,206.389755200129,None,206.99049150012434,207.59042570041493,207.57392560038716,209.57475160015747,None,1,0.6096527599729598,2.6105443597771227,increament,0.6,15,standard,None,100,,,,,,,,f,30,219,fr,r,0,raw,2022-06-07_10h40.38.189,oddball,2022.1.2,59.93576076715277,
5,,,,,0,0,0,1,1,0,1,0,14,0,14,0,,,,,,,,,,,,,,,,,209.5920298001729,None,210.19144460000098,210.7915284000337,210.77490370022133,212.7756676003337,None,1,0.6134674595668912,2.6142321596853435,increament,0.6,15,standard,None,100,,,,,,,,f,30,219,fr,r,0,raw,2022-06-07_10h40.38.189,oddball,2022.1.2,59.93576076715277,
5,,,,,0,0,0,1,1,0,1,0,15,0,15,0,,,,,,,,,,,,,,,,,212.7926324000582,None,213.52632339997217,214.12680640025064,214.10993300005794,216.11045170016587,None,1,0.6125349593348801,2.6130296592600644,increament,0.6,15,standard,None,100,,,,,,,,f,30,219,fr,r,0,raw,2022-06-07_10h40.38.189,oddball,2022.1.2,59.93576076715277,
5,,,,,0,0,0,1,1,0,1,0,16,0,16,0,,,,,,,,,,,,,,,,,216.12783330027014,None,216.77753750002012,217.37729880027473,217.36081670038402,219.36160240042955,None,1,0.6125914603471756,2.6134017603471875,increament,0.6,15,standard,None,100,,,,,,,,f,30,219,fr,r,0,raw,2022-06-07_10h40.38.189,oddball,2022.1.2,59.93576076715277,
5,,,,,0,0,0,1,1,0,1,0,17,0,17,0,,,,,,,,,,,,,,,,,219.37843660032377,None,220.0622515003197,220.66202840022743,220.6455761003308,222.6461018002592,None,1,0.6124422596767545,2.6129337595775723,increament,0.6,15,standard,None,100,,,,,,,,f,30,219,fr,r,0,raw,2022-06-07_10h40.38.189,oddball,2022.1.2,59.93576076715277,
5,,,,,0,0,0,1,1,0,1,0,18,0,18,0,,,,,,,,,,,,,,,,,222.6630316004157,None,223.39630690030754,223.99672530032694,223.98013490019366,225.98100530030206,None,1,0.6137080593034625,2.6146612595766783,increament,0.6,15,standard,None,100,,,,,,,,f,30,219,fr,r,0,raw,2022-06-07_10h40.38.189,oddball,2022.1.2,59.93576076715277,
5,,,,,0,0,0,1,1,0,1,0,19,0,19,0,,,,,,,,,,,,,,,,,225.99806280015036,None,226.71503860037774,227.31513610016555,227.29829430021346,229.29900100035593,None,1,0.6095279599539936,2.61025705980137,increament,0.6,15,standard,None,100,,,,,,,,f,30,219,fr,r,0,raw,2022-06-07_10h40.38.189,oddball,2022.1.2,59.93576076715277,
5,,,,,0,0,0,1,1,0,1,0,20,0,20,0,,,,,,,,,,,,,,,,,229.31685010017827,None,229.89911790005863,230.4989620000124,230.4824197003618,232.48312350036576,None,1,0.6123187597841024,2.6130373599007726,increament,0.6,15,standard,None,100,,,,,,,,f,30,219,fr,r,0,raw,2022-06-07_10h40.38.189,oddball,2022.1.2,59.93576076715277,
5,,,,,0,0,0,1,1,0,1,0,21,0,21,0,,,,,,,,,,,,,,,,,232.50009010033682,None,233.13344690017402,234.10060470039025,234.06725420011207,236.0676816003397,None,0,0.9629674605093896,2.9633237603120506,increament,0.96,18,oddball,j,160,,,,,,,,f,30,219,fr,r,0,raw,2022-06-07_10h40.38.189,oddball,2022.1.2,59.93576076715277,
5,,,,,0,0,0,1,1,0,1,0,22,0,22,0,,,,,,,,,,,,,,,,,236.0845474000089,None,236.63479070039466,237.2349324002862,237.21832570014521,239.21944490028545,None,1,0.6123152594082057,2.6132482597604394,increament,0.6,15,standard,None,100,,,,,,,,f,30,219,fr,r,0,raw,2022-06-07_10h40.38.189,oddball,2022.1.2,59.93576076715277,
5,,,,,0,0,0,1,1,0,1,0,23,0,23,0,,,,,,,,,,,,,,,,,239.23571810033172,None,239.869711200241,240.46955230040476,240.45307760033756,242.45382210006937,None,1,0.6128939595073462,2.6136812595650554,increament,0.6,15,standard,None,100,,,,,,,,f,30,219,fr,r,0,raw,2022-06-07_10h40.38.189,oddball,2022.1.2,59.93576076715277,
5,,,,,0,0,0,1,1,0,1,0,24,0,24,0,,,,,,,,,,,,,,,,,242.47043450037017,None,243.07051079999655,243.67081260029227,243.65408020000905,245.6551807001233,None,1,0.6141951596364379,2.615341859869659,increament,0.6,15,standard,None,100,,,,,,,,f,30,219,fr,r,0,raw,2022-06-07_10h40.38.189,oddball,2022.1.2,59.93576076715277,
5,,,,,0,0,0,1,1,0,1,0,25,0,25,0,,,,,,,,,,,,,,,,,245.6718883002177,None,246.2386811003089,246.83888650033623,246.82216570014134,248.82269140006974,None,1,0.6095050596632063,2.6099941600114107,increament,0.6,15,standard,None,100,,,,,,,,f,30,219,fr,r,0,raw,2022-06-07_10h40.38.189,oddball,2022.1.2,59.93576076715277,
5,,,,,0,0,0,1,1,0,1,0,26,0,26,0,,,,,,,,,,,,,,,,,248.839386400301,None,249.45635100034997,250.05666820006445,250.03995840018615,252.04075290029868,None,1,0.611151659861207,2.6119517600163817,increament,0.6,15,standard,None,100,,,,,,,,f,30,219,fr,r,0,raw,2022-06-07_10h40.38.189,oddball,2022.1.2,59.93576076715277,
5,,,,,0,0,0,1,1,0,1,0,27,0,27,0,,,,,,,,,,,,,,,,,252.05808970006183,None,252.70756440004334,253.30809340020642,253.29104890022427,255.29214120004326,None,1,0.6127743599936366,2.6139352596364915,increament,0.6,15,standard,None,100,,,,,,,,f,30,219,fr,r,0,raw,2022-06-07_10h40.38.189,oddball,2022.1.2,59.93576076715277,
5,,,,,0,0,0,1,1,0,1,0,28,0,28,0,,,,,,,,,,,,,,,,,255.30858250008896,None,255.9090006002225,256.6423536003567,256.6089643002488,258.6099652000703,None,0,0.727132759988308,2.728133660275489,increament,0.72,16,oddball,j,120,,,,,,,,f,30,219,fr,r,0,raw,2022-06-07_10h40.38.189,oddball,2022.1.2,59.93576076715277,
5,,,,,0,0,0,1,1,0,1,0,29,0,29,0,,,,,,,,,,,,,,,,,258.62647790042683,None,259.1599509003572,259.7602529004216,259.743707800284,261.7442169999704,None,1,0.6128302603028715,2.613302360288799,increament,0.6,15,standard,None,100,,,,,,,,f,30,219,fr,r,0,raw,2022-06-07_10h40.38.189,oddball,2022.1.2,59.93576076715277,
5,,,,,0,0,0,1,2,0,2,0,0,0,0,0,,,,,,,,,,,,,,,273.48290560021996,None,275.46604780014604,None,276.1668863003142,276.7670366000384,276.7503266003914,278.75104940030724,None,1,0.6099841599352658,2.6107171596959233,decreament,0.6,11,standard,None,100,,261.76113290013745,None,,,,,f,30,219,fr,r,0,raw,2022-06-07_10h40.38.189,oddball,2022.1.2,59.93576076715277,
5,,,,,0,0,0,1,2,0,2,0,1,0,1,0,,,,,,,,,,,,,,,,,278.7676147003658,None,279.35117340041324,279.95159350009635,279.93474940024316,281.9356856001541,None,1,0.6126838596537709,2.6136480597779155,decreament,0.6,11,standard,None,100,,,,,,,,f,30,219,fr,r,0,raw,2022-06-07_10h40.38.189,oddball,2022.1.2,59.93576076715277,
5,,,,,0,0,0,1,2,0,2,0,2,0,2,0,,,,,,,,,,,,,,,,,281.95243580034,None,282.48547040019184,283.0857884003781,283.0692541003227,285.0698632001877,None,1,0.6130705601535738,2.613602160010487,decreament,0.6,11,standard,None,100,,,,,,,,f,30,219,fr,r,0,raw,2022-06-07_10h40.38.189,oddball,2022.1.2,59.93576076715277,
5,,,,,0,0,0,1,2,0,2,0,3,0,3,0,,,,,,,,,,,,,,,,,285.0864971000701,None,285.7032739003189,286.30353850033134,286.2870805002749,288.2879110001959,None,1,0.6131331599317491,2.614025159738958,decreament,0.6,11,standard,None,100,,,,,,,,f,30,219,fr,r,0,raw,2022-06-07_10h40.38.189,oddball,2022.1.2,59.93576076715277,
5,,,,,0,0,0,1,2,0,2,0,4,0,4,0,,,,,,,,,,,,,,,,,288.3043507002294,None,288.95450520003214,289.5553072001785,289.53814489999786,291.538931700401,None,1,0.6127398600801826,2.613540660124272,decreament,0.6,11,standard,None,100,,,,,,,,f,30,219,fr,r,0,raw,2022-06-07_10h40.38.189,oddball,2022.1.2,59.93576076715277,
5,,,,,0,0,0,1,2,0,2,0,5,0,5,0,,,,,,,,,,,,,,,,,291.55586800025776,None,292.072298000101,292.6726047000848,292.6560185002163,294.6569826002233,None,1,0.6127354600466788,2.613756059668958,decreament,0.6,11,standard,None,100,,,,,,,,f,30,219,fr,r,0,raw,2022-06-07_10h40.38.189,oddball,2022.1.2,59.93576076715277,
5,,,,,0,0,0,1,2,0,2,0,6,0,6,0,,,,,,,,,,,,,,,,,294.6737322001718,None,295.5405192002654,296.1406872002408,296.12391930026934,298.1245972001925,j,0,0.6113790599629283,2.6120454599149525,decreament,0.6,11,standard,None,100,0.6342599997296929,,,,,,,f,30,219,fr,r,0,raw,2022-06-07_10h40.38.189,oddball,2022.1.2,59.93576076715277,
5,,,,,0,0,0,1,2,0,2,0,7,0,7,0,,,,,,,,,,,,,,,,,298.14124590018764,None,298.9750261004083,299.5756798000075,299.5586371002719,301.5593664003536,j,0,0.6102232597768307,2.6109239594079554,decreament,0.6,11,standard,None,100,1.4806054001674056,,,,,,,f,30,219,fr,r,0,raw,2022-06-07_10h40.38.189,oddball,2022.1.2,59.93576076715277,
5,,,,,0,0,0,1,2,0,2,0,8,0,8,0,,,,,,,,,,,,,,,,,301.5759991002269,None,302.24310040008277,302.84320250013843,302.82678770041093,304.827781600412,None,1,0.6118869599886239,2.6129383598454297,decreament,0.6,11,standard,None,100,,,,,,,,f,30,219,fr,r,0,raw,2022-06-07_10h40.38.189,oddball,2022.1.2,59.93576076715277,
5,,,,,0,0,0,1,2,0,2,0,9,0,9,0,,,,,,,,,,,,,,,,,304.8448292003013,None,305.4941731002182,306.0943159000017,306.0778952999972,308.0786712002009,None,1,0.6123996595852077,2.6132322596386075,decreament,0.6,11,standard,None,100,,,,,,,,f,30,219,fr,r,0,raw,2022-06-07_10h40.38.189,oddball,2022.1.2,59.93576076715277,
5,,,,,0,0,0,1,2,0,2,0,10,0,10,0,,,,,,,,,,,,,,,,,308.09552740026265,None,308.6625834000297,309.02893040003255,308.9955849000253,310.9964641002007,j,1,0.3597341598942876,2.3605772596783936,decreament,0.36,13,oddball,j,60,0.8029824001714587,,,,,,,f,30,219,fr,r,0,raw,2022-06-07_10h40.38.189,oddball,2022.1.2,59.93576076715277,
5,,,,,0,0,0,1,2,0,2,0,11,0,11,0,,,,,,,,,,,,,,,,,311.0130075002089,None,311.69657779997215,312.29692430002615,312.28010380035266,314.28111460013315,None,1,0.6121102599427104,2.6131725599989295,decreament,0.6,11,standard,None,100,,,,,,,,f,30,219,fr,r,0,raw,2022-06-07_10h40.38.189,oddball,2022.1.2,59.93576076715277,
5,,,,,0,0,0,1,2,0,2,0,12,0,12,0,,,,,,,,,,,,,,,,,314.2975263004191,None,314.9312214003876,315.53133270004764,315.5146011002362,317.5150229004212,None,1,0.612820059992373,2.613179659936577,decreament,0.6,11,standard,None,100,,,,,,,,f,30,219,fr,r,0,raw,2022-06-07_10h40.38.189,oddball,2022.1.2,59.93576076715277,
5,,,,,0,0,0,1,2,0,2,0,13,0,13,0,,,,,,,,,,,,,,,,,317.53169890027493,None,318.09891820000485,318.69937940035015,318.6824865001254,320.68313080025837,None,1,0.6138728600926697,2.6144765596836805,decreament,0.6,11,standard,None,100,,,,,,,,f,30,219,fr,r,0,raw,2022-06-07_10h40.38.189,oddball,2022.1.2,59.93576076715277,
5,,,,,0,0,0,1,2,0,2,0,14,0,14,0,,,,,,,,,,,,,,,,,320.6997239002958,None,321.28378910012543,321.5337322000414,321.50032700039446,323.5009868000634,None,0,0.2437761602923274,2.2444429602473974,decreament,0.24,12,oddball,j,40,,,,,,,,f,30,219,fr,r,0,raw,2022-06-07_10h40.38.189,oddball,2022.1.2,59.93576076715277,
5,,,,,0,0,0,1,2,0,2,0,15,0,15,0,,,,,,,,,,,,,,,,,323.5178209003061,None,324.11806260002777,324.7180167003535,324.7013803999871,326.70253890007734,None,1,0.61211165972054,2.613347959704697,decreament,0.6,11,standard,None,100,,,,,,,,f,30,219,fr,r,0,raw,2022-06-07_10h40.38.189,oddball,2022.1.2,59.93576076715277,
5,,,,,0,0,0,1,2,0,2,0,16,0,16,0,,,,,,,,,,,,,,,,,326.71909480029717,None,327.3526800000109,327.95266570011154,327.93609510036185,329.93666170025244,None,1,0.6071979594416916,2.6077592596411705,decreament,0.6,11,standard,None,100,,,,,,,,f,30,219,fr,r,0,raw,2022-06-07_10h40.38.189,oddball,2022.1.2,59.93576076715277,
5,,,,,0,0,0,1,2,0,2,0,17,0,17,0,,,,,,,,,,,,,,,,,329.9534265003167,None,330.48710610019043,331.0872164000757,331.07078590011224,333.0715862000361,None,1,0.6119262604042888,2.612798460293561,decreament,0.6,11,standard,None,100,,,,,,,,f,30,219,fr,r,0,raw,2022-06-07_10h40.38.189,oddball,2022.1.2,59.93576076715277,
5,,,,,0,0,0,1,2,0,2,0,18,0,18,0,,,,,,,,,,,,,,,,,333.0885901004076,None,333.73828400019556,334.3383537000045,334.3217423004098,336.3224424002692,None,1,0.6112757604569197,2.6119878604076803,decreament,0.6,11,standard,None,100,,,,,,,,f,30,219,fr,r,0,raw,2022-06-07_10h40.38.189,oddball,2022.1.2,59.93576076715277,
5,,,,,0,0,0,1,2,0,2,0,19,0,19,0,,,,,,,,,,,,,,,,,336.3393815001473,None,336.8895263001323,337.48961880011484,337.4735608003102,339.47383630042896,None,1,0.6129434597678483,2.61312355985865,decreament,0.6,11,standard,None,100,,,,,,,,f,30,219,fr,r,0,raw,2022-06-07_10h40.38.189,oddball,2022.1.2,59.93576076715277,
5,,,,,0,0,0,1,2,0,2,0,20,0,20,0,,,,,,,,,,,,,,,,,339.49041280010715,None,340.15731280017644,340.75766470003873,340.7409951002337,342.7416500002146,None,1,0.6130908597260714,2.613708059769124,decreament,0.6,11,standard,None,100,,,,,,,,f,30,219,fr,r,0,raw,2022-06-07_10h40.38.189,oddball,2022.1.2,59.93576076715277,
5,,,,,0,0,0,1,2,0,2,0,21,0,21,0,,,,,,,,,,,,,,,,,342.7583759999834,None,343.4922941001132,344.09200510010123,344.07539490005,346.0765146003105,None,1,0.6095017599873245,2.6108728600665927,decreament,0.6,11,standard,None,100,,,,,,,,f,30,219,fr,r,0,raw,2022-06-07_10h40.38.189,oddball,2022.1.2,59.93576076715277,
5,,,,,0,0,0,1,2,0,2,0,22,0,22,0,,,,,,,,,,,,,,,,,346.09335360024124,None,346.9099116004072,347.5100352000445,347.4940335000865,349.49431780027226,None,1,0.6090396596118808,2.6093296594917774,decreament,0.6,11,standard,None,100,,,,,,,,f,30,219,fr,r,0,raw,2022-06-07_10h40.38.189,oddball,2022.1.2,59.93576076715277,
5,,,,,0,0,0,1,2,0,2,0,23,0,23,0,,,,,,,,,,,,,,,,,349.5110731003806,None,350.22799380030483,350.82812970038503,350.8113624001853,352.8125868001953,None,1,0.6092654597014189,2.6105421599932015,decreament,0.6,11,standard,None,100,,,,,,,,f,30,219,fr,r,0,raw,2022-06-07_10h40.38.189,oddball,2022.1.2,59.93576076715277,
5,,,,,0,0,0,1,2,0,2,0,24,0,24,0,,,,,,,,,,,,,,,,,352.8294246001169,None,353.4124816004187,354.0129067003727,353.9961170000024,355.9966115001589,None,1,0.6127643599174917,2.6132260598242283,decreament,0.6,11,standard,None,100,,,,,,,,f,30,219,fr,r,0,raw,2022-06-07_10h40.38.189,oddball,2022.1.2,59.93576076715277,
5,,,,,0,0,0,1,2,0,2,0,25,0,25,0,,,,,,,,,,,,,,,,,356.01338080037385,None,356.7805257001892,357.38041350012645,357.36370740039274,359.3644871003926,None,1,0.6129399593919516,2.613780359737575,decreament,0.6,11,standard,None,100,,,,,,,,f,30,219,fr,r,0,raw,2022-06-07_10h40.38.189,oddball,2022.1.2,59.93576076715277,
5,,,,,0,0,0,1,2,0,2,0,26,0,26,0,,,,,,,,,,,,,,,,,359.3814267003909,None,360.0984507002868,360.69877730030566,360.6819613003172,362.6827071001753,None,1,0.6099999598227441,2.6108327601104975,decreament,0.6,11,standard,None,100,,,,,,,,f,30,219,fr,r,0,raw,2022-06-07_10h40.38.189,oddball,2022.1.2,59.93576076715277,
5,,,,,0,0,0,1,2,0,2,0,27,0,27,0,,,,,,,,,,,,,,,,,362.6996341003105,None,363.2662672000006,363.74960059998557,363.7330877999775,365.73383540008217,None,0,0.4938499596901238,2.494664560072124,decreament,0.48,14,oddball,j,80,,,,,,,,f,30,219,fr,r,0,raw,2022-06-07_10h40.38.189,oddball,2022.1.2,59.93576076715277,
5,,,,,0,0,0,1,2,0,2,0,28,0,28,0,,,,,,,,,,,,,,,,,365.7505745003,None,366.40086810011417,367.00075570028275,366.9841881003231,368.98493640031666,None,1,0.6119044595398009,2.6127015594393015,decreament,0.6,11,standard,None,100,,,,,,,,f,30,219,fr,r,0,raw,2022-06-07_10h40.38.189,oddball,2022.1.2,59.93576076715277,
5,,,,,0,0,0,1,2,0,2,0,29,0,29,0,,,,,,,,,,,,,,,,,369.00176680041477,None,369.56844160007313,370.16889249999076,370.152251300402,372.1526916003786,None,1,0.6140006599016488,2.6143851596862078,decreament,0.6,11,standard,None,100,,,,,,,,f,30,219,fr,r,0,raw,2022-06-07_10h40.38.189,oddball,2022.1.2,59.93576076715277,
5,,,,,0,0,0,1,3,0,3,0,0,0,0,0,,,,,,,,,,,,,,,373.0373437004164,None,378.9717609002255,None,379.5889839003794,380.1890859003179,380.17269510030746,382.1736699002795,None,1,0.6101826601661742,2.6112256599590182,increament,0.6,15,standard,None,100,,372.1694422001019,None,,,,,f,30,219,fr,r,0,raw,2022-06-07_10h40.38.189,oddball,2022.1.2,59.93576076715277,
5,,,,,0,0,0,1,3,0,3,0,1,0,1,0,,,,,,,,,,,,,,,,,382.1901151002385,None,382.8570292000659,383.4569664001465,383.4405406001024,385.44123910041526,None,1,0.6114035593345761,2.6121130594983697,increament,0.6,15,standard,None,100,,,,,,,,f,30,219,fr,r,0,raw,2022-06-07_10h40.38.189,oddball,2022.1.2,59.93576076715277,
5,,,,,0,0,0,1,3,0,3,0,2,0,2,0,,,,,,,,,,,,,,,,,385.4578003003262,None,386.1915525002405,386.79147690022364,386.77486870018765,388.77598170004785,None,1,0.6130794598720968,2.6142190601676702,increament,0.6,15,standard,None,100,,,,,,,,f,30,219,fr,r,0,raw,2022-06-07_10h40.38.189,oddball,2022.1.2,59.93576076715277,
5,,,,,0,0,0,1,3,0,3,0,3,0,3,0,,,,,,,,,,,,,,,,,388.79238210013136,None,389.3096521999687,389.9095734003931,389.8930592001416,391.8934550001286,None,1,0.6127807595767081,2.6130456598475575,increament,0.6,15,standard,None,100,,,,,,,,f,30,219,fr,r,0,raw,2022-06-07_10h40.38.189,oddball,2022.1.2,59.93576076715277,
5,,,,,0,0,0,1,3,0,3,0,4,0,4,0,,,,,,,,,,,,,,,,,391.91069950023666,None,392.64378160005435,393.244075700175,393.2273617000319,395.22850019996986,None,1,0.6120009599253535,2.613173760008067,increament,0.6,15,standard,None,100,,,,,,,,f,30,219,fr,r,0,raw,2022-06-07_10h40.38.189,oddball,2022.1.2,59.93576076715277,
5,,,,,0,0,0,1,3,0,3,0,5,0,5,0,,,,,,,,,,,,,,,,,395.2449593003839,None,395.8287222003564,396.42901160009205,396.412196200341,398.4126751003787,None,1,0.6112975599244237,2.611711159814149,increament,0.6,15,standard,None,100,,,,,,,,f,30,219,fr,r,0,raw,2022-06-07_10h40.38.189,oddball,2022.1.2,59.93576076715277,
5,,,,,0,0,0,1,3,0,3,0,6,0,6,0,,,,,,,,,,,,,,,,,398.42940750019625,None,399.0131043000147,399.61308970022947,399.5965295000933,401.59746840037405,None,1,0.6118016601540148,2.612801759969443,increament,0.6,15,standard,None,100,,,,,,,,f,30,219,fr,r,0,raw,2022-06-07_10h40.38.189,oddball,2022.1.2,59.93576076715277,
5,,,,,0,0,0,1,3,0,3,0,7,0,7,0,,,,,,,,,,,,,,,,,401.6139636002481,None,402.2977736000903,402.89763460028917,402.88124400004745,404.8819271000102,None,1,0.6122589600272477,2.6129596601240337,increament,0.6,15,standard,None,100,,,,,,,,f,30,219,fr,r,0,raw,2022-06-07_10h40.38.189,oddball,2022.1.2,59.93576076715277,
5,,,,,0,0,0,1,3,0,3,0,8,0,8,0,,,,,,,,,,,,,,,,,404.8986252001487,None,405.54886610014364,406.149237500038,406.1324151000008,408.1336244000122,None,1,0.6138490601442754,2.6151102599687874,increament,0.6,15,standard,None,100,,,,,,,,f,30,219,fr,r,0,raw,2022-06-07_10h40.38.189,oddball,2022.1.2,59.93576076715277,
5,,,,,0,0,0,1,3,0,3,0,9,0,9,0,,,,,,,,,,,,,,,,,408.14987760037184,None,408.71649020025507,409.31690600002185,409.3003446003422,411.3013162002899,None,1,0.61396205984056,2.6149711599573493,increament,0.6,15,standard,None,100,,,,,,,,f,30,219,fr,r,0,raw,2022-06-07_10h40.38.189,oddball,2022.1.2,59.93576076715277,
5,,,,,0,0,0,1,3,0,3,0,10,0,10,0,,,,,,,,,,,,,,,,,411.3184401001781,None,412.15131750004366,412.7512276000343,412.7346724001691,414.7354646003805,j,0,0.6134015596471727,2.6142320595681667,increament,0.6,15,standard,None,100,1.687908099964261,,,,,,,f,30,219,fr,r,0,raw,2022-06-07_10h40.38.189,oddball,2022.1.2,59.93576076715277,
5,,,,,0,0,0,1,3,0,3,0,11,0,11,0,,,,,,,,,,,,,,,,,414.7522776001133,None,415.53604280017316,416.13590670004487,416.11940030008554,418.120147800073,None,1,0.6120116598904133,2.612790759652853,increament,0.6,15,standard,None,100,,,,,,,,f,30,219,fr,r,0,raw,2022-06-07_10h40.38.189,oddball,2022.1.2,59.93576076715277,
5,,,,,0,0,0,1,3,0,3,0,12,0,12,0,,,,,,,,,,,,,,,,,418.1371846003458,None,418.70441970042884,419.6713032000698,419.6377126001753,421.6382210999727,j,1,0.9623649599961936,2.962795159779489,increament,0.96,18,oddball,j,160,0.36817209981381893,,,,,,,f,30,219,fr,r,0,raw,2022-06-07_10h40.38.189,oddball,2022.1.2,59.93576076715277,
5,,,,,0,0,0,1,3,0,3,0,13,0,13,0,,,,,,,,,,,,,,,,,421.65523230005056,None,422.3550599999726,422.9555339002982,422.93862590007484,424.9395775999874,None,1,0.6093202596530318,2.6102924598380923,increament,0.6,15,standard,None,100,,,,,,,,f,30,219,fr,r,0,raw,2022-06-07_10h40.38.189,oddball,2022.1.2,59.93576076715277,
5,,,,,0,0,0,1,3,0,3,0,14,0,14,0,,,,,,,,,,,,,,,,,424.95622530020773,None,425.6733001000248,426.2735176002607,426.2566402000375,428.25759040005505,None,1,0.6094356593675911,2.6103860596194863,increament,0.6,15,standard,None,100,,,,,,,,f,30,219,fr,r,0,raw,2022-06-07_10h40.38.189,oddball,2022.1.2,59.93576076715277,
5,,,,,0,0,0,1,3,0,3,0,15,0,15,0,,,,,,,,,,,,,,,,,428.2744259000756,None,428.8744816002436,429.4745530001819,429.4581294003874,431.45836800010875,None,1,0.6128145596012473,2.6129713598638773,increament,0.6,15,standard,None,100,,,,,,,,f,30,219,fr,r,0,raw,2022-06-07_10h40.38.189,oddball,2022.1.2,59.93576076715277,
5,,,,,0,0,0,1,3,0,3,0,16,0,16,0,,,,,,,,,,,,,,,,,431.47529190033674,None,432.0757195004262,432.6754788001999,432.65925660030916,434.6597763001919,None,1,0.6116010593250394,2.6120961592532694,increament,0.6,15,standard,None,100,,,,,,,,f,30,219,fr,r,0,raw,2022-06-07_10h40.38.189,oddball,2022.1.2,59.93576076715277,
5,,,,,0,0,0,1,3,0,3,0,17,0,17,0,,,,,,,,,,,,,,,,,434.6763549000025,None,435.32668250007555,435.92676499998197,435.91051640035585,437.9109752001241,None,1,0.6129475603811443,2.6133917602710426,increament,0.6,15,standard,None,100,,,,,,,,f,30,219,fr,r,0,raw,2022-06-07_10h40.38.189,oddball,2022.1.2,59.93576076715277,
5,,,,,0,0,0,1,3,0,3,0,18,0,18,0,,,,,,,,,,,,,,,,,437.92790540028363,None,438.69447470037267,439.2950406000018,439.2784494999796,441.27924020029604,None,1,0.6136174602434039,2.6144195604138076,increament,0.6,15,standard,None,100,,,,,,,,f,30,219,fr,r,0,raw,2022-06-07_10h40.38.189,oddball,2022.1.2,59.93576076715277,
5,,,,,0,0,0,1,3,0,3,0,19,0,19,0,,,,,,,,,,,,,,,,,441.29580100020394,None,441.929504300002,442.5293073002249,442.51275210035965,444.5133822001517,None,1,0.609007759951055,2.609617759939283,increament,0.6,15,standard,None,100,,,,,,,,f,30,219,fr,r,0,raw,2022-06-07_10h40.38.189,oddball,2022.1.2,59.93576076715277,
5,,,,,0,0,0,1,3,0,3,0,20,0,20,0,,,,,,,,,,,,,,,,,444.53051990037784,None,445.2803513002582,445.88070950005203,445.86423670034856,447.86485440004617,None,1,0.6134244594722986,2.6140976594761014,increament,0.6,15,standard,None,100,,,,,,,,f,30,219,fr,r,0,raw,2022-06-07_10h40.38.189,oddball,2022.1.2,59.93576076715277,
5,,,,,0,0,0,1,3,0,3,0,21,0,21,0,,,,,,,,,,,,,,,,,447.88142200000584,None,448.66521490039304,449.2651340002194,449.248657300137,451.24919350026175,None,1,0.6093228594399989,2.6098477598279715,increament,0.6,15,standard,None,100,,,,,,,,f,30,219,fr,r,0,raw,2022-06-07_10h40.38.189,oddball,2022.1.2,59.93576076715277,
5,,,,,0,0,0,1,3,0,3,0,22,0,22,0,,,,,,,,,,,,,,,,,451.2660305001773,None,451.9833751004189,452.5831734002568,452.56654310040176,454.56735730031505,None,1,0.6116213598288596,2.6124309594742954,increament,0.6,15,standard,None,100,,,,,,,,f,30,219,fr,r,0,raw,2022-06-07_10h40.38.189,oddball,2022.1.2,59.93576076715277,
5,,,,,0,0,0,1,3,0,3,0,23,0,23,0,,,,,,,,,,,,,,,,,454.5843283999711,None,455.31756790028885,456.16810430027544,456.1345748002641,458.1352593000047,None,0,0.8460843600332737,2.846772360149771,increament,0.84,17,oddball,j,140,,,,,,,,f,30,219,fr,r,0,raw,2022-06-07_10h40.38.189,oddball,2022.1.2,59.93576076715277,
5,,,,,0,0,0,1,3,0,3,0,24,0,24,0,,,,,,,,,,,,,,,,,458.15220500016585,None,458.8191586001776,459.41937000025064,459.4024020000361,461.4032023004256,None,1,0.6089954595081508,2.6097826594486833,increament,0.6,15,standard,None,100,,,,,,,,f,30,219,fr,r,0,raw,2022-06-07_10h40.38.189,oddball,2022.1.2,59.93576076715277,
5,,,,,0,0,0,1,3,0,3,0,25,0,25,0,,,,,,,,,,,,,,,,,461.41979800025,None,462.1036585001275,462.7041641003452,462.6875888002105,464.6873991000466,None,1,0.6127161597833037,2.612392259761691,increament,0.6,15,standard,None,100,,,,,,,,f,30,219,fr,r,0,raw,2022-06-07_10h40.38.189,oddball,2022.1.2,59.93576076715277,
5,,,,,0,0,0,1,3,0,3,0,26,0,26,0,,,,,,,,,,,,,,,,,464.70446430006996,None,465.48833309998736,466.0884257000871,466.0718279001303,468.07305900007486,None,1,0.6103729601018131,2.611642260104418,increament,0.6,15,standard,None,100,,,,,,,,f,30,219,fr,r,0,raw,2022-06-07_10h40.38.189,oddball,2022.1.2,59.93576076715277,
5,,,,,0,0,0,1,3,0,3,0,27,0,27,0,,,,,,,,,,,,,,,,,468.08984829997644,None,468.73943110043183,469.4730441002175,469.4395215003751,471.44023100007325,None,0,0.7271274598315358,2.727815859951079,increament,0.72,16,oddball,j,120,,,,,,,,f,30,219,fr,r,0,raw,2022-06-07_10h40.38.189,oddball,2022.1.2,59.93576076715277,
5,,,,,0,0,0,1,3,0,3,0,28,0,28,0,,,,,,,,,,,,,,,,,471.4570137001574,None,472.0405950001441,472.6410696003586,472.624243600294,474.6248544002883,None,1,0.6135129597969353,2.6141143599525094,increament,0.6,15,standard,None,100,,,,,,,,f,30,219,fr,r,0,raw,2022-06-07_10h40.38.189,oddball,2022.1.2,59.93576076715277,
5,,,,,0,0,0,1,3,0,3,0,29,0,29,0,,,,,,,,,,,,,,,,,474.6416064002551,None,475.275700900238,475.87538130022585,475.858810600359,477.85941690020263,None,1,0.6118884598836303,2.6125168595463037,increament,0.6,15,standard,None,100,,,,,,,,f,30,219,fr,r,0,raw,2022-06-07_10h40.38.189,oddball,2022.1.2,59.93576076715277,
5,,,,,0,0,0,1,4,0,4,0,0,0,0,0,,,,,,,,,,,,,,,491.4821260999888,None,495.88290250021964,None,496.58350379997864,497.1835088999942,497.16667020041496,499.16758910007775,None,1,0.6110825599171221,2.6120255598798394,decreament,0.6,11,standard,None,100,,477.87656810041517,None,,,,,f,30,219,fr,r,0,raw,2022-06-07_10h40.38.189,oddball,2022.1.2,59.93576076715277,
5,,,,,0,0,0,1,4,0,4,0,1,0,1,0,,,,,,,,,,,,,,,,,499.1843022000976,None,499.8513760003261,500.45152160013095,500.4349747002125,502.4353974000551,None,1,0.6094624600373209,2.6098318598233163,decreament,0.6,11,standard,None,100,,,,,,,,f,30,219,fr,r,0,raw,2022-06-07_10h40.38.189,oddball,2022.1.2,59.93576076715277,
5,,,,,0,0,0,1,4,0,4,0,2,0,2,0,,,,,,,,,,,,,,,,,502.4520779000595,None,503.0856600999832,503.68577810004354,503.6694987001829,505.6698056003079,None,1,0.6121326596476138,2.612426859792322,decreament,0.6,11,standard,None,100,,,,,,,,f,30,219,fr,r,0,raw,2022-06-07_10h40.38.189,oddball,2022.1.2,59.93576076715277,
5,,,,,0,0,0,1,4,0,4,0,3,0,3,0,,,,,,,,,,,,,,,,,505.68662680033594,None,506.28706540027633,506.8873260002583,506.8708242001012,508.8711828002706,None,1,0.6136223594658077,2.613917159382254,decreament,0.6,11,standard,None,100,,,,,,,,f,30,219,fr,r,0,raw,2022-06-07_10h40.38.189,oddball,2022.1.2,59.93576076715277,
5,,,,,0,0,0,1,4,0,4,0,4,0,4,0,,,,,,,,,,,,,,,,,508.88808359997347,None,509.47157509997487,510.07163120014593,510.0555170001462,512.0558531000279,None,1,0.6131184599362314,2.613361360039562,decreament,0.6,11,standard,None,100,,,,,,,,f,30,219,fr,r,0,raw,2022-06-07_10h40.38.189,oddball,2022.1.2,59.93576076715277,
5,,,,,0,0,0,1,4,0,4,0,5,0,5,0,,,,,,,,,,,,,,,,,512.072472400032,None,512.7393232001923,513.339482200332,513.3228108002804,515.3237445000559,None,1,0.6104296599514782,2.611405959818512,decreament,0.6,11,standard,None,100,,,,,,,,f,30,219,fr,r,0,raw,2022-06-07_10h40.38.189,oddball,2022.1.2,59.93576076715277,
5,,,,,0,0,0,1,4,0,4,0,6,0,6,0,,,,,,,,,,,,,,,,,515.3403040003031,None,515.9072514004074,516.5077311000787,516.4910810003057,518.4916604002938,None,1,0.6148859597742558,2.615425459574908,decreament,0.6,11,standard,None,100,,,,,,,,f,30,219,fr,r,0,raw,2022-06-07_10h40.38.189,oddball,2022.1.2,59.93576076715277,
5,,,,,0,0,0,1,4,0,4,0,7,0,7,0,,,,,,,,,,,,,,,,,518.5080757001415,None,519.108714400325,519.7086407002062,519.6920302002691,521.692935900297,None,1,0.6101797595620155,2.611139659769833,decreament,0.6,11,standard,None,100,,,,,,,,f,30,219,fr,r,0,raw,2022-06-07_10h40.38.189,oddball,2022.1.2,59.93576076715277,
5,,,,,0,0,0,1,4,0,4,0,8,0,8,0,,,,,,,,,,,,,,,,,521.7099399999715,None,522.4431170001626,523.0432212003507,523.026532500051,525.0273421001621,None,1,0.6106945592910051,2.6115120593458414,decreament,0.6,11,standard,None,100,,,,,,,,f,30,219,fr,r,0,raw,2022-06-07_10h40.38.189,oddball,2022.1.2,59.93576076715277,
5,,,,,0,0,0,1,4,0,4,0,9,0,9,0,,,,,,,,,,,,,,,,,525.0439287000336,None,525.6276043001562,526.2278865003027,526.2111316001974,528.2120110001415,None,1,0.6123373596929014,2.613233759999275,decreament,0.6,11,standard,None,100,,,,,,,,f,30,219,fr,r,0,raw,2022-06-07_10h40.38.189,oddball,2022.1.2,59.93576076715277,
5,,,,,0,0,0,1,4,0,4,0,10,0,10,0,,,,,,,,,,,,,,,,,528.2285836003721,None,528.8787718000822,529.4789969003759,529.4627492004074,531.4636802002788,None,1,0.6137014594860375,2.614614959806204,decreament,0.6,11,standard,None,100,,,,,,,,f,30,219,fr,r,0,raw,2022-06-07_10h40.38.189,oddball,2022.1.2,59.93576076715277,
5,,,,,0,0,0,1,4,0,4,0,11,0,11,0,,,,,,,,,,,,,,,,,531.4797282000072,None,532.1466663000174,532.3966717002913,532.3634420000017,534.3648471003398,j,1,0.24610295984894037,2.2475932599045336,decreament,0.24,12,oddball,j,40,0.6182976998388767,,,,,,,f,30,219,fr,r,0,raw,2022-06-07_10h40.38.189,oddball,2022.1.2,59.93576076715277,
5,,,,,0,0,0,1,4,0,4,0,12,0,12,0,,,,,,,,,,,,,,,,,534.3808532999828,None,534.981736200396,535.5814274000004,535.5647474001162,537.5656189001165,None,1,0.6079880599863827,2.608898560050875,decreament,0.6,11,standard,None,100,,,,,,,,f,30,219,fr,r,0,raw,2022-06-07_10h40.38.189,oddball,2022.1.2,59.93576076715277,
5,,,,,0,0,0,1,4,0,4,0,13,0,13,0,,,,,,,,,,,,,,,,,537.5822312003002,None,538.232374700252,538.8326615002006,538.8158794003539,540.8167150001973,None,1,0.6129213599488139,2.6137624601833522,decreament,0.6,11,standard,None,100,,,,,,,,f,30,219,fr,r,0,raw,2022-06-07_10h40.38.189,oddball,2022.1.2,59.93576076715277,
5,,,,,0,0,0,1,4,0,4,0,14,0,14,0,,,,,,,,,,,,,,,,,540.833834500052,None,541.3502240004018,541.9506757003255,541.933937900234,543.9346540002152,None,1,0.6141695599071681,2.6148688602261245,decreament,0.6,11,standard,None,100,,,,,,,,f,30,219,fr,r,0,raw,2022-06-07_10h40.38.189,oddball,2022.1.2,59.93576076715277,
5,,,,,0,0,0,1,4,0,4,0,15,0,15,0,,,,,,,,,,,,,,,,,543.9513383000158,None,544.6517184004188,545.1352551002055,545.1184697002172,547.1188742001541,None,0,0.49301705975085497,2.4933572597801685,decreament,0.48,14,oddball,j,80,,,,,,,,f,30,219,fr,r,0,raw,2022-06-07_10h40.38.189,oddball,2022.1.2,59.93576076715277,
5,,,,,0,0,0,1,4,0,4,0,16,0,16,0,,,,,,,,,,,,,,,,,547.1355603002012,None,547.7862139004283,548.3862499003299,548.3697942001745,550.3701090002432,None,1,0.6126381601206958,2.612905760295689,decreament,0.6,11,standard,None,100,,,,,,,,f,30,219,fr,r,0,raw,2022-06-07_10h40.38.189,oddball,2022.1.2,59.93576076715277,
5,,,,,0,0,0,1,4,0,4,0,17,0,17,0,,,,,,,,,,,,,,,,,550.3872051001526,None,551.1046291003004,551.7038942002691,551.687475700397,553.6880847001448,None,1,0.6113440599292517,2.611961259972304,decreament,0.6,11,standard,None,100,,,,,,,,f,30,219,fr,r,0,raw,2022-06-07_10h40.38.189,oddball,2022.1.2,59.93576076715277,
5,,,,,0,0,0,1,4,0,4,0,18,0,18,0,,,,,,,,,,,,,,,,,553.7049231003039,None,554.4721473003738,555.0722056999803,555.0554935000837,557.0564106004313,None,1,0.6125278598628938,2.6135500599630177,decreament,0.6,11,standard,None,100,,,,,,,,f,30,219,fr,r,0,raw,2022-06-07_10h40.38.189,oddball,2022.1.2,59.93576076715277,
5,,,,,0,0,0,1,4,0,4,0,19,0,19,0,,,,,,,,,,,,,,,,,557.0732337003574,None,557.6734844003804,558.2734282002784,558.2568674003705,560.2576406002045,None,1,0.6108856601640582,2.6116207600571215,decreament,0.6,11,standard,None,100,,,,,,,,f,30,219,fr,r,0,raw,2022-06-07_10h40.38.189,oddball,2022.1.2,59.93576076715277,
5,,,,,0,0,0,1,4,0,4,0,20,0,20,0,,,,,,,,,,,,,,,,,560.2742687002756,None,561.0077661001123,561.6079671001062,561.5911626000889,563.5917120003141,None,1,0.6130556594580412,2.6135748592205346,decreament,0.6,11,standard,None,100,,,,,,,,f,30,219,fr,r,0,raw,2022-06-07_10h40.38.189,oddball,2022.1.2,59.93576076715277,
5,,,,,0,0,0,1,4,0,4,0,21,0,21,0,,,,,,,,,,,,,,,,,563.608551800251,None,564.4590001003817,565.059215400368,565.0427652001381,567.0434199003503,None,1,0.6129249604418874,2.6135800601914525,decreament,0.6,11,standard,None,100,,,,,,,,f,30,219,fr,r,0,raw,2022-06-07_10h40.38.189,oddball,2022.1.2,59.93576076715277,
5,,,,,0,0,0,1,4,0,4,0,22,0,22,0,,,,,,,,,,,,,,,,,567.060103200376,None,567.710396700073,568.3102450002916,568.2936107004061,570.2943731001578,None,1,0.6101363599300385,2.6109222597442567,decreament,0.6,11,standard,None,100,,,,,,,,f,30,219,fr,r,0,raw,2022-06-07_10h40.38.189,oddball,2022.1.2,59.93576076715277,
5,,,,,0,0,0,1,4,0,4,0,23,0,23,0,,,,,,,,,,,,,,,,,570.311080200132,None,571.0113394004293,571.6117220004089,571.5950750000775,573.5953865000047,None,1,0.6126880599185824,2.6129660601727664,decreament,0.6,11,standard,None,100,,,,,,,,f,30,219,fr,r,0,raw,2022-06-07_10h40.38.189,oddball,2022.1.2,59.93576076715277,
5,,,,,0,0,0,1,4,0,4,0,24,0,24,0,,,,,,,,,,,,,,,,,573.6120351999998,None,574.2460843003355,574.8460417999886,574.8295265003107,576.8301207004115,None,1,0.6123984595760703,2.6129751596599817,decreament,0.6,11,standard,None,100,,,,,,,,f,30,219,fr,r,0,raw,2022-06-07_10h40.38.189,oddball,2022.1.2,59.93576076715277,
5,,,,,0,0,0,1,4,0,4,0,25,0,25,0,,,,,,,,,,,,,,,,,576.8467175001279,None,577.5807248000056,578.1808301000856,578.1640952001326,580.1646539000794,None,1,0.6117899599485099,2.612332960125059,decreament,0.6,11,standard,None,100,,,,,,,,f,30,219,fr,r,0,raw,2022-06-07_10h40.38.189,oddball,2022.1.2,59.93576076715277,
5,,,,,0,0,0,1,4,0,4,0,26,0,26,0,,,,,,,,,,,,,,,,,580.1814510002732,None,580.8654829002917,581.2320179999806,581.1989761004224,583.1993412002921,None,0,0.3602161598391831,2.3604959598742425,decreament,0.36,13,oddball,j,60,,,,,,,,f,30,219,fr,r,0,raw,2022-06-07_10h40.38.189,oddball,2022.1.2,59.93576076715277,
5,,,,,0,0,0,1,4,0,4,0,27,0,27,0,,,,,,,,,,,,,,,,,583.2162609002553,None,583.8666275003925,584.4665326001123,584.4499596999958,586.4509099000134,None,1,0.6096913600340486,2.6106979600153863,decreament,0.6,11,standard,None,100,,,,,,,,f,30,219,fr,r,0,raw,2022-06-07_10h40.38.189,oddball,2022.1.2,59.93576076715277,
5,,,,,0,0,0,1,4,0,4,0,28,0,28,0,,,,,,,,,,,,,,,,,586.4671776001342,None,587.1508392002434,587.7511024000123,587.7343145003542,589.7355339000933,None,1,0.6088829599320889,2.6101486599072814,decreament,0.6,11,standard,None,100,,,,,,,,f,30,219,fr,r,0,raw,2022-06-07_10h40.38.189,oddball,2022.1.2,59.93576076715277,
5,,,,,0,0,0,1,4,0,4,0,29,0,29,0,,,,,,,,,,,,,,,,,589.7525227000006,None,590.3022079002112,590.9022809001617,590.8855729000643,592.886380400043,None,1,0.6107331593520939,2.6115657594054937,decreament,0.6,11,standard,None,100,,,,,,,,f,30,219,fr,r,0,raw,2022-06-07_10h40.38.189,oddball,2022.1.2,59.93576076715277,
5,,,,,0,0,0,1,5,0,5,0,0,0,0,0,,,,,,,,,,,,,,,609.8595631001517,None,621.2636786000803,None,621.9145929003134,622.5143490000628,622.4977950002067,624.4984774002805,None,1,0.6086813597939909,2.6093981596641243,increament,0.6,15,standard,None,100,,592.9032902000472,None,,,,,f,30,219,fr,r,0,raw,2022-06-07_10h40.38.189,oddball,2022.1.2,59.93576076715277,
5,,,,,0,0,0,1,5,0,5,0,1,0,1,0,,,,,,,,,,,,,,,,,624.5150178000331,None,625.0484997001477,625.648984500207,625.6323216003366,627.6330433003604,None,1,0.6125891599804163,2.613302260171622,increament,0.6,15,standard,None,100,,,,,,,,f,30,219,fr,r,0,raw,2022-06-07_10h40.38.189,oddball,2022.1.2,59.93576076715277,
5,,,,,0,0,0,1,5,0,5,0,2,0,2,0,,,,,,,,,,,,,,,,,627.6497632004321,None,628.282941700425,628.883250400424,628.8667109999806,630.8673867001198,None,1,0.6140467594377697,2.614722159691155,increament,0.6,15,standard,None,100,,,,,,,,f,30,219,fr,r,0,raw,2022-06-07_10h40.38.189,oddball,2022.1.2,59.93576076715277,
5,,,,,0,0,0,1,5,0,5,0,3,0,3,0,,,,,,,,,,,,,,,,,630.8842344000004,None,631.6344171003439,632.2347298003733,632.2182583003305,634.2185618001968,None,1,0.612465460319072,2.612676559947431,increament,0.6,15,standard,None,100,,,,,,,,f,30,219,fr,r,0,raw,2022-06-07_10h40.38.189,oddball,2022.1.2,59.93576076715277,
5,,,,,0,0,0,1,5,0,5,0,4,0,4,0,,,,,,,,,,,,,,,,,634.2351899002679,None,634.835569200106,635.435845900327,635.419386500027,637.4197452003136,None,1,0.6128669595345855,2.6131963594816625,increament,0.6,15,standard,None,100,,,,,,,,f,30,219,fr,r,0,raw,2022-06-07_10h40.38.189,oddball,2022.1.2,59.93576076715277,
5,,,,,0,0,0,1,5,0,5,0,5,0,5,0,,,,,,,,,,,,,,,,,637.4366922001354,None,638.0872515002266,638.6872752001509,638.6704807002097,640.6714032003656,None,1,0.61164586013183,2.612617260310799,increament,0.6,15,standard,None,100,,,,,,,,f,30,219,fr,r,0,raw,2022-06-07_10h40.38.189,oddball,2022.1.2,59.93576076715277,
5,,,,,0,0,0,1,5,0,5,0,6,0,6,0,,,,,,,,,,,,,,,,,640.6880757003091,None,641.2212582002394,642.0716703999788,642.0383747001179,644.0394044001587,None,0,0.8457867600955069,2.8468462601304054,increament,0.84,17,oddball,j,140,,,,,,,,f,30,219,fr,r,0,raw,2022-06-07_10h40.38.189,oddball,2022.1.2,59.93576076715277,
5,,,,,0,0,0,1,5,0,5,0,7,0,7,0,,,,,,,,,,,,,,,,,644.0559188001789,None,644.656218400225,645.2564594000578,645.2396936002187,647.2403832003474,None,1,0.613515860401094,2.613814660347998,increament,0.6,15,standard,None,100,,,,,,,,f,30,219,fr,r,0,raw,2022-06-07_10h40.38.189,oddball,2022.1.2,59.93576076715277,
5,,,,,0,0,0,1,5,0,5,0,8,0,8,0,,,,,,,,,,,,,,,,,647.2572143003345,None,648.0073304004036,648.6073145000264,648.5906777000055,650.5920679001138,None,1,0.612673559691757,2.6141700595617294,increament,0.6,15,standard,None,100,,,,,,,,f,30,219,fr,r,0,raw,2022-06-07_10h40.38.189,oddball,2022.1.2,59.93576076715277,
5,,,,,0,0,0,1,5,0,5,0,9,0,9,0,,,,,,,,,,,,,,,,,650.6088884002529,None,651.2084699003026,651.8085109000094,651.7920081000775,653.792438399978,None,1,0.6128291594795883,2.613258959725499,increament,0.6,15,standard,None,100,,,,,,,,f,30,219,fr,r,0,raw,2022-06-07_10h40.38.189,oddball,2022.1.2,59.93576076715277,
5,,,,,0,0,0,1,5,0,5,0,10,0,10,0,,,,,,,,,,,,,,,,,653.8090654001571,None,654.4931347002275,655.0930890003219,655.0765761001967,657.0771912001073,None,1,0.6121000596322119,2.612724259495735,increament,0.6,15,standard,None,100,,,,,,,,f,30,219,fr,r,0,raw,2022-06-07_10h40.38.189,oddball,2022.1.2,59.93576076715277,
5,,,,,0,0,0,1,5,0,5,0,11,0,11,0,,,,,,,,,,,,,,,,,657.0943570001982,None,657.6614589001983,658.2609160002321,658.2443952001631,660.2452589999884,None,1,0.6101273600943387,2.611015859991312,increament,0.6,15,standard,None,100,,,,,,,,f,30,219,fr,r,0,raw,2022-06-07_10h40.38.189,oddball,2022.1.2,59.93576076715277,
5,,,,,0,0,0,1,5,0,5,0,12,0,12,0,,,,,,,,,,,,,,,,,660.2619954003021,None,660.8121140003204,661.412625500001,661.3959255004302,663.3964130003005,None,1,0.6125090597197413,2.6129865595139563,increament,0.6,15,standard,None,100,,,,,,,,f,30,219,fr,r,0,raw,2022-06-07_10h40.38.189,oddball,2022.1.2,59.93576076715277,
5,,,,,0,0,0,1,5,0,5,0,13,0,13,0,,,,,,,,,,,,,,,,,663.4130651000887,None,664.0632828003727,664.663537400309,664.6469476004131,666.6475683003664,None,1,0.6133504598401487,2.6139511596411467,increament,0.6,15,standard,None,100,,,,,,,,f,30,219,fr,r,0,raw,2022-06-07_10h40.38.189,oddball,2022.1.2,59.93576076715277,
5,,,,,0,0,0,1,5,0,5,0,14,0,14,0,,,,,,,,,,,,,,,,,666.6642263000831,None,667.3481578002684,668.315023700241,668.2822855003178,670.282480200287,j,1,0.9599917600862682,2.960118760354817,increament,0.96,18,oddball,j,160,0.37843859987333417,,,,,,,f,30,219,fr,r,0,raw,2022-06-07_10h40.38.189,oddball,2022.1.2,59.93576076715277,
5,,,,,0,0,0,1,5,0,5,0,15,0,15,0,,,,,,,,,,,,,,,,,670.2991914004087,None,670.9492989000864,671.5494711003266,671.5334152001888,673.5336245000362,None,1,0.6136538600549102,2.6137566599063575,increament,0.6,15,standard,None,100,,,,,,,,f,30,219,fr,r,0,raw,2022-06-07_10h40.38.189,oddball,2022.1.2,59.93576076715277,
5,,,,,0,0,0,1,5,0,5,0,16,0,16,0,,,,,,,,,,,,,,,,,673.5504280002788,None,674.2341663003899,674.8343144999817,674.8174408003688,676.8187411003746,None,1,0.610050159972161,2.611428960226476,increament,0.6,15,standard,None,100,,,,,,,,f,30,219,fr,r,0,raw,2022-06-07_10h40.38.189,oddball,2022.1.2,59.93576076715277,
5,,,,,0,0,0,1,5,0,5,0,17,0,17,0,,,,,,,,,,,,,,,,,676.8355596000329,None,677.4521173001267,678.0521239000373,678.0354848001152,680.0364656001329,None,1,0.6112626600079238,2.61223665997386,increament,0.6,15,standard,None,100,,,,,,,,f,30,219,fr,r,0,raw,2022-06-07_10h40.38.189,oddball,2022.1.2,59.93576076715277,
5,,,,,0,0,0,1,5,0,5,0,18,0,18,0,,,,,,,,,,,,,,,,,680.0527881002054,None,680.7865346004255,681.386734300293,681.370268100407,683.3705836003646,None,1,0.612633359618485,2.6128573594614863,increament,0.6,15,standard,None,100,,,,,,,,f,30,219,fr,r,0,raw,2022-06-07_10h40.38.189,oddball,2022.1.2,59.93576076715277,
5,,,,,0,0,0,1,5,0,5,0,19,0,19,0,,,,,,,,,,,,,,,,,683.3874941002578,None,683.9707794999704,684.5714221000671,684.5545181003399,686.55522270035,None,1,0.6107169599272311,2.611421959940344,increament,0.6,15,standard,None,100,,,,,,,,f,30,219,fr,r,0,raw,2022-06-07_10h40.38.189,oddball,2022.1.2,59.93576076715277,
5,,,,,0,0,0,1,5,0,5,0,20,0,20,0,,,,,,,,,,,,,,,,,686.5719770002179,None,687.2554248003289,687.8557749004103,687.8389843003824,689.8398116002791,None,1,0.6144862598739564,2.6153070596046746,increament,0.6,15,standard,None,100,,,,,,,,f,30,219,fr,r,0,raw,2022-06-07_10h40.38.189,oddball,2022.1.2,59.93576076715277,
5,,,,,0,0,0,1,5,0,5,0,21,0,21,0,,,,,,,,,,,,,,,,,689.8564462000504,None,690.4899955000728,691.0901855002157,691.0737523999996,693.074420100078,None,1,0.6136825601570308,2.6144224600866437,increament,0.6,15,standard,None,100,,,,,,,,f,30,219,fr,r,0,raw,2022-06-07_10h40.38.189,oddball,2022.1.2,59.93576076715277,
5,,,,,0,0,0,1,5,0,5,0,22,0,22,0,,,,,,,,,,,,,,,,,693.0910498001613,None,693.6581837004051,694.2577719003893,694.2412698003463,696.2424358003773,None,1,0.6111178598366678,2.612368759699166,increament,0.6,15,standard,None,100,,,,,,,,f,30,219,fr,r,0,raw,2022-06-07_10h40.38.189,oddball,2022.1.2,59.93576076715277,
5,,,,,0,0,0,1,5,0,5,0,23,0,23,0,,,,,,,,,,,,,,,,,696.2587219001725,None,696.9591156002134,697.5594056001864,697.5428128000349,699.5436044000089,None,1,0.6113060596399009,2.612136259675026,increament,0.6,15,standard,None,100,,,,,,,,f,30,219,fr,r,0,raw,2022-06-07_10h40.38.189,oddball,2022.1.2,59.93576076715277,
5,,,,,0,0,0,1,5,0,5,0,24,0,24,0,,,,,,,,,,,,,,,,,699.560270300135,None,700.1767280003987,700.7772632003762,700.7605726001784,702.7615527003072,None,1,0.6144729601219296,2.615451460238546,increament,0.6,15,standard,None,100,,,,,,,,f,30,219,fr,r,0,raw,2022-06-07_10h40.38.189,oddball,2022.1.2,59.93576076715277,
5,,,,,0,0,0,1,5,0,5,0,25,0,25,0,,,,,,,,,,,,,,,,,702.7782130003907,None,703.4285238999873,704.1616059001535,704.1284834002145,706.128882500343,None,0,0.7288157599978149,2.7292194603942335,increament,0.72,16,oddball,j,120,,,,,,,,f,30,219,fr,r,0,raw,2022-06-07_10h40.38.189,oddball,2022.1.2,59.93576076715277,
5,,,,,0,0,0,1,5,0,5,0,26,0,26,0,,,,,,,,,,,,,,,,,706.1460149004124,None,706.763151100371,707.363133800216,707.346457300242,709.3474902003072,None,1,0.6095650596544147,2.610663059633225,increament,0.6,15,standard,None,100,,,,,,,,f,30,219,fr,r,0,raw,2022-06-07_10h40.38.189,oddball,2022.1.2,59.93576076715277,
5,,,,,0,0,0,1,5,0,5,0,27,0,27,0,,,,,,,,,,,,,,,,,709.3657993003726,None,709.9473040001467,710.5480568003841,710.5313422000036,712.5320733003318,None,1,0.6135260597802699,2.614277259912342,increament,0.6,15,standard,None,100,,,,,,,,f,30,219,fr,r,0,raw,2022-06-07_10h40.38.189,oddball,2022.1.2,59.93576076715277,
5,,,,,0,0,0,1,5,0,5,0,28,0,28,0,,,,,,,,,,,,,,,,,712.5483805001713,None,713.0818900000304,713.6821529003792,713.6657457002439,715.6661325003952,None,1,0.6127210599370301,2.6131018600426614,increament,0.6,15,standard,None,100,,,,,,,,f,30,219,fr,r,0,raw,2022-06-07_10h40.38.189,oddball,2022.1.2,59.93576076715277,
5,,,,,0,0,0,1,5,0,5,0,29,0,29,0,,,,,,,,,,,,,,,,,715.6830066000111,None,716.2830957002006,716.883263300173,716.8671833002008,718.8675077003427,None,1,0.613813959993422,2.614120159763843,increament,0.6,15,standard,None,100,,,,,,,,f,30,219,fr,r,0,raw,2022-06-07_10h40.38.189,oddball,2022.1.2,59.93576076715277,
5,,,,,0,0,0,1,6,0,6,0,0,0,0,0,,,,,,,,,,,,,,,729.7214632001705,None,731.0218119001947,None,731.5724270003848,732.1724110003561,732.1558191999793,734.1564716002904,None,1,0.6124857603572309,2.6131327603943646,decreament,0.6,11,standard,None,100,,718.8848566003144,None,,,,,f,30,219,fr,r,0,raw,2022-06-07_10h40.38.189,oddball,2022.1.2,59.93576076715277,
5,,,,,0,0,0,1,6,0,6,0,1,0,1,0,,,,,,,,,,,,,,,,,734.1732045002282,None,734.8570779003203,735.4572333004326,735.4403393003158,737.4413518002257,None,1,0.6122105596587062,2.613225059583783,decreament,0.6,11,standard,None,100,,,,,,,,f,30,219,fr,r,0,raw,2022-06-07_10h40.38.189,oddball,2022.1.2,59.93576076715277,
5,,,,,0,0,0,1,6,0,6,0,2,0,2,0,,,,,,,,,,,,,,,,,737.4577689999714,None,738.1080110999756,738.7083372999914,738.6916354000568,740.6926645999774,None,1,0.6124737598001957,2.6135709597729146,decreament,0.6,11,standard,None,100,,,,,,,,f,30,219,fr,r,0,raw,2022-06-07_10h40.38.189,oddball,2022.1.2,59.93576076715277,
5,,,,,0,0,0,1,6,0,6,0,3,0,3,0,,,,,,,,,,,,,,,,,740.7089378000237,None,741.4597585001029,742.0596631001681,742.0433260002173,744.0438256002963,None,1,0.6118145599029958,2.6120045599527657,decreament,0.6,11,standard,None,100,,,,,,,,f,30,219,fr,r,0,raw,2022-06-07_10h40.38.189,oddball,2022.1.2,59.93576076715277,
5,,,,,0,0,0,1,6,0,6,0,4,0,4,0,,,,,,,,,,,,,,,,,744.0601864000782,None,744.6105900001712,745.2107408000156,745.1939259003848,747.1948885000311,None,1,0.6119695594534278,2.6130024595186114,decreament,0.6,11,standard,None,100,,,,,,,,f,30,219,fr,r,0,raw,2022-06-07_10h40.38.189,oddball,2022.1.2,59.93576076715277,
5,,,,,0,0,0,1,6,0,6,0,5,0,5,0,,,,,,,,,,,,,,,,,747.211815000046,None,747.9287759000435,748.528884800151,748.5126031003892,750.5130189000629,None,1,0.611518959980458,2.611941060051322,decreament,0.6,11,standard,None,100,,,,,,,,f,30,219,fr,r,0,raw,2022-06-07_10h40.38.189,oddball,2022.1.2,59.93576076715277,
5,,,,,0,0,0,1,6,0,6,0,6,0,6,0,,,,,,,,,,,,,,,,,750.5293845999986,None,751.1296201003715,751.7297986000776,751.7131763002835,753.7143748002127,None,1,0.6125134597532451,2.613769759889692,decreament,0.6,11,standard,None,100,,,,,,,,f,30,219,fr,r,0,raw,2022-06-07_10h40.38.189,oddball,2022.1.2,59.93576076715277,
5,,,,,0,0,0,1,6,0,6,0,7,0,7,0,,,,,,,,,,,,,,,,,753.7309124004096,None,754.3642239002511,754.9643254000694,754.9477850003168,756.948095400352,None,1,0.6128528602421284,2.6131443600170314,decreament,0.6,11,standard,None,100,,,,,,,,f,30,219,fr,r,0,raw,2022-06-07_10h40.38.189,oddball,2022.1.2,59.93576076715277,
5,,,,,0,0,0,1,6,0,6,0,8,0,8,0,,,,,,,,,,,,,,,,,756.9648474999703,None,757.6154745002277,758.098847000394,758.0658837002702,760.0664845001884,None,0,0.4800105602480471,2.480658460408449,decreament,0.48,14,oddball,j,80,,,,,,,,f,30,219,fr,r,0,raw,2022-06-07_10h40.38.189,oddball,2022.1.2,59.93576076715277,
5,,,,,0,0,0,1,6,0,6,0,9,0,9,0,,,,,,,,,,,,,,,,,760.0830879001878,None,760.6667806003243,761.2667843000963,761.2500129002146,763.2510247002356,None,1,0.6131395595148206,2.614209059625864,decreament,0.6,11,standard,None,100,,,,,,,,f,30,219,fr,r,0,raw,2022-06-07_10h40.38.189,oddball,2022.1.2,59.93576076715277,
5,,,,,0,0,0,1,6,0,6,0,10,0,10,0,,,,,,,,,,,,,,,,,763.2678270000033,None,763.884485500399,764.4847896001302,764.4682475002483,766.4683761000633,None,1,0.6105036600492895,2.61059316014871,decreament,0.6,11,standard,None,100,,,,,,,,f,30,219,fr,r,0,raw,2022-06-07_10h40.38.189,oddball,2022.1.2,59.93576076715277,
5,,,,,0,0,0,1,6,0,6,0,11,0,11,0,,,,,,,,,,,,,,,,,766.4851135001518,None,767.1023677000776,767.7028626003303,767.6864504003897,769.6866458002478,None,1,0.6086642597801983,2.6088079595938325,decreament,0.6,11,standard,None,100,,,,,,,,f,30,219,fr,r,0,raw,2022-06-07_10h40.38.189,oddball,2022.1.2,59.93576076715277,
5,,,,,0,0,0,1,6,0,6,0,12,0,12,0,,,,,,,,,,,,,,,,,769.7034560004249,None,770.3204711000435,770.9204462002963,770.9035503002815,772.904774100054,None,1,0.6123957601375878,2.613626359961927,decreament,0.6,11,standard,None,100,,,,,,,,f,30,219,fr,r,0,raw,2022-06-07_10h40.38.189,oddball,2022.1.2,59.93576076715277,
5,,,,,0,0,0,1,6,0,6,0,13,0,13,0,,,,,,,,,,,,,,,,,772.9215261000209,None,773.4721185001545,774.0720607000403,774.0551850004122,776.0556327002123,None,1,0.6094711599871516,2.60987875983119,decreament,0.6,11,standard,None,100,,,,,,,,f,30,219,fr,r,0,raw,2022-06-07_10h40.38.189,oddball,2022.1.2,59.93576076715277,
5,,,,,0,0,0,1,6,0,6,0,14,0,14,0,,,,,,,,,,,,,,,,,776.0725823002867,None,776.7061593001708,777.07262250036,777.0397061002441,779.0406748000532,None,0,0.3636675598099828,2.364509259816259,decreament,0.36,13,oddball,j,60,,,,,,,,f,30,219,fr,r,0,raw,2022-06-07_10h40.38.189,oddball,2022.1.2,59.93576076715277,
5,,,,,0,0,0,1,6,0,6,0,15,0,15,0,,,,,,,,,,,,,,,,,779.0570160001516,None,779.6404030001722,780.2403415003791,780.2238847003318,782.2248834003694,None,1,0.6141819600015879,2.6152637600898743,decreament,0.6,11,standard,None,100,,,,,,,,f,30,219,fr,r,0,raw,2022-06-07_10h40.38.189,oddball,2022.1.2,59.93576076715277,
5,,,,,0,0,0,1,6,0,6,0,16,0,16,0,,,,,,,,,,,,,,,,,782.2418220001273,None,782.8587539000437,783.4583696001209,783.441911900416,785.4429614003748,None,1,0.6121803601272404,2.6133252601139247,decreament,0.6,11,standard,None,100,,,,,,,,f,30,219,fr,r,0,raw,2022-06-07_10h40.38.189,oddball,2022.1.2,59.93576076715277,
5,,,,,0,0,0,1,6,0,6,0,17,0,17,0,,,,,,,,,,,,,,,,,785.4593466003425,None,786.1094928001985,786.7100390000269,786.6934772999957,788.6943116001785,None,1,0.6131280600093305,2.6137469597160816,decreament,0.6,11,standard,None,100,,,,,,,,f,30,219,fr,r,0,raw,2022-06-07_10h40.38.189,oddball,2022.1.2,59.93576076715277,
5,,,,,0,0,0,1,6,0,6,0,18,0,18,0,,,,,,,,,,,,,,,,,788.7108102003112,None,789.3441525003873,789.9445322002284,789.9280226002447,791.9283382003196,None,1,0.6096169599331915,2.60990046011284,decreament,0.6,11,standard,None,100,,,,,,,,f,30,219,fr,r,0,raw,2022-06-07_10h40.38.189,oddball,2022.1.2,59.93576076715277,
5,,,,,0,0,0,1,6,0,6,0,19,0,19,0,,,,,,,,,,,,,,,,,791.9449749002233,None,792.6289747003466,793.2290615001693,793.2123174001463,795.2130607003346,None,1,0.6126259597949684,2.613358659669757,decreament,0.6,11,standard,None,100,,,,,,,,f,30,219,fr,r,0,raw,2022-06-07_10h40.38.189,oddball,2022.1.2,59.93576076715277,
5,,,,,0,0,0,1,6,0,6,0,20,0,20,0,,,,,,,,,,,,,,,,,795.2300015999936,None,795.7636273000389,796.3637574003078,796.3467842000537,798.3479466000572,None,1,0.6117177596315742,2.6129480595700443,decreament,0.6,11,standard,None,100,,,,,,,,f,30,219,fr,r,0,raw,2022-06-07_10h40.38.189,oddball,2022.1.2,59.93576076715277,
5,,,,,0,0,0,1,6,0,6,0,21,0,21,0,,,,,,,,,,,,,,,,,798.3643676000647,None,798.9978645001538,799.5978364003822,799.5814981004223,801.5821299999952,None,1,0.6124081602320075,2.6130612599663436,decreament,0.6,11,standard,None,100,,,,,,,,f,30,219,fr,r,0,raw,2022-06-07_10h40.38.189,oddball,2022.1.2,59.93576076715277,
5,,,,,0,0,0,1,6,0,6,0,22,0,22,0,,,,,,,,,,,,,,,,,801.5987348002382,None,802.2157968999818,802.8159787002951,802.8000186001882,804.7997043002397,None,1,0.6133807599544525,2.6129135601222515,decreament,0.6,11,standard,None,100,,,,,,,,f,30,219,fr,r,0,raw,2022-06-07_10h40.38.189,oddball,2022.1.2,59.93576076715277,
5,,,,,0,0,0,1,6,0,6,0,23,0,23,0,,,,,,,,,,,,,,,,,804.8165504001081,None,805.5000514001586,806.1005461001769,806.083735700231,808.0846083001234,None,1,0.6135021601803601,2.614374860189855,decreament,0.6,11,standard,None,100,,,,,,,,f,30,219,fr,r,0,raw,2022-06-07_10h40.38.189,oddball,2022.1.2,59.93576076715277,
5,,,,,0,0,0,1,6,0,6,0,24,0,24,0,,,,,,,,,,,,,,,,,808.1014786004089,None,808.7348497002386,808.9848309000954,808.9520809003152,810.9521651002578,j,1,0.24532226007431746,2.2453385600820184,decreament,0.24,12,oddball,j,40,0.6366624999791384,,,,,,,f,30,219,fr,r,0,raw,2022-06-07_10h40.38.189,oddball,2022.1.2,59.93576076715277,
5,,,,,0,0,0,1,6,0,6,0,25,0,25,0,,,,,,,,,,,,,,,,,810.9692001002841,None,811.5358927003108,812.1361929001287,812.1194724002853,814.1203348999843,None,1,0.6143124597147107,2.6151679595932364,decreament,0.6,11,standard,None,100,,,,,,,,f,30,219,fr,r,0,raw,2022-06-07_10h40.38.189,oddball,2022.1.2,59.93576076715277,
5,,,,,0,0,0,1,6,0,6,0,26,0,26,0,,,,,,,,,,,,,,,,,814.1368833002634,None,814.8537692003883,815.4539442001842,815.4375095004216,817.4380530002527,None,1,0.6128444597125053,2.613377559464425,decreament,0.6,11,standard,None,100,,,,,,,,f,30,219,fr,r,0,raw,2022-06-07_10h40.38.189,oddball,2022.1.2,59.93576076715277,
5,,,,,0,0,0,1,6,0,6,0,27,0,27,0,,,,,,,,,,,,,,,,,817.4548514001071,None,818.0048817000352,818.6053240001202,818.5894397003576,820.5894791004248,None,1,0.6137789594940841,2.61385705973953,decreament,0.6,11,standard,None,100,,,,,,,,f,30,219,fr,r,0,raw,2022-06-07_10h40.38.189,oddball,2022.1.2,59.93576076715277,
5,,,,,0,0,0,1,6,0,6,0,28,0,28,0,,,,,,,,,,,,,,,,,820.6062638000585,None,821.2061402001418,821.8063308000565,821.789830100257,823.7910309000872,None,1,0.6126779597252607,2.6138767595402896,decreament,0.6,11,standard,None,100,,,,,,,,f,30,219,fr,r,0,raw,2022-06-07_10h40.38.189,oddball,2022.1.2,59.93576076715277,
5,,,,,0,0,0,1,6,0,6,0,29,0,29,0,,,,,,,,,,,,,,,,,823.8072361000814,None,824.4907271000557,825.0910450001247,825.074585000053,827.0749040003866,None,1,0.6123502599075437,2.6126235597766936,decreament,0.6,11,standard,None,100,,,,,,,,f,30,219,fr,r,0,raw,2022-06-07_10h40.38.189,oddball,2022.1.2,59.93576076715277,
5,,,,,0,0,0,1,7,0,7,0,0,0,0,0,,,,,,,,,,,,,,,844.3694862001576,None,850.500958900433,None,851.2341248001903,851.8346699001268,851.8181642000563,853.8185413000174,None,1,0.6126457597129047,2.6129211597144604,increament,0.6,15,standard,None,100,,827.0923083000816,None,,,,,f,30,219,fr,r,0,raw,2022-06-07_10h40.38.189,oddball,2022.1.2,59.93576076715277,
5,,,,,0,0,0,1,7,0,7,0,1,0,1,0,,,,,,,,,,,,,,,,,853.8351336000487,None,854.535741600208,855.1357554001734,855.1189751001075,857.1199551001191,None,1,0.6116303601302207,2.6126548601314425,increament,0.6,15,standard,None,100,,,,,,,,f,30,219,fr,r,0,raw,2022-06-07_10h40.38.189,oddball,2022.1.2,59.93576076715277,
5,,,,,0,0,0,1,7,0,7,0,2,0,2,0,,,,,,,,,,,,,,,,,857.1367538003251,None,857.8701365999877,858.4707131003961,858.4540811004117,860.4543708004057,None,1,0.6135854599997401,2.6138257598504424,increament,0.6,15,standard,None,100,,,,,,,,f,30,219,fr,r,0,raw,2022-06-07_10h40.38.189,oddball,2022.1.2,59.93576076715277,
5,,,,,0,0,0,1,7,0,7,0,3,0,3,0,,,,,,,,,,,,,,,,,860.4711859002709,None,861.0381459002383,861.6381230000407,861.6215959000401,863.6225775000639,None,1,0.6114140599966049,2.612464759964496,increament,0.6,15,standard,None,100,,,,,,,,f,30,219,fr,r,0,raw,2022-06-07_10h40.38.189,oddball,2022.1.2,59.93576076715277,
5,,,,,0,0,0,1,7,0,7,0,4,0,4,0,,,,,,,,,,,,,,,,,863.6388391000219,None,864.2226245002821,864.8225581003353,864.8059130003676,866.807218900416,None,1,0.6121359597891569,2.6135012595914304,increament,0.6,15,standard,None,100,,,,,,,,f,30,219,fr,r,0,raw,2022-06-07_10h40.38.189,oddball,2022.1.2,59.93576076715277,
5,,,,,0,0,0,1,7,0,7,0,5,0,5,0,,,,,,,,,,,,,,,,,866.8233894002624,None,867.4572396003641,868.0573484003544,868.0406307000667,870.0416769003496,None,1,0.6120284595526755,2.613129459321499,increament,0.6,15,standard,None,100,,,,,,,,f,30,219,fr,r,0,raw,2022-06-07_10h40.38.189,oddball,2022.1.2,59.93576076715277,
5,,,,,0,0,0,1,7,0,7,0,6,0,6,0,,,,,,,,,,,,,,,,,870.0589113002643,None,870.624864500016,871.225577400066,871.209031900391,873.209158200305,None,1,0.6128761600703001,2.6128985597752035,increament,0.6,15,standard,None,100,,,,,,,,f,30,219,fr,r,0,raw,2022-06-07_10h40.38.189,oddball,2022.1.2,59.93576076715277,
5,,,,,0,0,0,1,7,0,7,0,7,0,7,0,,,,,,,,,,,,,,,,,873.2259212001227,None,873.7927748002112,874.3932758001611,874.3764981999993,876.3777250000276,None,1,0.6136402594856918,2.6148883597925305,increament,0.6,15,standard,None,100,,,,,,,,f,30,219,fr,r,0,raw,2022-06-07_10h40.38.189,oddball,2022.1.2,59.93576076715277,
5,,,,,0,0,0,1,7,0,7,0,8,0,8,0,,,,,,,,,,,,,,,,,876.3939200001769,None,877.0776677001268,877.6778277000412,877.6614999002777,879.6618071002886,None,1,0.6103716599754989,2.610666459891945,increament,0.6,15,standard,None,100,,,,,,,,f,30,219,fr,r,0,raw,2022-06-07_10h40.38.189,oddball,2022.1.2,59.93576076715277,
5,,,,,0,0,0,1,7,0,7,0,9,0,9,0,,,,,,,,,,,,,,,,,879.6795625002123,None,880.2287447000854,880.8289816002361,880.8124965000898,882.812706600409,None,1,0.6107058599591255,2.6108656600117683,increament,0.6,15,standard,None,100,,,,,,,,f,30,219,fr,r,0,raw,2022-06-07_10h40.38.189,oddball,2022.1.2,59.93576076715277,
5,,,,,0,0,0,1,7,0,7,0,10,0,10,0,,,,,,,,,,,,,,,,,882.8296732003801,None,883.4632805003785,884.0635263002478,884.0472726002336,886.047530699987,None,1,0.6130331601016223,2.6132396599277854,increament,0.6,15,standard,None,100,,,,,,,,f,30,219,fr,r,0,raw,2022-06-07_10h40.38.189,oddball,2022.1.2,59.93576076715277,
5,,,,,0,0,0,1,7,0,7,0,11,0,11,0,,,,,,,,,,,,,,,,,886.0642593000084,None,886.748191000428,887.3475612001494,887.330947900191,889.332199100405,None,1,0.608910359442234,2.610269359778613,increament,0.6,15,standard,None,100,,,,,,,,f,30,219,fr,r,0,raw,2022-06-07_10h40.38.189,oddball,2022.1.2,59.93576076715277,
5,,,,,0,0,0,1,7,0,7,0,12,0,12,0,,,,,,,,,,,,,,,,,889.3488243003376,None,890.049064300023,890.8992892000824,890.866143300198,892.8664442002773,j,1,0.8458866593427956,2.84614885924384,increament,0.84,17,oddball,j,140,0.48262999998405576,,,,,,,f,30,219,fr,r,0,raw,2022-06-07_10h40.38.189,oddball,2022.1.2,59.93576076715277,
5,,,,,0,0,0,1,7,0,7,0,13,0,13,0,,,,,,,,,,,,,,,,,892.8832763000391,None,893.4672061000019,894.0672644004226,894.0505940001458,896.0510848001577,None,1,0.6116334600374103,2.612114959862083,increament,0.6,15,standard,None,100,,,,,,,,f,30,219,fr,r,0,raw,2022-06-07_10h40.38.189,oddball,2022.1.2,59.93576076715277,
5,,,,,0,0,0,1,7,0,7,0,14,0,14,0,,,,,,,,,,,,,,,,,896.0678831003606,None,896.834863900207,897.4354392001405,897.4185601002537,899.4191785003059,None,1,0.6130855595692992,2.6136763598769903,increament,0.6,15,standard,None,100,,,,,,,,f,30,219,fr,r,0,raw,2022-06-07_10h40.38.189,oddball,2022.1.2,59.93576076715277,
5,,,,,0,0,0,1,7,0,7,0,15,0,15,0,,,,,,,,,,,,,,,,,899.4358055000193,None,900.035971400328,900.6361911999993,900.6196698001586,902.6204931000248,None,1,0.6130737597122788,2.6139513598755,increament,0.6,15,standard,None,100,,,,,,,,f,30,219,fr,r,0,raw,2022-06-07_10h40.38.189,oddball,2022.1.2,59.93576076715277,
5,,,,,0,0,0,1,7,0,7,0,16,0,16,0,,,,,,,,,,,,,,,,,902.6373244002461,None,903.2873621000908,903.88742930023,903.8710895003751,905.871522300411,None,1,0.6107672597281635,2.611196859739721,increament,0.6,15,standard,None,100,,,,,,,,f,30,219,fr,r,0,raw,2022-06-07_10h40.38.189,oddball,2022.1.2,59.93576076715277,
5,,,,,0,0,0,1,7,0,7,0,17,0,17,0,,,,,,,,,,,,,,,,,905.8883140999824,None,906.4385211002082,907.0389910000376,907.02267570002,909.0227683000267,None,1,0.6134582599624991,2.613491259980947,increament,0.6,15,standard,None,100,,,,,,,,f,30,219,fr,r,0,raw,2022-06-07_10h40.38.189,oddball,2022.1.2,59.93576076715277,
5,,,,,0,0,0,1,7,0,7,0,18,0,18,0,,,,,,,,,,,,,,,,,909.0396440001205,None,909.6232182001695,910.2237692000344,910.2070059999824,912.2072494002059,None,1,0.6112248599529266,2.611392759718001,increament,0.6,15,standard,None,100,,,,,,,,f,30,219,fr,r,0,raw,2022-06-07_10h40.38.189,oddball,2022.1.2,59.93576076715277,
5,,,,,0,0,0,1,7,0,7,0,19,0,19,0,,,,,,,,,,,,,,,,,912.2239161003381,None,913.0241922000423,913.6246784999967,913.6078223004006,915.6088330000639,None,1,0.6124309594742954,2.613482059445232,increament,0.6,15,standard,None,100,,,,,,,,f,30,219,fr,r,0,raw,2022-06-07_10h40.38.189,oddball,2022.1.2,59.93576076715277,
5,,,,,0,0,0,1,7,0,7,0,20,0,20,0,,,,,,,,,,,,,,,,,915.6257322002202,None,916.2590742004104,916.8590916004032,916.8424937999807,918.8430996001698,None,1,0.6112903598695993,2.6119052600115538,increament,0.6,15,standard,None,100,,,,,,,,f,30,219,fr,r,0,raw,2022-06-07_10h40.38.189,oddball,2022.1.2,59.93576076715277,
5,,,,,0,0,0,1,7,0,7,0,21,0,21,0,,,,,,,,,,,,,,,,,918.8599043004215,None,919.5937117002904,920.5606223000214,920.5270752999932,922.5280485004187,None,0,0.9624792598187923,2.963426460046321,increament,0.96,18,oddball,j,160,,,,,,,,f,30,219,fr,r,0,raw,2022-06-07_10h40.38.189,oddball,2022.1.2,59.93576076715277,
5,,,,,0,0,0,1,7,0,7,0,22,0,22,0,,,,,,,,,,,,,,,,,922.5446012001485,None,923.1947528002784,923.7948262002319,923.7783359000459,925.7795256003737,None,1,0.613098360132426,2.6143450597301126,increament,0.6,15,standard,None,100,,,,,,,,f,30,219,fr,r,0,raw,2022-06-07_10h40.38.189,oddball,2022.1.2,59.93576076715277,
5,,,,,0,0,0,1,7,0,7,0,23,0,23,0,,,,,,,,,,,,,,,,,925.795964400284,None,926.5627655000426,927.1630940004252,927.146323800087,929.1472618002445,None,1,0.6121691605076194,2.613164260517806,increament,0.6,15,standard,None,100,,,,,,,,f,30,219,fr,r,0,raw,2022-06-07_10h40.38.189,oddball,2022.1.2,59.93576076715277,
5,,,,,0,0,0,1,7,0,7,0,24,0,24,0,,,,,,,,,,,,,,,,,929.164825099986,None,929.947375100106,930.5476594003849,930.5313558001071,932.5320083000697,None,1,0.6139365597628057,2.6146144596859813,increament,0.6,15,standard,None,100,,,,,,,,f,30,219,fr,r,0,raw,2022-06-07_10h40.38.189,oddball,2022.1.2,59.93576076715277,
5,,,,,0,0,0,1,7,0,7,0,25,0,25,0,,,,,,,,,,,,,,,,,932.5485714003444,None,933.1152717000805,933.7158266003244,933.6988661000505,935.6993850003928,None,1,0.6126655600965023,2.6131870597600937,increament,0.6,15,standard,None,100,,,,,,,,f,30,219,fr,r,0,raw,2022-06-07_10h40.38.189,oddball,2022.1.2,59.93576076715277,
5,,,,,0,0,0,1,7,0,7,0,26,0,26,0,,,,,,,,,,,,,,,,,935.7160762003623,None,936.4831111002713,937.0833824002184,937.0667669000104,939.0675671002828,None,1,0.6122289597988129,2.6130661596544087,increament,0.6,15,standard,None,100,,,,,,,,f,30,219,fr,r,0,raw,2022-06-07_10h40.38.189,oddball,2022.1.2,59.93576076715277,
5,,,,,0,0,0,1,7,0,7,0,27,0,27,0,,,,,,,,,,,,,,,,,939.0845884000883,None,939.7344703003764,940.3344310000539,940.3180085001513,942.3182117003016,None,1,0.6122935605235398,2.6124745602719486,increament,0.6,15,standard,None,100,,,,,,,,f,30,219,fr,r,0,raw,2022-06-07_10h40.38.189,oddball,2022.1.2,59.93576076715277,
5,,,,,0,0,0,1,7,0,7,0,28,0,28,0,,,,,,,,,,,,,,,,,942.3349731001072,None,942.9859564001672,943.7195551004261,943.6860228003934,945.6867019003257,None,0,0.7282026596367359,2.728848459664732,increament,0.72,16,oddball,j,120,,,,,,,,f,30,219,fr,r,0,raw,2022-06-07_10h40.38.189,oddball,2022.1.2,59.93576076715277,
5,,,,,0,0,0,1,7,0,7,0,29,0,29,0,,,,,,,,,,,,,,,,,945.7038561003283,None,946.2873884001747,946.8872995004058,946.8705270001665,948.8715774002485,None,1,0.6119148600846529,2.61306275986135,increament,0.6,15,standard,None,100,,,,,,,,f,30,219,fr,r,0,raw,2022-06-07_10h40.38.189,oddball,2022.1.2,59.93576076715277,
5,,,,,0,0,0,1,8,0,8,0,0,0,0,0,,,,,,,,,,,,,,,964.6303677000105,None,968.3286227001809,None,968.9454842000268,969.5455852001905,969.5288407001644,971.5300984000787,None,1,0.6129488600417972,2.6142361597158015,decreament,0.6,11,standard,None,100,,948.8880511000752,None,,,,,f,30,219,fr,r,0,raw,2022-06-07_10h40.38.189,oddball,2022.1.2,59.93576076715277,
5,,,,,0,0,0,1,8,0,8,0,1,0,1,0,,,,,,,,,,,,,,,,,971.5465824999847,None,972.2803095001727,972.8803350999951,972.8637088001706,974.8648141999729,None,1,0.6096647600643337,2.6108297603204846,decreament,0.6,11,standard,None,100,,,,,,,,f,30,219,fr,r,0,raw,2022-06-07_10h40.38.189,oddball,2022.1.2,59.93576076715277,
5,,,,,0,0,0,1,8,0,8,0,2,0,2,0,,,,,,,,,,,,,,,,,974.8810986001045,None,975.464611500036,976.0647811000235,976.0488088000566,978.0487715001218,None,1,0.6138448598794639,2.613731559831649,decreament,0.6,11,standard,None,100,,,,,,,,f,30,219,fr,r,0,raw,2022-06-07_10h40.38.189,oddball,2022.1.2,59.93576076715277,
5,,,,,0,0,0,1,8,0,8,0,3,0,3,0,,,,,,,,,,,,,,,,,978.0656554000452,None,978.6827248004265,979.2831899002194,979.2661896999925,981.2667155000381,None,1,0.6096535599790514,2.6101575596258044,decreament,0.6,11,standard,None,100,,,,,,,,f,30,219,fr,r,0,raw,2022-06-07_10h40.38.189,oddball,2022.1.2,59.93576076715277,
5,,,,,0,0,0,1,8,0,8,0,4,0,4,0,,,,,,,,,,,,,,,,,981.2835403000936,None,981.8339558001608,982.433810800314,982.4173052003607,984.4183133002371,None,1,0.6109025599434972,2.611956960055977,decreament,0.6,11,standard,None,100,,,,,,,,f,30,219,fr,r,0,raw,2022-06-07_10h40.38.189,oddball,2022.1.2,59.93576076715277,
5,,,,,0,0,0,1,8,0,8,0,5,0,5,0,,,,,,,,,,,,,,,,,984.4348508003168,None,985.135374000296,985.7349160001613,985.7184568000957,987.7195179001428,None,1,0.6124594598077238,2.613579759839922,decreament,0.6,11,standard,None,100,,,,,,,,f,30,219,fr,r,0,raw,2022-06-07_10h40.38.189,oddball,2022.1.2,59.93576076715277,
5,,,,,0,0,0,1,8,0,8,0,6,0,6,0,,,,,,,,,,,,,,,,,987.7360434001312,None,988.3863319000229,988.9864819999784,988.970118700061,990.9708763002418,None,1,0.610774059779942,2.611459159757942,decreament,0.6,11,standard,None,100,,,,,,,,f,30,219,fr,r,0,raw,2022-06-07_10h40.38.189,oddball,2022.1.2,59.93576076715277,
5,,,,,0,0,0,1,8,0,8,0,7,0,7,0,,,,,,,,,,,,,,,,,990.9871748001315,None,991.5874300003052,992.1876223003492,992.1714599002153,994.171940700151,None,1,0.6130204601213336,2.613496560137719,decreament,0.6,11,standard,None,100,,,,,,,,f,30,219,fr,r,0,raw,2022-06-07_10h40.38.189,oddball,2022.1.2,59.93576076715277,
5,,,,,0,0,0,1,8,0,8,0,8,0,8,0,,,,,,,,,,,,,,,,,994.1883531003259,None,994.8721564002335,995.4721469003707,995.4554904000834,997.4563780003227,None,1,0.6128723598085344,2.613813159521669,decreament,0.6,11,standard,None,100,,,,,,,,f,30,219,fr,r,0,raw,2022-06-07_10h40.38.189,oddball,2022.1.2,59.93576076715277,
5,,,,,0,0,0,1,8,0,8,0,9,0,9,0,,,,,,,,,,,,,,,,,997.4729965999722,None,998.3398367003538,998.9400368002243,998.9237010003999,1000.924145300407,None,1,0.6136202597990632,2.6140869595110416,decreament,0.6,11,standard,None,100,,,,,,,,f,30,219,fr,r,0,raw,2022-06-07_10h40.38.189,oddball,2022.1.2,59.93576076715277,
5,,,,,0,0,0,1,8,0,8,0,10,0,10,0,,,,,,,,,,,,,,,,,1000.9409056003205,None,1001.5078418003395,1002.108281600289,1002.0913389003836,1004.0926372003742,None,1,0.6118906596675515,2.6132422597147524,decreament,0.6,11,standard,None,100,,,,,,,,f,30,219,fr,r,0,raw,2022-06-07_10h40.38.189,oddball,2022.1.2,59.93576076715277,
5,,,,,0,0,0,1,8,0,8,0,11,0,11,0,,,,,,,,,,,,,,,,,1004.1096614003181,None,1004.759016700089,1005.3592875003815,1005.3424881002866,1007.343525600154,j,0,0.6124018598347902,2.6134972600266337,decreament,0.6,11,standard,None,100,0.6372401998378336,,,,,,,f,30,219,fr,r,0,raw,2022-06-07_10h40.38.189,oddball,2022.1.2,59.93576076715277,
5,,,,,0,0,0,1,8,0,8,0,12,0,12,0,,,,,,,,,,,,,,,,,1007.3600656003691,None,1007.9934138003737,1008.5937291001901,1008.5773199000396,1010.5783868003637,None,1,0.6129138600081205,2.6140123601071537,decreament,0.6,11,standard,None,100,,,,,,,,f,30,219,fr,r,0,raw,2022-06-07_10h40.38.189,oddball,2022.1.2,59.93576076715277,
5,,,,,0,0,0,1,8,0,8,0,13,0,13,0,,,,,,,,,,,,,,,,,1010.5954686002806,None,1011.1948482003063,1011.7950617000461,1011.778500400018,1013.7795430002734,None,1,0.6125516598112881,2.6136504597961903,decreament,0.6,11,standard,None,100,,,,,,,,f,30,219,fr,r,0,raw,2022-06-07_10h40.38.189,oddball,2022.1.2,59.93576076715277,
5,,,,,0,0,0,1,8,0,8,0,14,0,14,0,,,,,,,,,,,,,,,,,1013.7956421002746,None,1014.5461129001342,1015.1467298003845,1015.1300292001106,1017.1304872003384,None,1,0.6123169595375657,2.612653859425336,decreament,0.6,11,standard,None,100,,,,,,,,f,30,219,fr,r,0,raw,2022-06-07_10h40.38.189,oddball,2022.1.2,59.93576076715277,
5,,,,,0,0,0,1,8,0,8,0,15,0,15,0,,,,,,,,,,,,,,,,,1017.147016200237,None,1017.7305547003634,1018.3311747000553,1018.3142111003399,1020.3152057002299,None,1,0.6131323603913188,2.6142023601569235,decreament,0.6,11,standard,None,100,,,,,,,,f,30,219,fr,r,0,raw,2022-06-07_10h40.38.189,oddball,2022.1.2,59.93576076715277,
5,,,,,0,0,0,1,8,0,8,0,16,0,16,0,,,,,,,,,,,,,,,,,1020.3318971004337,None,1020.9651373000816,1021.3320435001515,1021.298490000423,1023.2997041000053,None,0,0.3636952596716583,2.364965559914708,decreament,0.36,13,oddball,j,60,,,,,,,,f,30,219,fr,r,0,raw,2022-06-07_10h40.38.189,oddball,2022.1.2,59.93576076715277,
5,,,,,0,0,0,1,8,0,8,0,17,0,17,0,,,,,,,,,,,,,,,,,1023.3161665000953,None,1023.999600100331,1024.5997104002163,1024.5830963002518,1026.5839738002978,None,1,0.6146827600896358,2.6155887600034475,decreament,0.6,11,standard,None,100,,,,,,,,f,30,219,fr,r,0,raw,2022-06-07_10h40.38.189,oddball,2022.1.2,59.93576076715277,
5,,,,,0,0,0,1,8,0,8,0,18,0,18,0,,,,,,,,,,,,,,,,,1026.6007545003667,None,1027.3009011000395,1027.9014649000019,1027.8846333003603,1029.885193400085,None,1,0.6126156598329544,2.6131755597889423,decreament,0.6,11,standard,None,100,,,,,,,,f,30,219,fr,r,0,raw,2022-06-07_10h40.38.189,oddball,2022.1.2,59.93576076715277,
5,,,,,0,0,0,1,8,0,8,0,19,0,19,0,,,,,,,,,,,,,,,,,1029.9018657002598,None,1030.4021317004226,1031.0021567000076,1030.985840300098,1032.986254400108,None,1,0.6107343598268926,2.61114735994488,decreament,0.6,11,standard,None,100,,,,,,,,f,30,219,fr,r,0,raw,2022-06-07_10h40.38.189,oddball,2022.1.2,59.93576076715277,
5,,,,,0,0,0,1,8,0,8,0,20,0,20,0,,,,,,,,,,,,,,,,,1033.0030509000644,None,1033.6034870999865,1034.2033302001655,1034.186888600234,1036.187595100142,None,1,0.6121579599566758,2.612905359826982,decreament,0.6,11,standard,None,100,,,,,,,,f,30,219,fr,r,0,raw,2022-06-07_10h40.38.189,oddball,2022.1.2,59.93576076715277,
5,,,,,0,0,0,1,8,0,8,0,21,0,21,0,,,,,,,,,,,,,,,,,1036.2042882000096,None,1036.8213949003257,1037.0710194003768,1037.0378889003769,1039.0387401999906,None,0,0.24440325982868671,2.245318059809506,decreament,0.24,12,oddball,j,40,,,,,,,,f,30,219,fr,r,0,raw,2022-06-07_10h40.38.189,oddball,2022.1.2,59.93576076715277,
5,,,,,0,0,0,1,8,0,8,0,22,0,22,0,,,,,,,,,,,,,,,,,1039.0554278003983,None,1039.622239700053,1040.2224548002705,1040.2059126002714,1042.2063848003745,None,1,0.6124571599066257,2.6128915594890714,decreament,0.6,11,standard,None,100,,,,,,,,f,30,219,fr,r,0,raw,2022-06-07_10h40.38.189,oddball,2022.1.2,59.93576076715277,
5,,,,,0,0,0,1,8,0,8,0,23,0,23,0,,,,,,,,,,,,,,,,,1042.2229657000862,None,1042.9068897003308,1043.506952300202,1043.4903324004263,1045.491025000345,None,1,0.6136170597746968,2.614334259647876,decreament,0.6,11,standard,None,100,,,,,,,,f,30,219,fr,r,0,raw,2022-06-07_10h40.38.189,oddball,2022.1.2,59.93576076715277,
5,,,,,0,0,0,1,8,0,8,0,24,0,24,0,,,,,,,,,,,,,,,,,1045.5079695000313,None,1046.1581667000428,1046.7582198004238,1046.7418347001076,1048.7423628000543,None,1,0.6124297599308193,2.6129400599747896,decreament,0.6,11,standard,None,100,,,,,,,,f,30,219,fr,r,0,raw,2022-06-07_10h40.38.189,oddball,2022.1.2,59.93576076715277,
5,,,,,0,0,0,1,8,0,8,0,25,0,25,0,,,,,,,,,,,,,,,,,1048.758873200044,None,1049.3929887004197,1049.9928422002122,1049.9763346002437,1051.9771898002364,None,1,0.6118399598635733,2.6127252597361803,decreament,0.6,11,standard,None,100,,,,,,,,f,30,219,fr,r,0,raw,2022-06-07_10h40.38.189,oddball,2022.1.2,59.93576076715277,
5,,,,,0,0,0,1,8,0,8,0,26,0,26,0,,,,,,,,,,,,,,,,,1051.9937511002645,None,1052.5270454003476,1053.1275463001803,1053.1108995000832,1055.1114409002475,None,1,0.6142250597476959,2.6147884600795805,decreament,0.6,11,standard,None,100,,,,,,,,f,30,219,fr,r,0,raw,2022-06-07_10h40.38.189,oddball,2022.1.2,59.93576076715277,
5,,,,,0,0,0,1,8,0,8,0,27,0,27,0,,,,,,,,,,,,,,,,,1055.1280787000433,None,1055.9118355000392,1056.5116554000415,1056.4950764002278,1058.4960109000094,None,1,0.6125465598888695,2.6134660597890615,decreament,0.6,11,standard,None,100,,,,,,,,f,30,219,fr,r,0,raw,2022-06-07_10h40.38.189,oddball,2022.1.2,59.93576076715277,
5,,,,,0,0,0,1,8,0,8,0,28,0,28,0,,,,,,,,,,,,,,,,,1058.5127786002122,None,1059.1133458004333,1059.7131613004021,1059.6966417999938,1061.6979302000254,None,1,0.6127949599176645,2.6141677601262927,decreament,0.6,11,standard,None,100,,,,,,,,f,30,219,fr,r,0,raw,2022-06-07_10h40.38.189,oddball,2022.1.2,59.93576076715277,
5,,,,,0,0,0,1,8,0,8,0,29,0,29,0,,,,,,,,,,,,,,,,,1061.714789800346,None,1062.2648748001084,1062.7477041003294,1062.7312596002594,1064.731836500112,None,0,0.49142786022275686,2.4920343603007495,decreament,0.48,14,oddball,j,80,,,,,,,,f,30,219,fr,r,0,raw,2022-06-07_10h40.38.189,oddball,2022.1.2,59.93576076715277,
5,,,,,0,0,0,1,9,0,9,0,0,0,0,0,,,,,,,,,,,,,,,1069.8189036003314,None,1073.4019282003865,None,1074.0355181000195,1074.6355459000915,1074.618808500003,1076.619508500211,None,1,0.6119285598397255,2.6126236598938704,increament,0.6,15,standard,None,100,,1064.7494530002587,None,,,,,f,30,219,fr,r,0,raw,2022-06-07_10h40.38.189,oddball,2022.1.2,59.93576076715277,
5,,,,,0,0,0,1,9,0,9,0,1,0,1,0,,,,,,,,,,,,,,,,,1076.6363490000367,None,1077.3699114001356,1077.9699589000084,1077.9534801002592,1079.9543401002884,None,1,0.610703959595412,2.6115874592214823,increament,0.6,15,standard,None,100,,,,,,,,f,30,219,fr,r,0,raw,2022-06-07_10h40.38.189,oddball,2022.1.2,59.93576076715277,
5,,,,,0,0,0,1,9,0,9,0,2,0,2,0,,,,,,,,,,,,,,,,,1079.970948799979,None,1080.7714202003554,1081.3718193001114,1081.354847700335,1083.355526600033,None,1,0.6117798592895269,2.6124610593542457,increament,0.6,15,standard,None,100,,,,,,,,f,30,219,fr,r,0,raw,2022-06-07_10h40.38.189,oddball,2022.1.2,59.93576076715277,
5,,,,,0,0,0,1,9,0,9,0,3,0,3,0,,,,,,,,,,,,,,,,,1083.372316800058,None,1083.9225706001744,1084.5225840001367,1084.5059609003365,1086.5067853000946,None,1,0.6113837594166398,2.6122077596373856,increament,0.6,15,standard,None,100,,,,,,,,f,30,219,fr,r,0,raw,2022-06-07_10h40.38.189,oddball,2022.1.2,59.93576076715277,
5,,,,,0,0,0,1,9,0,9,0,4,0,4,0,,,,,,,,,,,,,,,,,1086.5232935003005,None,1087.14061280014,1087.7406888999976,1087.72400200041,1089.7244800003245,None,1,0.6114320596680045,2.611861960031092,increament,0.6,15,standard,None,100,,,,,,,,f,30,219,fr,r,0,raw,2022-06-07_10h40.38.189,oddball,2022.1.2,59.93576076715277,
5,,,,,0,0,0,1,9,0,9,0,5,0,5,0,,,,,,,,,,,,,,,,,1089.7414359003305,None,1090.3415021002293,1090.9417082001455,1090.9252136000432,1092.925621200353,None,1,0.6120507600717247,2.612450459972024,increament,0.6,15,standard,None,100,,,,,,,,f,30,219,fr,r,0,raw,2022-06-07_10h40.38.189,oddball,2022.1.2,59.93576076715277,
5,,,,,0,0,0,1,9,0,9,0,6,0,6,0,,,,,,,,,,,,,,,,,1092.9429511004128,None,1093.6427627000958,1094.2429625000805,1094.226374400314,1096.227300000377,None,1,0.611228359863162,2.6121882596053183,increament,0.6,15,standard,None,100,,,,,,,,f,30,219,fr,r,0,raw,2022-06-07_10h40.38.189,oddball,2022.1.2,59.93576076715277,
5,,,,,0,0,0,1,9,0,9,0,7,0,7,0,,,,,,,,,,,,,,,,,1096.2437524003908,None,1096.8942003999837,1097.4937854004093,1097.4772559003904,1099.478096500039,None,1,0.6115597598254681,2.612408559769392,increament,0.6,15,standard,None,100,,,,,,,,f,30,219,fr,r,0,raw,2022-06-07_10h40.38.189,oddball,2022.1.2,59.93576076715277,
5,,,,,0,0,0,1,9,0,9,0,8,0,8,0,,,,,,,,,,,,,,,,,1099.49506580038,None,1100.0784758999944,1100.6785465003923,1100.6620754003525,1102.6627458999865,None,1,0.6129041593521833,2.613589659333229,increament,0.6,15,standard,None,100,,,,,,,,f,30,219,fr,r,0,raw,2022-06-07_10h40.38.189,oddball,2022.1.2,59.93576076715277,
5,,,,,0,0,0,1,9,0,9,0,9,0,9,0,,,,,,,,,,,,,,,,,1102.6795922000892,None,1103.3128988002427,1103.9131964002736,1103.897278400138,1105.8973585003987,None,1,0.6140276598744094,2.6140682599507272,increament,0.6,15,standard,None,100,,,,,,,,f,30,219,fr,r,0,raw,2022-06-07_10h40.38.189,oddball,2022.1.2,59.93576076715277,
5,,,,,0,0,0,1,9,0,9,0,10,0,10,0,,,,,,,,,,,,,,,,,1105.9142066002823,None,1106.6310172001831,1107.2310802000575,1107.2147091003135,1109.2152809002437,None,1,0.6135272597894073,2.6140999598428607,increament,0.6,15,standard,None,100,,,,,,,,f,30,219,fr,r,0,raw,2022-06-07_10h40.38.189,oddball,2022.1.2,59.93576076715277,
5,,,,,0,0,0,1,9,0,9,0,11,0,11,0,,,,,,,,,,,,,,,,,1109.2321707000956,None,1109.9993208004162,1110.5989960003644,1110.582375000231,1112.5832361001521,None,1,0.612216460518539,2.6130968602374196,increament,0.6,15,standard,None,100,,,,,,,,f,30,219,fr,r,0,raw,2022-06-07_10h40.38.189,oddball,2022.1.2,59.93576076715277,
5,,,,,0,0,0,1,9,0,9,0,12,0,12,0,,,,,,,,,,,,,,,,,1112.599871800281,None,1113.3166706999764,1113.91690450022,1113.9006473002955,1115.9012305000797,None,1,0.61340615991503,2.614042959641665,increament,0.6,15,standard,None,100,,,,,,,,f,30,219,fr,r,0,raw,2022-06-07_10h40.38.189,oddball,2022.1.2,59.93576076715277,
5,,,,,0,0,0,1,9,0,9,0,13,0,13,0,,,,,,,,,,,,,,,,,1115.9182077003643,None,1116.4513299004175,1117.051356700249,1117.0349928000942,1119.0355774001218,None,1,0.6125928601250052,2.613179060164839,increament,0.6,15,standard,None,100,,,,,,,,f,30,219,fr,r,0,raw,2022-06-07_10h40.38.189,oddball,2022.1.2,59.93576076715277,
5,,,,,0,0,0,1,9,0,9,0,14,0,14,0,,,,,,,,,,,,,,,,,1119.052421899978,None,1119.8029146003537,1120.402622200083,1120.3859401000664,1122.3871291000396,None,1,0.6125298594124615,2.613799959421158,increament,0.6,15,standard,None,100,,,,,,,,f,30,219,fr,r,0,raw,2022-06-07_10h40.38.189,oddball,2022.1.2,59.93576076715277,
5,,,,,0,0,0,1,9,0,9,0,15,0,15,0,,,,,,,,,,,,,,,,,1122.4040153999813,None,1122.9874252001755,1123.837262800429,1123.8042948003858,1125.8050115001388,None,0,0.8435866595245898,2.844318959861994,increament,0.84,17,oddball,j,140,,,,,,,,f,30,219,fr,r,0,raw,2022-06-07_10h40.38.189,oddball,2022.1.2,59.93576076715277,
5,,,,,0,0,0,1,9,0,9,0,16,0,16,0,,,,,,,,,,,,,,,,,1125.8218155000359,None,1126.4056198000908,1127.0052331001498,1126.9888088000007,1128.9890253003687,None,1,0.6110285595059395,2.611166959628463,increament,0.6,15,standard,None,100,,,,,,,,f,30,219,fr,r,0,raw,2022-06-07_10h40.38.189,oddball,2022.1.2,59.93576076715277,
5,,,,,0,0,0,1,9,0,9,0,17,0,17,0,,,,,,,,,,,,,,,,,1129.0056892000139,None,1129.572817500215,1130.1732840002514,1130.1567164002918,1132.157298900187,None,1,0.6130227600224316,2.6135836602188647,increament,0.6,15,standard,None,100,,,,,,,,f,30,219,fr,r,0,raw,2022-06-07_10h40.38.189,oddball,2022.1.2,59.93576076715277,
5,,,,,0,0,0,1,9,0,9,0,18,0,18,0,,,,,,,,,,,,,,,,,1132.1738694002852,None,1132.7911102003418,1133.3909915001132,1133.3744622999802,1135.3753116000444,None,1,0.6111480598337948,2.612026959657669,increament,0.6,15,standard,None,100,,,,,,,,f,30,219,fr,r,0,raw,2022-06-07_10h40.38.189,oddball,2022.1.2,59.93576076715277,
5,,,,,0,0,0,1,9,0,9,0,19,0,19,0,,,,,,,,,,,,,,,,,1135.3919040001929,None,1135.9927172004245,1136.9590133000165,1136.9257563999854,1138.9266138002276,None,0,0.9591407598927617,2.9600081597454846,increament,0.96,18,oddball,j,160,,,,,,,,f,30,219,fr,r,0,raw,2022-06-07_10h40.38.189,oddball,2022.1.2,59.93576076715277,
5,,,,,0,0,0,1,9,0,9,0,20,0,20,0,,,,,,,,,,,,,,,,,1138.9431043001823,None,1139.5100375004113,1140.1104932003655,1140.0938987000845,1142.0943297003396,None,1,0.6135233594104648,2.6139060594141483,increament,0.6,15,standard,None,100,,,,,,,,f,30,219,fr,r,0,raw,2022-06-07_10h40.38.189,oddball,2022.1.2,59.93576076715277,
5,,,,,0,0,0,1,9,0,9,0,21,0,21,0,,,,,,,,,,,,,,,,,1142.1109210001305,None,1142.794701800216,1143.3952350001782,1143.3787253000773,1145.3789081000723,None,1,0.6133650597184896,2.61349285999313,increament,0.6,15,standard,None,100,,,,,,,,f,30,219,fr,r,0,raw,2022-06-07_10h40.38.189,oddball,2022.1.2,59.93576076715277,
5,,,,,0,0,0,1,9,0,9,0,22,0,22,0,,,,,,,,,,,,,,,,,1145.3955893004313,None,1146.0292930002324,1146.629700800404,1146.613040199969,1148.6138554001227,None,1,0.6118768597953022,2.6127305598929524,increament,0.6,15,standard,None,100,,,,,,,,f,30,219,fr,r,0,raw,2022-06-07_10h40.38.189,oddball,2022.1.2,59.93576076715277,
5,,,,,0,0,0,1,9,0,9,0,23,0,23,0,,,,,,,,,,,,,,,,,1148.6303079002537,None,1149.280843600165,1149.8808279000223,1149.8639371003956,1151.8647980000824,None,1,0.6102969599887729,2.6111666597425938,increament,0.6,15,standard,None,100,,,,,,,,f,30,219,fr,r,0,raw,2022-06-07_10h40.38.189,oddball,2022.1.2,59.93576076715277,
5,,,,,0,0,0,1,9,0,9,0,24,0,24,0,,,,,,,,,,,,,,,,,1151.8813887001015,None,1152.4322182000615,1153.0319854002446,1153.0151423001662,1155.0159397004172,None,1,0.6103462604805827,2.6111685601063073,increament,0.6,15,standard,None,100,,,,,,,,f,30,219,fr,r,0,raw,2022-06-07_10h40.38.189,oddball,2022.1.2,59.93576076715277,
5,,,,,0,0,0,1,9,0,9,0,25,0,25,0,,,,,,,,,,,,,,,,,1155.0325552001595,None,1155.7832568003796,1156.383830200415,1156.3663690001704,1158.3672214001417,None,1,0.6098424596711993,2.6106961597688496,increament,0.6,15,standard,None,100,,,,,,,,f,30,219,fr,r,0,raw,2022-06-07_10h40.38.189,oddball,2022.1.2,59.93576076715277,
5,,,,,0,0,0,1,9,0,9,0,26,0,26,0,,,,,,,,,,,,,,,,,1158.3838641000912,None,1159.0673748999834,1159.801076900214,1159.7680224999785,1161.7683610003442,None,0,0.7274870593100786,2.7277973596937954,increament,0.72,16,oddball,j,120,,,,,,,,f,30,219,fr,r,0,raw,2022-06-07_10h40.38.189,oddball,2022.1.2,59.93576076715277,
5,,,,,0,0,0,1,9,0,9,0,27,0,27,0,,,,,,,,,,,,,,,,,1161.7851315001026,None,1162.2854185001925,1162.8855685000308,1162.8691568002105,1164.869973400142,None,1,0.6130540599115193,2.6139236600138247,increament,0.6,15,standard,None,100,,,,,,,,f,30,219,fr,r,0,raw,2022-06-07_10h40.38.189,oddball,2022.1.2,59.93576076715277,
5,,,,,0,0,0,1,9,0,9,0,28,0,28,0,,,,,,,,,,,,,,,,,1164.8865694999695,None,1165.4700286001898,1166.0700452001765,1166.0535796000622,1168.0541338999756,None,1,0.6127832601778209,2.6133711603470147,increament,0.6,15,standard,None,100,,,,,,,,f,30,219,fr,r,0,raw,2022-06-07_10h40.38.189,oddball,2022.1.2,59.93576076715277,
5,,,,,0,0,0,1,9,0,9,0,29,0,29,0,,,,,,,,,,,,,,,,,1168.0708453999832,None,1168.6879765000194,1169.287882000208,1169.271302100271,1171.2725390000269,None,1,0.6124115600250661,2.613747759722173,increament,0.6,15,standard,None,100,,,,,,,,f,30,219,fr,r,0,raw,2022-06-07_10h40.38.189,oddball,2022.1.2,59.93576076715277,
20,,,,,0,1,1,3,0,0,0,0,0,0,0,0,,,,,,,,,,,,,,,1360.4276340003125,None,1369.3135127001442,None,1369.9974863003008,1370.5975701003335,1370.5805457001552,1372.5816398002207,None,1,0.6116766594350338,2.6127887591719627,decreament,0.6,41,standard,None,100,,1351.323619300034,None,1171.3162346002646,None,,,f,30,219,fr,r,0,raw,2022-06-07_10h40.38.189,oddball,2022.1.2,59.93576076715277,
20,,,,,0,1,1,3,0,0,0,0,1,0,1,0,,,,,,,,,,,,,,,,,1372.5984773002565,None,1373.2986103002913,1373.898668100126,1373.8822616003454,1375.8831489002332,None,1,0.6134358593262732,2.6143726594746113,decreament,0.6,41,standard,None,100,,,,,,,,f,30,219,fr,r,0,raw,2022-06-07_10h40.38.189,oddball,2022.1.2,59.93576076715277,
20,,,,,0,1,1,3,0,0,0,0,2,0,2,0,,,,,,,,,,,,,,,,,1375.8996345000342,None,1376.5833664000966,1377.183405900374,1377.1670166002586,1379.1675462001003,None,1,0.611440259963274,2.611912260297686,decreament,0.6,41,standard,None,100,,,,,,,,f,30,219,fr,r,0,raw,2022-06-07_10h40.38.189,oddball,2022.1.2,59.93576076715277,
20,,,,,0,1,1,3,0,0,0,0,3,0,3,0,,,,,,,,,,,,,,,,,1379.1841375003569,None,1379.8008709000424,1380.401778000407,1380.3851792002097,1382.3856753003784,None,1,0.6144076595082879,2.6148999594151974,decreament,0.6,41,standard,None,100,,,,,,,,f,30,219,fr,r,0,raw,2022-06-07_10h40.38.189,oddball,2022.1.2,59.93576076715277,
20,,,,,0,1,1,3,0,0,0,0,4,0,4,0,,,,,,,,,,,,,,,,,1382.402194100432,None,1383.0694379000925,1383.6689369003288,1383.652582200244,1385.6531665003859,None,1,0.6121601602062583,2.6127465600147843,decreament,0.6,41,standard,None,100,,,,,,,,f,30,219,fr,r,0,raw,2022-06-07_10h40.38.189,oddball,2022.1.2,59.93576076715277,
20,,,,,0,1,1,3,0,0,0,0,5,0,5,0,,,,,,,,,,,,,,,,,1385.669875100255,None,1386.4203221001662,1387.0205262000673,1387.0038517001085,1389.0044781002216,None,1,0.6097052600234747,2.6103064599446952,decreament,0.6,41,standard,None,100,,,,,,,,f,30,219,fr,r,0,raw,2022-06-07_10h40.38.189,oddball,2022.1.2,59.93576076715277,
20,,,,,0,1,1,3,0,0,0,0,6,0,6,0,,,,,,,,,,,,,,,,,1389.0210680002347,None,1389.5713418000378,1390.1716535002925,1390.1551507003605,1392.1556709003635,None,1,0.6127644600346684,2.6132789603434503,decreament,0.6,41,standard,None,100,,,,,,,,f,30,219,fr,r,0,raw,2022-06-07_10h40.38.189,oddball,2022.1.2,59.93576076715277,
20,,,,,0,1,1,3,0,0,0,0,7,0,7,0,,,,,,,,,,,,,,,,,1392.1725406004116,None,1392.9893656000495,1393.5893098004162,1393.5729168001562,1395.573627000209,None,1,0.611661059781909,2.61232925998047,decreament,0.6,41,standard,None,100,,,,,,,,f,30,219,fr,r,0,raw,2022-06-07_10h40.38.189,oddball,2022.1.2,59.93576076715277,
20,,,,,0,1,1,3,0,0,0,0,8,0,8,0,,,,,,,,,,,,,,,,,1395.5902445004322,None,1396.2575938003138,1396.8575314003974,1396.8410106003284,1398.8419166002423,None,1,0.6129748597741127,2.613944359589368,decreament,0.6,41,standard,None,100,,,,,,,,f,30,219,fr,r,0,raw,2022-06-07_10h40.38.189,oddball,2022.1.2,59.93576076715277,
20,,,,,0,1,1,3,0,0,0,0,9,0,9,0,,,,,,,,,,,,,,,,,1398.8585938001052,None,1399.5918106003664,1400.1920312000439,1400.1756913000718,1402.1769131002948,None,1,0.6125545594841242,2.613823759369552,decreament,0.6,41,standard,None,100,,,,,,,,f,30,219,fr,r,0,raw,2022-06-07_10h40.38.189,oddball,2022.1.2,59.93576076715277,
20,,,,,0,1,1,3,0,0,0,0,10,0,10,0,,,,,,,,,,,,,,,,,1402.1951230000705,None,1402.8265321003273,1403.3104010000825,1403.2933505000547,1405.2941666003317,None,0,0.49137255968526006,2.492199359461665,decreament,0.48,44,oddball,j,80,,,,,,,,f,30,219,fr,r,0,raw,2022-06-07_10h40.38.189,oddball,2022.1.2,59.93576076715277,
20,,,,,0,1,1,3,0,0,0,0,11,0,11,0,,,,,,,,,,,,,,,,,1405.3106568004005,None,1405.894711700268,1406.4944768003188,1406.4780698004179,1408.478605600074,None,1,0.6109256600029767,2.611443960107863,decreament,0.6,41,standard,None,100,,,,,,,,f,30,219,fr,r,0,raw,2022-06-07_10h40.38.189,oddball,2022.1.2,59.93576076715277,
20,,,,,0,1,1,3,0,0,0,0,12,0,12,0,,,,,,,,,,,,,,,,,1408.4953664001077,None,1409.1291391002014,1409.7293202001601,1409.7125237002037,1411.7135908002965,None,1,0.6120419604703784,2.6131190601736307,decreament,0.6,41,standard,None,100,,,,,,,,f,30,219,fr,r,0,raw,2022-06-07_10h40.38.189,oddball,2022.1.2,59.93576076715277,
20,,,,,0,1,1,3,0,0,0,0,13,0,13,0,,,,,,,,,,,,,,,,,1411.7298427000642,None,1412.3634591000155,1412.96381880017,1412.9471253002994,1414.9474987001158,None,1,0.6126019600778818,2.6129116602241993,decreament,0.6,41,standard,None,100,,,,,,,,f,30,219,fr,r,0,raw,2022-06-07_10h40.38.189,oddball,2022.1.2,59.93576076715277,
20,,,,,0,1,1,3,0,0,0,0,14,0,14,0,,,,,,,,,,,,,,,,,1414.9642876000144,None,1415.5981166004203,1416.1980505003594,1416.1817521001212,1418.1824959004298,None,1,0.61120645981282,2.6120275598950684,decreament,0.6,41,standard,None,100,,,,,,,,f,30,219,fr,r,0,raw,2022-06-07_10h40.38.189,oddball,2022.1.2,59.93576076715277,
