grating_freq,blocks_prac.thisRepN,blocks_prac.thisTrialN,blocks_prac.thisN,blocks_prac.thisIndex,blocks.thisRepN,blocks.thisTrialN,blocks.thisN,blocks.thisIndex,repeat_freq.thisRepN,repeat_freq.thisTrialN,repeat_freq.thisN,repeat_freq.thisIndex,trials.thisRepN,trials.thisTrialN,trials.thisN,trials.thisIndex,break_loop.thisRepN,break_loop.thisTrialN,break_loop.thisN,break_loop.thisIndex,rest_loop.thisRepN,rest_loop.thisTrialN,rest_loop.thisN,rest_loop.thisIndex,instruct_prac_text.started,instruct_prac_text.stopped,b_instruct_text_2_.started,b_instruct_text_2_.stopped,prac_done_text.started,prac_done_text.stopped,instruct_text.started,instruct_text.stopped,fixation.started,fixation.stopped,grating.started,grating.stopped,blank.started,blank.stopped,resp.keys,resp.corr,resp.started,resp.stopped,direction,duration,trigger,stim_type,corr_ans,scaling,resp.rt,rest_text.started,rest_text.stopped,text_2.started,text_2.stopped,thx_txt.started,thx_txt.stopped,gender,age,participant,language,main_hand,nBlock_prac,file_suffix,date,expName,psychopyVersion,frameRate,
20,,,,,0,0,0,3,0,0,0,0,0,0,0,0,,,,,,,,,32.954450599849224,None,44.45811039954424,None,47.661627599969506,None,74.20779810007662,None,77.4867409998551,None,78.24055599980056,78.85397140029818,78.80448739975691,80.80497319996357,None,1,0.6132762292400002,2.6137593295425177,decreament,0.6,41,standard,None,100,,,,,,,,f,27,226,fr,r,0,raw,2022-06-28_11h08.25.497,oddball,2022.1.2,60.01493177282926,
20,,,,,0,0,0,3,0,0,0,0,1,0,1,0,,,,,,,,,,,,,,,,,80.82139430008829,None,81.45485480036587,82.05531019996852,82.03882759995759,84.03905539959669,None,1,0.6134367305785418,2.613573230803013,decreament,0.6,41,standard,None,100,,,,,,,,f,27,226,fr,r,0,raw,2022-06-28_11h08.25.497,oddball,2022.1.2,60.01493177282926,
20,,,,,0,0,0,3,0,0,0,0,2,0,2,0,,,,,,,,,,,,,,,,,84.05602269992232,None,84.73980029951781,85.3395972000435,85.32283660024405,87.32448679953814,None,1,0.6123638302087784,2.614114330150187,decreament,0.6,41,standard,None,100,,,,,,,,f,27,226,fr,r,0,raw,2022-06-28_11h08.25.497,oddball,2022.1.2,60.01493177282926,
20,,,,,0,0,0,3,0,0,0,0,3,0,3,0,,,,,,,,,,,,,,,,,87.34065460041165,None,87.87427989952266,88.47415779996663,88.45770240016282,90.45866999961436,None,1,0.612130131572485,2.613192630931735,decreament,0.6,41,standard,None,100,,,,,,,,f,27,226,fr,r,0,raw,2022-06-28_11h08.25.497,oddball,2022.1.2,60.01493177282926,
20,,,,,0,0,0,3,0,0,0,0,4,0,4,0,,,,,,,,,,,,,,,,,90.47741139959544,None,91.2090980000794,91.8087379001081,91.79219369962811,93.79302040021867,None,1,0.6119606290012598,2.612835329025984,decreament,0.6,41,standard,None,100,,,,,,,,f,27,226,fr,r,0,raw,2022-06-28_11h08.25.497,oddball,2022.1.2,60.01493177282926,
20,,,,,0,0,0,3,0,0,0,0,5,0,5,0,,,,,,,,,,,,,,,,,93.80949939973652,None,94.42655589990318,95.02717429958284,95.00997770018876,97.01065109949559,None,1,0.6119118304923177,2.6125462306663394,decreament,0.6,41,standard,None,100,,,,,,,,f,27,226,fr,r,0,raw,2022-06-28_11h08.25.497,oddball,2022.1.2,60.01493177282926,
20,,,,,0,0,0,3,0,0,0,0,6,0,6,0,,,,,,,,,,,,,,,,,97.02765559963882,None,97.64444960001856,98.24472089949995,98.22792419977486,100.22862039972097,None,1,0.6115731289610267,2.612254829145968,decreament,0.6,41,standard,None,100,,,,,,,,f,27,226,fr,r,0,raw,2022-06-28_11h08.25.497,oddball,2022.1.2,60.01493177282926,
20,,,,,0,0,0,3,0,0,0,0,7,0,7,0,,,,,,,,,,,,,,,,,100.24521919991821,None,100.82888900022954,101.42925389949232,101.41282359976321,103.41317349951714,None,1,0.6142661292105913,2.6145286299288273,decreament,0.6,41,standard,None,100,,,,,,,,f,27,226,fr,r,0,raw,2022-06-28_11h08.25.497,oddball,2022.1.2,60.01493177282926,
20,,,,,0,0,0,3,0,0,0,0,8,0,8,0,,,,,,,,,,,,,,,,,103.42988820001483,None,104.09683240018785,104.69692029990256,104.68044249992818,106.68139680009335,None,1,0.6097706304863095,2.6107864305377007,decreament,0.6,41,standard,None,100,,,,,,,,f,27,226,fr,r,0,raw,2022-06-28_11h08.25.497,oddball,2022.1.2,60.01493177282926,
20,,,,,0,0,0,3,0,0,0,0,9,0,9,0,,,,,,,,,,,,,,,,,106.69779410026968,None,107.34812930040061,107.71470289956778,107.6814446002245,109.68200279958546,j,1,0.36301992926746607,2.36355122923851,decreament,0.36,43,oddball,j,60,0.4621597006917,,,,,,,f,27,226,fr,r,0,raw,2022-06-28_11h08.25.497,oddball,2022.1.2,60.01493177282926,
20,,,,,0,0,0,3,0,0,0,0,10,0,10,0,,,,,,,,,,,,,,,,,109.69882879965007,None,110.40000739973038,110.9992532003671,110.98304419964552,112.98381729982793,None,1,0.6127118309959769,2.6134928315877914,decreament,0.6,41,standard,None,100,,,,,,,,f,27,226,fr,r,0,raw,2022-06-28_11h08.25.497,oddball,2022.1.2,60.01493177282926,
20,,,,,0,0,0,3,0,0,0,0,11,0,11,0,,,,,,,,,,,,,,,,,113.00012509990484,None,113.55020430032164,114.15032690018415,114.13367049954832,116.1349603002891,None,1,0.6140920286998153,2.6154349287971854,decreament,0.6,41,standard,None,100,,,,,,,,f,27,226,fr,r,0,raw,2022-06-28_11h08.25.497,oddball,2022.1.2,60.01493177282926,
20,,,,,0,0,0,3,0,0,0,0,12,0,12,0,,,,,,,,,,,,,,,,,116.15133369993418,None,116.90162220038474,117.50215869955719,117.485367000103,119.48633379954845,None,1,0.6135058300569654,2.6144080301746726,decreament,0.6,41,standard,None,100,,,,,,,,f,27,226,fr,r,0,raw,2022-06-28_11h08.25.497,oddball,2022.1.2,60.01493177282926,
20,,,,,0,0,0,3,0,0,0,0,13,0,13,0,,,,,,,,,,,,,,,,,119.50285920035094,None,120.21966710034758,120.81981569994241,120.80325059965253,122.80391199979931,None,1,0.6108177294954658,2.611477229744196,decreament,0.6,41,standard,None,100,,,,,,,,f,27,226,fr,r,0,raw,2022-06-28_11h08.25.497,oddball,2022.1.2,60.01493177282926,
20,,,,,0,0,0,3,0,0,0,0,14,0,14,0,,,,,,,,,,,,,,,,,122.8205995997414,None,123.42098909989,124.02099450025707,124.00422010011971,126.00538749992847,None,1,0.612169231288135,2.613414531573653,decreament,0.6,41,standard,None,100,,,,,,,,f,27,226,fr,r,0,raw,2022-06-28_11h08.25.497,oddball,2022.1.2,60.01493177282926,
20,,,,,0,0,0,3,0,0,0,0,15,0,15,0,,,,,,,,,,,,,,,,,126.02203069999814,None,126.60522499959916,127.20563120022416,127.18925059959292,129.1898601995781,None,1,0.6141261300072074,2.6147569296881557,decreament,0.6,41,standard,None,100,,,,,,,,f,27,226,fr,r,0,raw,2022-06-28_11h08.25.497,oddball,2022.1.2,60.01493177282926,
20,,,,,0,0,0,3,0,0,0,0,16,0,16,0,,,,,,,,,,,,,,,,,129.20662720035762,None,129.87336019985378,130.47356239985675,130.45673849992454,132.4575092997402,None,1,0.6129175294190645,2.6136622298508883,decreament,0.6,41,standard,None,100,,,,,,,,f,27,226,fr,r,0,raw,2022-06-28_11h08.25.497,oddball,2022.1.2,60.01493177282926,
20,,,,,0,0,0,3,0,0,0,0,17,0,17,0,,,,,,,,,,,,,,,,,132.47439619991928,None,133.1745865996927,133.7747817998752,133.75826060026884,135.75883600022644,None,1,0.6121161300688982,2.6125825298950076,decreament,0.6,41,standard,None,100,,,,,,,,f,27,226,fr,r,0,raw,2022-06-28_11h08.25.497,oddball,2022.1.2,60.01493177282926,
20,,,,,0,0,0,3,0,0,0,0,18,0,18,0,,,,,,,,,,,,,,,,,135.7754704998806,None,136.39218899980187,136.87568609975278,136.85916680004448,138.86010819952935,j,1,0.495559330098331,2.49652733001858,decreament,0.48,44,oddball,j,80,0.492119500413537,,,,,,,f,27,226,fr,r,0,raw,2022-06-28_11h08.25.497,oddball,2022.1.2,60.01493177282926,
20,,,,,0,0,0,3,0,0,0,0,19,0,19,0,,,,,,,,,,,,,,,,,138.8766836002469,None,139.46078369952738,140.06095520034432,140.04405429959297,142.04459580034018,None,1,0.6125770295038819,2.613069229759276,decreament,0.6,41,standard,None,100,,,,,,,,f,27,226,fr,r,0,raw,2022-06-28_11h08.25.497,oddball,2022.1.2,60.01493177282926,
20,,,,,0,0,0,3,0,0,0,0,20,0,20,0,,,,,,,,,,,,,,,,,142.0612292001024,None,142.7116658994928,143.31176439952105,143.29524749983102,145.29579749982804,None,1,0.6122899297624826,2.6128425300121307,decreament,0.6,41,standard,None,100,,,,,,,,f,27,226,fr,r,0,raw,2022-06-28_11h08.25.497,oddball,2022.1.2,60.01493177282926,
20,,,,,0,0,0,3,0,0,0,0,21,0,21,0,,,,,,,,,,,,,,,,,145.31254049949348,None,146.09646639972925,146.69617519993335,146.6795939002186,148.68061579950154,None,1,0.6091056298464537,2.610111629590392,decreament,0.6,41,standard,None,100,,,,,,,,f,27,226,fr,r,0,raw,2022-06-28_11h08.25.497,oddball,2022.1.2,60.01493177282926,
20,,,,,0,0,0,3,0,0,0,0,22,0,22,0,,,,,,,,,,,,,,,,,148.69737839978188,None,149.39765719976276,149.99744130019099,149.98086220026016,151.98190649971366,None,1,0.6125297294929624,2.6136324293911457,decreament,0.6,41,standard,None,100,,,,,,,,f,27,226,fr,r,0,raw,2022-06-28_11h08.25.497,oddball,2022.1.2,60.01493177282926,
20,,,,,0,0,0,3,0,0,0,0,23,0,23,0,,,,,,,,,,,,,,,,,151.99859159998596,None,152.63210859987885,153.2318761004135,153.21550729963928,155.21642680000514,j,0,0.6092482302337885,2.6102093309164047,decreament,0.6,41,standard,None,100,1.184252000413835,,,,,,,f,27,226,fr,r,0,raw,2022-06-28_11h08.25.497,oddball,2022.1.2,60.01493177282926,
20,,,,,0,0,0,3,0,0,0,0,24,0,24,0,,,,,,,,,,,,,,,,,155.23296479973942,None,155.86642420012504,156.46712979953736,156.45004920009524,158.45066390000284,None,1,0.613537329249084,2.6141290301457047,decreament,0.6,41,standard,None,100,,,,,,,,f,27,226,fr,r,0,raw,2022-06-28_11h08.25.497,oddball,2022.1.2,60.01493177282926,
20,,,,,0,0,0,3,0,0,0,0,25,0,25,0,,,,,,,,,,,,,,,,,158.46764080040157,None,159.13454119954258,159.73449209984392,159.7178223002702,161.7186212996021,None,1,0.6121081290766597,2.612868129275739,decreament,0.6,41,standard,None,100,,,,,,,,f,27,226,fr,r,0,raw,2022-06-28_11h08.25.497,oddball,2022.1.2,60.01493177282926,
20,,,,,0,0,0,3,0,0,0,0,26,0,26,0,,,,,,,,,,,,,,,,,161.73514799959958,None,162.46896379999816,163.0691194999963,163.0524393999949,165.05321330018342,j,0,0.6120296297594905,2.612800129689276,decreament,0.6,41,standard,None,100,0.8989965002983809,,,,,,,f,27,226,fr,r,0,raw,2022-06-28_11h08.25.497,oddball,2022.1.2,60.01493177282926,
20,,,,,0,0,0,3,0,0,0,0,27,0,27,0,,,,,,,,,,,,,,,,,165.0700751999393,None,165.65346040017903,166.25417339988053,166.2375766998157,168.23792210035026,None,1,0.613107230514288,2.6134344302117825,decreament,0.6,41,standard,None,100,,,,,,,,f,27,226,fr,r,0,raw,2022-06-28_11h08.25.497,oddball,2022.1.2,60.01493177282926,
20,,,,,0,0,0,3,0,0,0,0,28,0,28,0,,,,,,,,,,,,,,,,,168.2544456999749,None,168.8550375001505,169.45525589957833,169.4383603995666,171.43890140019357,None,1,0.6117969304323196,2.612296630628407,decreament,0.6,41,standard,None,100,,,,,,,,f,27,226,fr,r,0,raw,2022-06-28_11h08.25.497,oddball,2022.1.2,60.01493177282926,
20,,,,,0,0,0,3,0,0,0,0,29,0,29,0,,,,,,,,,,,,,,,,,171.4556518001482,None,172.08928390033543,172.3392207995057,172.30603140033782,174.3067872999236,j,1,0.2463361294940114,2.247070428915322,decreament,0.24,42,oddball,j,40,0.6683197999373078,,,,,,,f,27,226,fr,r,0,raw,2022-06-28_11h08.25.497,oddball,2022.1.2,60.01493177282926,
20,,,,,0,0,0,3,1,0,1,0,0,0,0,0,,,,,,,,,,,,,,,188.20585380028933,None,189.66256729979068,None,190.229856999591,190.82974610012025,190.81301550008357,192.81367320008576,None,1,0.6110801296308637,2.611742729321122,increament,0.6,45,standard,None,100,,174.32361739967018,None,,,,,f,27,226,fr,r,0,raw,2022-06-28_11h08.25.497,oddball,2022.1.2,60.01493177282926,
20,,,,,0,0,0,3,1,0,1,0,1,0,1,0,,,,,,,,,,,,,,,,,192.83062379993498,None,193.5480316001922,194.14774740021676,194.1313086003065,196.1318175997585,None,1,0.6113783298060298,2.6118660299107432,increament,0.6,45,standard,None,100,,,,,,,,f,27,226,fr,r,0,raw,2022-06-28_11h08.25.497,oddball,2022.1.2,60.01493177282926,
20,,,,,0,0,0,3,1,0,1,0,2,0,2,0,,,,,,,,,,,,,,,,,196.14850889984518,None,196.74850420001894,197.34898649994284,197.3325623003766,199.3328176997602,None,1,0.6141293309628963,2.6143225310370326,increament,0.6,45,standard,None,100,,,,,,,,f,27,226,fr,r,0,raw,2022-06-28_11h08.25.497,oddball,2022.1.2,60.01493177282926,
20,,,,,0,0,0,3,1,0,1,0,3,0,3,0,,,,,,,,,,,,,,,,,199.3497685994953,None,199.8832537997514,200.4835668001324,200.46668520011008,202.46759799961,None,1,0.6122515294700861,2.6131805293262005,increament,0.6,45,standard,None,100,,,,,,,,f,27,226,fr,r,0,raw,2022-06-28_11h08.25.497,oddball,2022.1.2,60.01493177282926,
20,,,,,0,0,0,3,1,0,1,0,4,0,4,0,,,,,,,,,,,,,,,,,202.48441869951785,None,203.15102559980005,203.75173150002956,203.73485189955682,205.7352996999398,None,1,0.6132303299382329,2.6136120297014713,increament,0.6,45,standard,None,100,,,,,,,,f,27,226,fr,r,0,raw,2022-06-28_11h08.25.497,oddball,2022.1.2,60.01493177282926,
20,,,,,0,0,0,3,1,0,1,0,5,0,5,0,,,,,,,,,,,,,,,,,205.75196000002325,None,206.38573770038784,206.98578479979187,206.9692377001047,208.97001889999956,None,1,0.6107364296913147,2.611567829735577,increament,0.6,45,standard,None,100,,,,,,,,f,27,226,fr,r,0,raw,2022-06-28_11h08.25.497,oddball,2022.1.2,60.01493177282926,
20,,,,,0,0,0,3,1,0,1,0,6,0,6,0,,,,,,,,,,,,,,,,,208.9866645000875,None,209.80349390022457,210.77074319962412,210.7376678995788,212.73809329979122,j,1,0.9628462307155132,2.963220630772412,increament,0.96,48,oddball,j,160,0.15677910018712282,,,,,,,f,27,226,fr,r,0,raw,2022-06-28_11h08.25.497,oddball,2022.1.2,60.01493177282926,
20,,,,,0,0,0,3,1,0,1,0,7,0,7,0,,,,,,,,,,,,,,,,,212.754733200185,None,213.57176989968866,214.1720166997984,214.15523449983448,216.15607669949532,None,1,0.613468530587852,2.6143002305179834,increament,0.6,45,standard,None,100,,,,,,,,f,27,226,fr,r,0,raw,2022-06-28_11h08.25.497,oddball,2022.1.2,60.01493177282926,
20,,,,,0,0,0,3,1,0,1,0,8,0,8,0,,,,,,,,,,,,,,,,,216.17275900021195,None,216.70635109953582,217.3064864994958,217.28979850001633,219.2902526995167,None,1,0.6124116303399205,2.612842329777777,increament,0.6,45,standard,None,100,,,,,,,,f,27,226,fr,r,0,raw,2022-06-28_11h08.25.497,oddball,2022.1.2,60.01493177282926,
20,,,,,0,0,0,3,1,0,1,0,9,0,9,0,,,,,,,,,,,,,,,,,219.3072306998074,None,219.92399539984763,220.52419960033149,220.50763630028814,222.50865190010518,None,1,0.6128272293135524,2.6139064291492105,increament,0.6,45,standard,None,100,,,,,,,,f,27,226,fr,r,0,raw,2022-06-28_11h08.25.497,oddball,2022.1.2,60.01493177282926,
20,,,,,0,0,0,3,1,0,1,0,10,0,10,0,,,,,,,,,,,,,,,,,222.52521899994463,None,223.1252202000469,223.7257167994976,223.70894529949874,225.70968919992447,None,1,0.6124903298914433,2.6132255299016833,increament,0.6,45,standard,None,100,,,,,,,,f,27,226,fr,r,0,raw,2022-06-28_11h08.25.497,oddball,2022.1.2,60.01493177282926,
20,,,,,0,0,0,3,1,0,1,0,11,0,11,0,,,,,,,,,,,,,,,,,225.726087000221,None,226.42670619953424,227.02652820013463,227.0100506003946,229.01114329975098,None,1,0.6103173308074474,2.611457730643451,increament,0.6,45,standard,None,100,,,,,,,,f,27,226,fr,r,0,raw,2022-06-28_11h08.25.497,oddball,2022.1.2,60.01493177282926,
20,,,,,0,0,0,3,1,0,1,0,12,0,12,0,,,,,,,,,,,,,,,,,229.02766290027648,None,229.7776637999341,230.37809529993683,230.3614058997482,232.3623005002737,None,1,0.6123837297782302,2.6133369291201234,increament,0.6,45,standard,None,100,,,,,,,,f,27,226,fr,r,0,raw,2022-06-28_11h08.25.497,oddball,2022.1.2,60.01493177282926,
20,,,,,0,0,0,3,1,0,1,0,13,0,13,0,,,,,,,,,,,,,,,,,232.37869509961456,None,232.91265039984137,233.51248489972204,233.49603160005063,235.49641930032521,None,1,0.6105005284771323,2.610874028876424,increament,0.6,45,standard,None,100,,,,,,,,f,27,226,fr,r,0,raw,2022-06-28_11h08.25.497,oddball,2022.1.2,60.01493177282926,
20,,,,,0,0,0,3,1,0,1,0,14,0,14,0,,,,,,,,,,,,,,,,,235.51350540015846,None,236.3139353003353,237.04721069987863,237.01412689965218,239.0149012003094,j,1,0.7294439300894737,2.7301907297223806,increament,0.72,46,oddball,j,120,0.40900859981775284,,,,,,,f,27,226,fr,r,0,raw,2022-06-28_11h08.25.497,oddball,2022.1.2,60.01493177282926,
20,,,,,0,0,0,3,1,0,1,0,15,0,15,0,,,,,,,,,,,,,,,,,239.0316177001223,None,239.59829489979893,240.19836809951812,240.18171510007232,242.1823442997411,None,1,0.6132083302363753,2.6137975305318832,increament,0.6,45,standard,None,100,,,,,,,,f,27,226,fr,r,0,raw,2022-06-28_11h08.25.497,oddball,2022.1.2,60.01493177282926,
20,,,,,0,0,0,3,1,0,1,0,16,0,16,0,,,,,,,,,,,,,,,,,242.1990524996072,None,242.7998088002205,243.39946980029345,243.38279519975185,245.3837083997205,None,1,0.6092718299478292,2.6102169305086136,increament,0.6,45,standard,None,100,,,,,,,,f,27,226,fr,r,0,raw,2022-06-28_11h08.25.497,oddball,2022.1.2,60.01493177282926,
20,,,,,0,0,0,3,1,0,1,0,17,0,17,0,,,,,,,,,,,,,,,,,245.40036960039288,None,246.11734430026263,246.71736169978976,246.70077050011605,248.70168349985033,None,1,0.6130404295399785,2.614114030264318,increament,0.6,45,standard,None,100,,,,,,,,f,27,226,fr,r,0,raw,2022-06-28_11h08.25.497,oddball,2022.1.2,60.01493177282926,
20,,,,,0,0,0,3,1,0,1,0,18,0,18,0,,,,,,,,,,,,,,,,,248.71870629955083,None,249.28517740033567,249.88552189990878,249.86886180005968,251.86993969976902,None,1,0.6143114306032658,2.61543043050915,increament,0.6,45,standard,None,100,,,,,,,,f,27,226,fr,r,0,raw,2022-06-28_11h08.25.497,oddball,2022.1.2,60.01493177282926,
20,,,,,0,0,0,3,1,0,1,0,19,0,19,0,,,,,,,,,,,,,,,,,251.8865512004122,None,252.56971929967403,253.1698316996917,253.15295919962227,255.15387110039592,None,1,0.6125487312674522,2.613470930606127,increament,0.6,45,standard,None,100,,,,,,,,f,27,226,fr,r,0,raw,2022-06-28_11h08.25.497,oddball,2022.1.2,60.01493177282926,
20,,,,,0,0,0,3,1,0,1,0,20,0,20,0,,,,,,,,,,,,,,,,,255.17047149967402,None,255.78811130020767,256.38793000020087,256.37144699972123,258.37225279957056,None,1,0.6084271306172013,2.609325830824673,increament,0.6,45,standard,None,100,,,,,,,,f,27,226,fr,r,0,raw,2022-06-28_11h08.25.497,oddball,2022.1.2,60.01493177282926,
20,,,,,0,0,0,3,1,0,1,0,21,0,21,0,,,,,,,,,,,,,,,,,258.38877939991653,None,259.1224740995094,259.72250340040773,259.7060150997713,261.70681289955974,None,1,0.6089280294254422,2.6097904294729233,increament,0.6,45,standard,None,100,,,,,,,,f,27,226,fr,r,0,raw,2022-06-28_11h08.25.497,oddball,2022.1.2,60.01493177282926,
20,,,,,0,0,0,3,1,0,1,0,22,0,22,0,,,,,,,,,,,,,,,,,261.72332969959825,None,262.4568303003907,263.0570564996451,263.0403402997181,265.0412395000458,None,1,0.6090136291459203,2.6099808290600777,increament,0.6,45,standard,None,100,,,,,,,,f,27,226,fr,r,0,raw,2022-06-28_11h08.25.497,oddball,2022.1.2,60.01493177282926,
20,,,,,0,0,0,3,1,0,1,0,23,0,23,0,,,,,,,,,,,,,,,,,265.0580451004207,None,265.5746085001156,266.17496830038726,266.1588035002351,268.15892419964075,None,1,0.6128182308748364,2.6128457309678197,increament,0.6,45,standard,None,100,,,,,,,,f,27,226,fr,r,0,raw,2022-06-28_11h08.25.497,oddball,2022.1.2,60.01493177282926,
20,,,,,0,0,0,3,1,0,1,0,24,0,24,0,,,,,,,,,,,,,,,,,268.1756453998387,None,268.9261368997395,269.5264106001705,269.5096840998158,271.5102290995419,None,1,0.6124366298317909,2.612917429767549,increament,0.6,45,standard,None,100,,,,,,,,f,27,226,fr,r,0,raw,2022-06-28_11h08.25.497,oddball,2022.1.2,60.01493177282926,
20,,,,,0,0,0,3,1,0,1,0,25,0,25,0,,,,,,,,,,,,,,,,,271.5268815001473,None,272.27753650024533,272.87754170037806,272.8608721997589,274.8614488998428,None,1,0.6129287295043468,2.613477130420506,increament,0.6,45,standard,None,100,,,,,,,,f,27,226,fr,r,0,raw,2022-06-28_11h08.25.497,oddball,2022.1.2,60.01493177282926,
20,,,,,0,0,0,3,1,0,1,0,26,0,26,0,,,,,,,,,,,,,,,,,274.8785296995193,None,275.39510940015316,275.995103799738,275.9786235000938,277.97936030011624,None,1,0.6135197291150689,2.614293129183352,increament,0.6,45,standard,None,100,,,,,,,,f,27,226,fr,r,0,raw,2022-06-28_11h08.25.497,oddball,2022.1.2,60.01493177282926,
20,,,,,0,0,0,3,1,0,1,0,27,0,27,0,,,,,,,,,,,,,,,,,277.9963277000934,None,278.64625149965286,279.49671029951423,279.46352429967374,281.4639256000519,None,0,0.8477197317406535,2.848088231869042,increament,0.84,47,oddball,j,140,,,,,,,,f,27,226,fr,r,0,raw,2022-06-28_11h08.25.497,oddball,2022.1.2,60.01493177282926,
20,,,,,0,0,0,3,1,0,1,0,28,0,28,0,,,,,,,,,,,,,,,,,281.480566999875,None,282.04749230016023,282.6484465999529,282.63113280013204,284.63170369993895,None,1,0.6132374303415418,2.6137601295486093,increament,0.6,45,standard,None,100,,,,,,,,f,27,226,fr,r,0,raw,2022-06-28_11h08.25.497,oddball,2022.1.2,60.01493177282926,
20,,,,,0,0,0,3,1,0,1,0,29,0,29,0,,,,,,,,,,,,,,,,,284.6484223995358,None,285.31544320005924,285.91562299989164,285.8990922002122,287.89981620013714,None,1,0.6130558298900723,2.613755229860544,increament,0.6,45,standard,None,100,,,,,,,,f,27,226,fr,r,0,raw,2022-06-28_11h08.25.497,oddball,2022.1.2,60.01493177282926,
20,,,,,0,0,0,3,2,0,2,0,0,0,0,0,,,,,,,,,,,,,,,295.46906450018287,None,297.33744959998876,None,298.0537457000464,298.6537865996361,298.63759810011834,300.63823920022696,None,1,0.6120982319116592,2.6129569318145514,decreament,0.6,41,standard,None,100,,287.9168405001983,None,,,,,f,27,226,fr,r,0,raw,2022-06-28_11h08.25.497,oddball,2022.1.2,60.01493177282926,
20,,,,,0,0,0,3,2,0,2,0,1,0,1,0,,,,,,,,,,,,,,,,,300.65720080025494,None,301.2380849001929,301.8385253995657,301.8216771995649,303.82268700003624,None,1,0.6124650314450264,2.613495430909097,decreament,0.6,41,standard,None,100,,,,,,,,f,27,226,fr,r,0,raw,2022-06-28_11h08.25.497,oddball,2022.1.2,60.01493177282926,
20,,,,,0,0,0,3,2,0,2,0,2,0,2,0,,,,,,,,,,,,,,,,,303.839080600068,None,304.5727853998542,305.17307200003415,305.15637429989874,307.1571642998606,None,1,0.6105993306264281,2.6113968305289745,decreament,0.6,41,standard,None,100,,,,,,,,f,27,226,fr,r,0,raw,2022-06-28_11h08.25.497,oddball,2022.1.2,60.01493177282926,
20,,,,,0,0,0,3,2,0,2,0,3,0,3,0,,,,,,,,,,,,,,,,,307.17377579957247,None,307.8739783996716,308.474128799513,308.4575351001695,310.45794409979135,None,1,0.6092640310525894,2.6096260314807296,decreament,0.6,41,standard,None,100,,,,,,,,f,27,226,fr,r,0,raw,2022-06-28_11h08.25.497,oddball,2022.1.2,60.01493177282926,
20,,,,,0,0,0,3,2,0,2,0,4,0,4,0,,,,,,,,,,,,,,,,,310.47457899991423,None,311.0584990000352,311.65894010011107,311.64217589981854,313.6429329998791,None,1,0.6136621292680502,2.614410429261625,decreament,0.6,41,standard,None,100,,,,,,,,f,27,226,fr,r,0,raw,2022-06-28_11h08.25.497,oddball,2022.1.2,60.01493177282926,
20,,,,,0,0,0,3,2,0,2,0,5,0,5,0,,,,,,,,,,,,,,,,,313.65942810010165,None,314.42653520032763,315.0265346998349,315.0102236000821,317.01086529996246,None,1,0.6105119306594133,2.611153330653906,decreament,0.6,41,standard,None,100,,,,,,,,f,27,226,fr,r,0,raw,2022-06-28_11h08.25.497,oddball,2022.1.2,60.01493177282926,
20,,,,,0,0,0,3,2,0,2,0,6,0,6,0,,,,,,,,,,,,,,,,,317.02764779981226,None,317.6110180998221,318.21112190000713,318.1949033001438,320.1952595002949,None,1,0.6128519307821989,2.6131991306319833,decreament,0.6,41,standard,None,100,,,,,,,,f,27,226,fr,r,0,raw,2022-06-28_11h08.25.497,oddball,2022.1.2,60.01493177282926,
20,,,,,0,0,0,3,2,0,2,0,7,0,7,0,,,,,,,,,,,,,,,,,320.21222720015794,None,320.7622368996963,321.36272159963846,321.34600799996406,323.34663559962064,None,1,0.6131228310987353,2.6137474309653044,decreament,0.6,41,standard,None,100,,,,,,,,f,27,226,fr,r,0,raw,2022-06-28_11h08.25.497,oddball,2022.1.2,60.01493177282926,
20,,,,,0,0,0,3,2,0,2,0,8,0,8,0,,,,,,,,,,,,,,,,,323.36328059993684,None,324.16354709956795,324.76402189955115,324.74740939959884,326.74775210022926,None,1,0.6118953302502632,2.6121670296415687,decreament,0.6,41,standard,None,100,,,,,,,,f,27,226,fr,r,0,raw,2022-06-28_11h08.25.497,oddball,2022.1.2,60.01493177282926,
20,,,,,0,0,0,3,2,0,2,0,9,0,9,0,,,,,,,,,,,,,,,,,326.7644950002432,None,327.298375999555,327.8985590999946,327.8816275000572,329.88255990017205,None,1,0.6124118305742741,2.613378530368209,decreament,0.6,41,standard,None,100,,,,,,,,f,27,226,fr,r,0,raw,2022-06-28_11h08.25.497,oddball,2022.1.2,60.01493177282926,
20,,,,,0,0,0,3,2,0,2,0,10,0,10,0,,,,,,,,,,,,,,,,,329.89993069972843,None,330.44956829957664,331.0498636001721,331.0329633001238,333.033615199849,None,1,0.6097849300131202,2.6103969300165772,decreament,0.6,41,standard,None,100,,,,,,,,f,27,226,fr,r,0,raw,2022-06-28_11h08.25.497,oddball,2022.1.2,60.01493177282926,
20,,,,,0,0,0,3,2,0,2,0,11,0,11,0,,,,,,,,,,,,,,,,,333.0503115998581,None,333.6672157999128,334.26726290024817,334.25105859991163,336.2516037002206,None,1,0.6137861302122474,2.6143101304769516,decreament,0.6,41,standard,None,100,,,,,,,,f,27,226,fr,r,0,raw,2022-06-28_11h08.25.497,oddball,2022.1.2,60.01493177282926,
20,,,,,0,0,0,3,2,0,2,0,12,0,12,0,,,,,,,,,,,,,,,,,336.2684540003538,None,336.85156220011413,337.21876730024815,337.1854577995837,339.18577350024134,j,1,0.36366502940654755,2.3639471298083663,decreament,0.36,43,oddball,j,60,0.8360941996797919,,,,,,,f,27,226,fr,r,0,raw,2022-06-28_11h08.25.497,oddball,2022.1.2,60.01493177282926,
20,,,,,0,0,0,3,2,0,2,0,13,0,13,0,,,,,,,,,,,,,,,,,339.20282770041376,None,339.719420700334,340.31984130013734,340.30312860012054,342.3039659000933,None,1,0.6124387299641967,2.6132378298789263,decreament,0.6,41,standard,None,100,,,,,,,,f,27,226,fr,r,0,raw,2022-06-28_11h08.25.497,oddball,2022.1.2,60.01493177282926,
20,,,,,0,0,0,3,2,0,2,0,14,0,14,0,,,,,,,,,,,,,,,,,342.320491399616,None,343.0376752000302,343.63751490041614,343.620853099972,345.6215626001358,None,1,0.6114831306040287,2.61225622985512,decreament,0.6,41,standard,None,100,,,,,,,,f,27,226,fr,r,0,raw,2022-06-28_11h08.25.497,oddball,2022.1.2,60.01493177282926,
20,,,,,0,0,0,3,2,0,2,0,15,0,15,0,,,,,,,,,,,,,,,,,345.6385853998363,None,346.30523549951613,346.90538730006665,346.88897289987653,348.8896525995806,None,1,0.611706729978323,2.6124073304235935,decreament,0.6,41,standard,None,100,,,,,,,,f,27,226,fr,r,0,raw,2022-06-28_11h08.25.497,oddball,2022.1.2,60.01493177282926,
20,,,,,0,0,0,3,2,0,2,0,16,0,16,0,,,,,,,,,,,,,,,,,348.90620420034975,None,349.63981620036066,350.2403117995709,350.22375790029764,352.22421170026064,None,1,0.6112963296473026,2.6117221293970942,decreament,0.6,41,standard,None,100,,,,,,,,f,27,226,fr,r,0,raw,2022-06-28_11h08.25.497,oddball,2022.1.2,60.01493177282926,
20,,,,,0,0,0,3,2,0,2,0,17,0,17,0,,,,,,,,,,,,,,,,,352.241080599837,None,352.8911439999938,353.4914929000661,353.4748366000131,355.47559459973127,None,1,0.6116311298683286,2.612417629919946,decreament,0.6,41,standard,None,100,,,,,,,,f,27,226,fr,r,0,raw,2022-06-28_11h08.25.497,oddball,2022.1.2,60.01493177282926,
20,,,,,0,0,0,3,2,0,2,0,18,0,18,0,,,,,,,,,,,,,,,,,355.4920958997682,None,356.15883349999785,356.7591556003317,356.7426947997883,358.74357509985566,None,1,0.614777029491961,2.6157006295397878,decreament,0.6,41,standard,None,100,,,,,,,,f,27,226,fr,r,0,raw,2022-06-28_11h08.25.497,oddball,2022.1.2,60.01493177282926,
20,,,,,0,0,0,3,2,0,2,0,19,0,19,0,,,,,,,,,,,,,,,,,358.7600681995973,None,359.4269655998796,360.02735320013016,360.01056190021336,362.0113367000595,None,1,0.6128259301185608,2.6135948300361633,decreament,0.6,41,standard,None,100,,,,,,,,f,27,226,fr,r,0,raw,2022-06-28_11h08.25.497,oddball,2022.1.2,60.01493177282926,
20,,,,,0,0,0,3,2,0,2,0,20,0,20,0,,,,,,,,,,,,,,,,,362.0280611002818,None,362.6280905995518,363.2285562995821,363.2118245996535,365.2132066003978,None,1,0.6138052316382527,2.615240231156349,decreament,0.6,41,standard,None,100,,,,,,,,f,27,226,fr,r,0,raw,2022-06-28_11h08.25.497,oddball,2022.1.2,60.01493177282926,
20,,,,,0,0,0,3,2,0,2,0,21,0,21,0,,,,,,,,,,,,,,,,,365.22911639977247,None,365.9126751003787,366.51291859988123,366.49630079977214,368.49725519958884,None,1,0.6133687319234014,2.61440313141793,decreament,0.6,41,standard,None,100,,,,,,,,f,27,226,fr,r,0,raw,2022-06-28_11h08.25.497,oddball,2022.1.2,60.01493177282926,
20,,,,,0,0,0,3,2,0,2,0,22,0,22,0,,,,,,,,,,,,,,,,,368.5138432001695,None,369.2306484999135,369.4810052001849,369.44752239994705,371.4480732996017,j,1,0.24696343019604683,2.247532229870558,decreament,0.24,42,oddball,j,40,0.5587480003014207,,,,,,,f,27,226,fr,r,0,raw,2022-06-28_11h08.25.497,oddball,2022.1.2,60.01493177282926,
20,,,,,0,0,0,3,2,0,2,0,23,0,23,0,,,,,,,,,,,,,,,,,371.46484019979835,None,372.06536890007555,372.66571209952235,372.6484927004203,374.6492806999013,None,1,0.6110438294708729,2.611811730079353,decreament,0.6,41,standard,None,100,,,,,,,,f,27,226,fr,r,0,raw,2022-06-28_11h08.25.497,oddball,2022.1.2,60.01493177282926,
20,,,,,0,0,0,3,2,0,2,0,24,0,24,0,,,,,,,,,,,,,,,,,374.66591299977154,None,375.3662561997771,375.9670286998153,375.95000530034304,377.9505580002442,None,1,0.6138239316642284,2.614316231571138,decreament,0.6,41,standard,None,100,,,,,,,,f,27,226,fr,r,0,raw,2022-06-28_11h08.25.497,oddball,2022.1.2,60.01493177282926,
20,,,,,0,0,0,3,2,0,2,0,25,0,25,0,,,,,,,,,,,,,,,,,377.96744680032134,None,378.6181201003492,379.21774649992585,379.20105800032616,381.2017304999754,None,1,0.6110392305999994,2.611696930602193,decreament,0.6,41,standard,None,100,,,,,,,,f,27,226,fr,r,0,raw,2022-06-28_11h08.25.497,oddball,2022.1.2,60.01493177282926,
20,,,,,0,0,0,3,2,0,2,0,26,0,26,0,,,,,,,,,,,,,,,,,381.2183280000463,None,382.10205530002713,382.70223390031606,382.68569410033524,384.6864783996716,None,1,0.6124989306554198,2.6132879303768277,decreament,0.6,41,standard,None,100,,,,,,,,f,27,226,fr,r,0,raw,2022-06-28_11h08.25.497,oddball,2022.1.2,60.01493177282926,
20,,,,,0,0,0,3,2,0,2,0,27,0,27,0,,,,,,,,,,,,,,,,,384.7032958995551,None,385.30350970011204,385.90403930004686,385.8869514996186,387.8877136996016,None,1,0.6121195303276181,2.612913830205798,decreament,0.6,41,standard,None,100,,,,,,,,f,27,226,fr,r,0,raw,2022-06-28_11h08.25.497,oddball,2022.1.2,60.01493177282926,
20,,,,,0,0,0,3,2,0,2,0,28,0,28,0,,,,,,,,,,,,,,,,,387.90478140022606,None,388.55471440032125,389.15468360017985,389.13820999953896,391.1386882998049,None,1,0.6124781304970384,2.612947430461645,decreament,0.6,41,standard,None,100,,,,,,,,f,27,226,fr,r,0,raw,2022-06-28_11h08.25.497,oddball,2022.1.2,60.01493177282926,
20,,,,,0,0,0,3,2,0,2,0,29,0,29,0,,,,,,,,,,,,,,,,,391.15560299996287,None,391.8728449996561,392.35585889965296,392.3393113994971,394.3402319001034,j,1,0.4942551292479038,2.4952514292672276,decreament,0.48,44,oddball,j,80,0.6269802004098892,,,,,,,f,27,226,fr,r,0,raw,2022-06-28_11h08.25.497,oddball,2022.1.2,60.01493177282926,
20,,,,,0,0,0,3,3,0,3,0,0,0,0,0,,,,,,,,,,,,,,,397.8844199003652,None,399.85890640038997,None,400.52614559978247,401.1259576994926,401.10944299958646,403.11053949967027,None,1,0.6101161297410727,2.6112845297902822,increament,0.6,45,standard,None,100,,394.35984690021724,None,,,,,f,27,226,fr,r,0,raw,2022-06-28_11h08.25.497,oddball,2022.1.2,60.01493177282926,
20,,,,,0,0,0,3,3,0,3,0,1,0,1,0,,,,,,,,,,,,,,,,,403.1266302000731,None,403.8436409998685,404.4438950996846,404.42762679979205,406.42789749987423,None,1,0.6129582291468978,2.6131596295163035,increament,0.6,45,standard,None,100,,,,,,,,f,27,226,fr,r,0,raw,2022-06-28_11h08.25.497,oddball,2022.1.2,60.01493177282926,
20,,,,,0,0,0,3,3,0,3,0,2,0,2,0,,,,,,,,,,,,,,,,,406.4446948003024,None,406.96152810007334,407.56165860034525,407.54515449982136,409.5460743000731,None,1,0.609566830098629,2.6105430303141475,increament,0.6,45,standard,None,100,,,,,,,,f,27,226,fr,r,0,raw,2022-06-28_11h08.25.497,oddball,2022.1.2,60.01493177282926,
20,,,,,0,0,0,3,3,0,3,0,3,0,3,0,,,,,,,,,,,,,,,,,409.56279680039734,None,410.2794912997633,410.8801352996379,410.8631733004004,412.8642365001142,None,1,0.6138315293937922,2.614984329789877,increament,0.6,45,standard,None,100,,,,,,,,f,27,226,fr,r,0,raw,2022-06-28_11h08.25.497,oddball,2022.1.2,60.01493177282926,
20,,,,,0,0,0,3,3,0,3,0,4,0,4,0,,,,,,,,,,,,,,,,,412.88039940036833,None,413.5142150996253,414.1145599000156,414.0979031994939,416.098461500369,None,1,0.6115720300003886,2.6120710307732224,increament,0.6,45,standard,None,100,,,,,,,,f,27,226,fr,r,0,raw,2022-06-28_11h08.25.497,oddball,2022.1.2,60.01493177282926,
20,,,,,0,0,0,3,3,0,3,0,5,0,5,0,,,,,,,,,,,,,,,,,416.11504449974746,None,416.7319668997079,417.3321065995842,417.31560839992017,419.31628319993615,None,1,0.612746031023562,2.6134521309286356,increament,0.6,45,standard,None,100,,,,,,,,f,27,226,fr,r,0,raw,2022-06-28_11h08.25.497,oddball,2022.1.2,60.01493177282926,
20,,,,,0,0,0,3,3,0,3,0,6,0,6,0,,,,,,,,,,,,,,,,,419.33303650002927,None,419.9664965001866,420.5666188998148,420.55033889971673,422.5506007000804,None,1,0.6105632297694683,2.610727329738438,increament,0.6,45,standard,None,100,,,,,,,,f,27,226,fr,r,0,raw,2022-06-28_11h08.25.497,oddball,2022.1.2,60.01493177282926,
20,,,,,0,0,0,3,3,0,3,0,7,0,7,0,,,,,,,,,,,,,,,,,422.56747290026397,None,423.18437909986824,423.78461410012096,423.76777010038495,425.7687210999429,None,1,0.6124373311176896,2.6134228305891156,increament,0.6,45,standard,None,100,,,,,,,,f,27,226,fr,r,0,raw,2022-06-28_11h08.25.497,oddball,2022.1.2,60.01493177282926,
20,,,,,0,0,0,3,3,0,3,0,8,0,8,0,,,,,,,,,,,,,,,,,425.7852440001443,None,426.30262009985745,426.9024281995371,426.88576409965754,428.88687989953905,None,1,0.6094175288453698,2.610579028725624,increament,0.6,45,standard,None,100,,,,,,,,f,27,226,fr,r,0,raw,2022-06-28_11h08.25.497,oddball,2022.1.2,60.01493177282926,
20,,,,,0,0,0,3,3,0,3,0,9,0,9,0,,,,,,,,,,,,,,,,,428.9031777000055,None,429.65319679956883,430.2535656997934,430.23701949976385,432.2379382997751,None,1,0.6133599299937487,2.614316330291331,increament,0.6,45,standard,None,100,,,,,,,,f,27,226,fr,r,0,raw,2022-06-28_11h08.25.497,oddball,2022.1.2,60.01493177282926,
20,,,,,0,0,0,3,3,0,3,0,10,0,10,0,,,,,,,,,,,,,,,,,432.25475769955665,None,432.92169839981943,433.52145539969206,433.50497779995203,435.50580019969493,None,1,0.6110730292275548,2.6119396295398474,increament,0.6,45,standard,None,100,,,,,,,,f,27,226,fr,r,0,raw,2022-06-28_11h08.25.497,oddball,2022.1.2,60.01493177282926,
20,,,,,0,0,0,3,3,0,3,0,11,0,11,0,,,,,,,,,,,,,,,,,435.5225261002779,None,436.1057176999748,436.70608619973063,436.6894707996398,438.6904309997335,None,1,0.6117545310407877,2.61278323084116,increament,0.6,45,standard,None,100,,,,,,,,f,27,226,fr,r,0,raw,2022-06-28_11h08.25.497,oddball,2022.1.2,60.01493177282926,
20,,,,,0,0,0,3,3,0,3,0,12,0,12,0,,,,,,,,,,,,,,,,,438.7081767003983,None,439.30712969973683,439.9074798999354,439.8905983995646,441.8914620997384,None,1,0.6118559306487441,2.6126909302547574,increament,0.6,45,standard,None,100,,,,,,,,f,27,226,fr,r,0,raw,2022-06-28_11h08.25.497,oddball,2022.1.2,60.01493177282926,
20,,,,,0,0,0,3,3,0,3,0,13,0,13,0,,,,,,,,,,,,,,,,,441.90805459953845,None,442.5087748002261,443.10874629952013,443.092308299616,445.0932548996061,None,1,0.610891729593277,2.6118470299988985,increament,0.6,45,standard,None,100,,,,,,,,f,27,226,fr,r,0,raw,2022-06-28_11h08.25.497,oddball,2022.1.2,60.01493177282926,
20,,,,,0,0,0,3,3,0,3,0,14,0,14,0,,,,,,,,,,,,,,,,,445.10929080005735,None,445.85962430015206,446.45980069972575,446.4432523995638,448.443908999674,None,1,0.6142061296850443,2.6148921297863126,increament,0.6,45,standard,None,100,,,,,,,,f,27,226,fr,r,0,raw,2022-06-28_11h08.25.497,oddball,2022.1.2,60.01493177282926,
20,,,,,0,0,0,3,3,0,3,0,15,0,15,0,,,,,,,,,,,,,,,,,448.4606617996469,None,449.09412289969623,449.69417900033295,449.6776350000873,451.6783950999379,None,1,0.6129709295928478,2.613753629848361,increament,0.6,45,standard,None,100,,,,,,,,f,27,226,fr,r,0,raw,2022-06-28_11h08.25.497,oddball,2022.1.2,60.01493177282926,
20,,,,,0,0,0,3,3,0,3,0,16,0,16,0,,,,,,,,,,,,,,,,,451.69523499999195,None,452.3123666001484,452.9121926994994,452.8955717002973,454.8962228996679,None,1,0.612521231174469,2.613163731060922,increament,0.6,45,standard,None,100,,,,,,,,f,27,226,fr,r,0,raw,2022-06-28_11h08.25.497,oddball,2022.1.2,60.01493177282926,
20,,,,,0,0,0,3,3,0,3,0,17,0,17,0,,,,,,,,,,,,,,,,,454.9131453000009,None,455.7969853002578,456.397294299677,456.3802062999457,458.3809947995469,None,1,0.6119019296020269,2.612689830362797,increament,0.6,45,standard,None,100,,,,,,,,f,27,226,fr,r,0,raw,2022-06-28_11h08.25.497,oddball,2022.1.2,60.01493177282926,
20,,,,,0,0,0,3,3,0,3,0,18,0,18,0,,,,,,,,,,,,,,,,,458.39777280017734,None,458.9814967997372,459.58163319993764,459.56509689986706,461.5654426002875,None,1,0.613134128972888,2.61346622928977,increament,0.6,45,standard,None,100,,,,,,,,f,27,226,fr,r,0,raw,2022-06-28_11h08.25.497,oddball,2022.1.2,60.01493177282926,
20,,,,,0,0,0,3,3,0,3,0,19,0,19,0,,,,,,,,,,,,,,,,,461.58242089953274,None,462.16573579981923,462.7659371001646,462.74926429986954,464.7498725997284,None,1,0.6134090293198824,2.613971329294145,increament,0.6,45,standard,None,100,,,,,,,,f,27,226,fr,r,0,raw,2022-06-28_11h08.25.497,oddball,2022.1.2,60.01493177282926,
20,,,,,0,0,0,3,3,0,3,0,20,0,20,0,,,,,,,,,,,,,,,,,464.7665421003476,None,465.5339746000245,466.500625600107,466.4675038997084,468.4681128002703,j,1,0.9633827302604914,2.963961030356586,increament,0.96,48,oddball,j,160,0.6263548005372286,,,,,,,f,27,226,fr,r,0,raw,2022-06-28_11h08.25.497,oddball,2022.1.2,60.01493177282926,
20,,,,,0,0,0,3,3,0,3,0,21,0,21,0,,,,,,,,,,,,,,,,,468.48475420009345,None,469.0684930998832,469.668868499808,469.65196320042014,471.65308440010995,None,1,0.6113046295940876,2.6125342287123203,increament,0.6,45,standard,None,100,,,,,,,,f,27,226,fr,r,0,raw,2022-06-28_11h08.25.497,oddball,2022.1.2,60.01493177282926,
20,,,,,0,0,0,3,3,0,3,0,22,0,22,0,,,,,,,,,,,,,,,,,471.66959189996123,None,472.2863354003057,472.88683809991926,472.87045259959996,474.8704866003245,None,1,0.6120394300669432,2.6119976304471493,increament,0.6,45,standard,None,100,,,,,,,,f,27,226,fr,r,0,raw,2022-06-28_11h08.25.497,oddball,2022.1.2,60.01493177282926,
20,,,,,0,0,0,3,3,0,3,0,23,0,23,0,,,,,,,,,,,,,,,,,474.8873730003834,None,475.4704591995105,476.07134700007737,476.05484979972243,478.05501739960164,None,1,0.6131024304777384,2.613116730004549,increament,0.6,45,standard,None,100,,,,,,,,f,27,226,fr,r,0,raw,2022-06-28_11h08.25.497,oddball,2022.1.2,60.01493177282926,
20,,,,,0,0,0,3,3,0,3,0,24,0,24,0,,,,,,,,,,,,,,,,,478.07208480034024,None,478.7387702995911,479.58917239960283,479.5557993995026,481.5566614996642,None,0,0.8462569294497371,2.847141729667783,increament,0.84,47,oddball,j,140,,,,,,,,f,27,226,fr,r,0,raw,2022-06-28_11h08.25.497,oddball,2022.1.2,60.01493177282926,
20,,,,,0,0,0,3,3,0,3,0,25,0,25,0,,,,,,,,,,,,,,,,,481.5731427995488,None,482.3403327995911,482.941036099568,482.9236546996981,484.9250170998275,None,1,0.6118014305830002,2.613311130553484,increament,0.6,45,standard,None,100,,,,,,,,f,27,226,fr,r,0,raw,2022-06-28_11h08.25.497,oddball,2022.1.2,60.01493177282926,
20,,,,,0,0,0,3,3,0,3,0,26,0,26,0,,,,,,,,,,,,,,,,,484.9414405999705,None,485.4580191997811,486.0580451004207,486.041817500256,488.04292839951813,None,1,0.6130153303965926,2.6141753308475018,increament,0.6,45,standard,None,100,,,,,,,,f,27,226,fr,r,0,raw,2022-06-28_11h08.25.497,oddball,2022.1.2,60.01493177282926,
20,,,,,0,0,0,3,3,0,3,0,27,0,27,0,,,,,,,,,,,,,,,,,488.0589931998402,None,488.7761324001476,489.3761082002893,489.3593921996653,491.35999319981784,None,1,0.6109499307349324,2.6115453308448195,increament,0.6,45,standard,None,100,,,,,,,,f,27,226,fr,r,0,raw,2022-06-28_11h08.25.497,oddball,2022.1.2,60.01493177282926,
20,,,,,0,0,0,3,3,0,3,0,28,0,28,0,,,,,,,,,,,,,,,,,491.37687139958143,None,492.0943575995043,492.82742279954255,492.7942423997447,494.79490549955517,None,0,0.7272703303024173,2.728263230063021,increament,0.72,46,oddball,j,120,,,,,,,,f,27,226,fr,r,0,raw,2022-06-28_11h08.25.497,oddball,2022.1.2,60.01493177282926,
20,,,,,0,0,0,3,3,0,3,0,29,0,29,0,,,,,,,,,,,,,,,,,494.8113634996116,None,495.59517890028656,496.19559520017356,496.17894969973713,498.1794058997184,None,1,0.6116780303418636,2.6120600309222937,increament,0.6,45,standard,None,100,,,,,,,,f,27,226,fr,r,0,raw,2022-06-28_11h08.25.497,oddball,2022.1.2,60.01493177282926,
20,,,,,0,0,0,3,4,0,4,0,0,0,0,0,,,,,,,,,,,,,,,504.43681569956243,None,508.31658869981766,None,508.93371430039406,509.5339831998572,509.5174821000546,511.51795869972557,None,1,0.6111804293468595,2.611695229075849,decreament,0.6,41,standard,None,100,,498.19640580005944,None,,,,,f,27,226,fr,r,0,raw,2022-06-28_11h08.25.497,oddball,2022.1.2,60.01493177282926,
20,,,,,0,0,0,3,4,0,4,0,1,0,1,0,,,,,,,,,,,,,,,,,511.5365468999371,None,512.2520052995533,512.8516905000433,512.8350318996236,514.8358325995505,None,1,0.6096709305420518,2.610506230033934,decreament,0.6,41,standard,None,100,,,,,,,,f,27,226,fr,r,0,raw,2022-06-28_11h08.25.497,oddball,2022.1.2,60.01493177282926,
20,,,,,0,0,0,3,4,0,4,0,2,0,2,0,,,,,,,,,,,,,,,,,514.8527346998453,None,515.5694342004135,516.169942099601,516.1531282002106,518.1536013996229,None,1,0.6129527287557721,2.613387828692794,decreament,0.6,41,standard,None,100,,,,,,,,f,27,226,fr,r,0,raw,2022-06-28_11h08.25.497,oddball,2022.1.2,60.01493177282926,
20,,,,,0,0,0,3,4,0,4,0,3,0,3,0,,,,,,,,,,,,,,,,,518.170344799757,None,518.837352800183,519.4376980001107,519.4209241997451,521.4215025994927,None,1,0.6127797299996018,2.6132868295535445,decreament,0.6,41,standard,None,100,,,,,,,,f,27,226,fr,r,0,raw,2022-06-28_11h08.25.497,oddball,2022.1.2,60.01493177282926,
20,,,,,0,0,0,3,4,0,4,0,4,0,4,0,,,,,,,,,,,,,,,,,521.4381438000128,None,522.0553674995899,522.6551898997277,522.6389923999086,524.6397542003542,None,1,0.6107414308935404,2.611468531191349,decreament,0.6,41,standard,None,100,,,,,,,,f,27,226,fr,r,0,raw,2022-06-28_11h08.25.497,oddball,2022.1.2,60.01493177282926,
20,,,,,0,0,0,3,4,0,4,0,5,0,5,0,,,,,,,,,,,,,,,,,524.6560650002211,None,525.3230734001845,525.9231831999496,525.90660369955,527.9075291994959,None,1,0.6131708296015859,2.614092929288745,decreament,0.6,41,standard,None,100,,,,,,,,f,27,226,fr,r,0,raw,2022-06-28_11h08.25.497,oddball,2022.1.2,60.01493177282926,
20,,,,,0,0,0,3,4,0,4,0,6,0,6,0,,,,,,,,,,,,,,,,,527.924233100377,None,528.5744329001755,529.1747770002112,529.157768400386,531.1587260998785,None,1,0.6103088315576315,2.611316731199622,decreament,0.6,41,standard,None,100,,,,,,,,f,27,226,fr,r,0,raw,2022-06-28_11h08.25.497,oddball,2022.1.2,60.01493177282926,
20,,,,,0,0,0,3,4,0,4,0,7,0,7,0,,,,,,,,,,,,,,,,,531.1752164000645,None,531.8088002000004,532.4089289000258,532.3922672001645,534.3932040994987,None,1,0.6120477300137281,2.6129943300038576,decreament,0.6,41,standard,None,100,,,,,,,,f,27,226,fr,r,0,raw,2022-06-28_11h08.25.497,oddball,2022.1.2,60.01493177282926,
20,,,,,0,0,0,3,4,0,4,0,8,0,8,0,,,,,,,,,,,,,,,,,534.409807600081,None,535.0934822997078,535.6938669001684,535.6768782995641,537.6778512001038,None,1,0.6123191295191646,2.6133141294121742,decreament,0.6,41,standard,None,100,,,,,,,,f,27,226,fr,r,0,raw,2022-06-28_11h08.25.497,oddball,2022.1.2,60.01493177282926,
20,,,,,0,0,0,3,4,0,4,0,9,0,9,0,,,,,,,,,,,,,,,,,537.694604399614,None,538.3946497999132,538.8781466996297,538.8455844996497,540.8454456999898,None,0,0.47988572902977467,2.4796072291210294,decreament,0.48,44,oddball,j,80,,,,,,,,f,27,226,fr,r,0,raw,2022-06-28_11h08.25.497,oddball,2022.1.2,60.01493177282926,
20,,,,,0,0,0,3,4,0,4,0,10,0,10,0,,,,,,,,,,,,,,,,,540.8625109000131,None,541.4627740997821,542.0631095003337,542.0462744003162,544.0468225004151,None,1,0.6119513297453523,2.6124433297663927,decreament,0.6,41,standard,None,100,,,,,,,,f,27,226,fr,r,0,raw,2022-06-28_11h08.25.497,oddball,2022.1.2,60.01493177282926,
20,,,,,0,0,0,3,4,0,4,0,11,0,11,0,,,,,,,,,,,,,,,,,544.063713000156,None,544.7138203997165,545.3142221998423,545.2977170003578,547.2980378000066,None,1,0.6127696298062801,2.612983929924667,decreament,0.6,41,standard,None,100,,,,,,,,f,27,226,fr,r,0,raw,2022-06-28_11h08.25.497,oddball,2022.1.2,60.01493177282926,
20,,,,,0,0,0,3,4,0,4,0,12,0,12,0,,,,,,,,,,,,,,,,,547.3146999003366,None,547.998173199594,548.5987384999171,548.5818747002631,550.5824709003791,None,1,0.6144434306770563,2.6150096310302615,decreament,0.6,41,standard,None,100,,,,,,,,f,27,226,fr,r,0,raw,2022-06-28_11h08.25.497,oddball,2022.1.2,60.01493177282926,
20,,,,,0,0,0,3,4,0,4,0,13,0,13,0,,,,,,,,,,,,,,,,,550.5991289000958,None,551.500110800378,552.1000475995243,552.0831097997725,554.0843500997871,None,1,0.611935930326581,2.6132760299369693,decreament,0.6,41,standard,None,100,,,,,,,,f,27,226,fr,r,0,raw,2022-06-28_11h08.25.497,oddball,2022.1.2,60.01493177282926,
20,,,,,0,0,0,3,4,0,4,0,14,0,14,0,,,,,,,,,,,,,,,,,554.1021515997127,None,554.9343253001571,555.5344473002478,555.5186225995421,557.518371200189,None,1,0.6130543304607272,2.612674230709672,decreament,0.6,41,standard,None,100,,,,,,,,f,27,226,fr,r,0,raw,2022-06-28_11h08.25.497,oddball,2022.1.2,60.01493177282926,
20,,,,,0,0,0,3,4,0,4,0,15,0,15,0,,,,,,,,,,,,,,,,,557.5351165998727,None,558.3188942996785,558.919127699919,558.9029804999009,560.9030895996839,None,1,0.6131033301353455,2.6131610302254558,decreament,0.6,41,standard,None,100,,,,,,,,f,27,226,fr,r,0,raw,2022-06-28_11h08.25.497,oddball,2022.1.2,60.01493177282926,
20,,,,,0,0,0,3,4,0,4,0,16,0,16,0,,,,,,,,,,,,,,,,,560.91986740008,None,561.6701146000996,562.2702628998086,562.2542829997838,564.2550061997026,None,1,0.6128709306940436,2.613575130701065,decreament,0.6,41,standard,None,100,,,,,,,,f,27,226,fr,r,0,raw,2022-06-28_11h08.25.497,oddball,2022.1.2,60.01493177282926,
20,,,,,0,0,0,3,4,0,4,0,17,0,17,0,,,,,,,,,,,,,,,,,564.2716418998316,None,564.9545545000583,565.5547848995775,565.5382842998952,567.5391857996583,None,1,0.6122514307498932,2.6132127307355404,decreament,0.6,41,standard,None,100,,,,,,,,f,27,226,fr,r,0,raw,2022-06-28_11h08.25.497,oddball,2022.1.2,60.01493177282926,
20,,,,,0,0,0,3,4,0,4,0,18,0,18,0,,,,,,,,,,,,,,,,,567.5561141995713,None,568.1731236996129,568.7733703004196,568.7564639002085,570.7571526002139,None,1,0.61084443051368,2.6114495303481817,decreament,0.6,41,standard,None,100,,,,,,,,f,27,226,fr,r,0,raw,2022-06-28_11h08.25.497,oddball,2022.1.2,60.01493177282926,
20,,,,,0,0,0,3,4,0,4,0,19,0,19,0,,,,,,,,,,,,,,,,,570.7737948000431,None,571.4242075998336,572.024184900336,572.0078306999058,574.008680799976,None,1,0.6126475306227803,2.613468830473721,decreament,0.6,41,standard,None,100,,,,,,,,f,27,226,fr,r,0,raw,2022-06-28_11h08.25.497,oddball,2022.1.2,60.01493177282926,
20,,,,,0,0,0,3,4,0,4,0,20,0,20,0,,,,,,,,,,,,,,,,,574.0247828001156,None,574.5583269000053,574.9250164004043,574.8922745995224,576.892843700014,j,1,0.36291753128170967,2.3634870313107967,decreament,0.36,43,oddball,j,60,0.536655300296843,,,,,,,f,27,226,fr,r,0,raw,2022-06-28_11h08.25.497,oddball,2022.1.2,60.01493177282926,
20,,,,,0,0,0,3,4,0,4,0,21,0,21,0,,,,,,,,,,,,,,,,,576.910711299628,None,577.5928271003067,578.192864799872,578.1762846997008,580.1775521999225,None,1,0.6130319302901626,2.614397630095482,decreament,0.6,41,standard,None,100,,,,,,,,f,27,226,fr,r,0,raw,2022-06-28_11h08.25.497,oddball,2022.1.2,60.01493177282926,
20,,,,,0,0,0,3,4,0,4,0,22,0,22,0,,,,,,,,,,,,,,,,,580.1942157000303,None,580.9945384999737,581.5943034002557,581.5776212001219,583.5784628996626,None,1,0.6123492289334536,2.613198329694569,decreament,0.6,41,standard,None,100,,,,,,,,f,27,226,fr,r,0,raw,2022-06-28_11h08.25.497,oddball,2022.1.2,60.01493177282926,
20,,,,,0,0,0,3,4,0,4,0,23,0,23,0,,,,,,,,,,,,,,,,,583.5952150002122,None,584.2455000001937,584.8458906998858,584.8293934995309,586.8300660997629,None,1,0.6132058305665851,2.61386482976377,decreament,0.6,41,standard,None,100,,,,,,,,f,27,226,fr,r,0,raw,2022-06-28_11h08.25.497,oddball,2022.1.2,60.01493177282926,
20,,,,,0,0,0,3,4,0,4,0,24,0,24,0,,,,,,,,,,,,,,,,,586.8465956002474,None,587.4968568002805,588.0968659995124,588.0800936995074,590.0809628004208,None,1,0.6091146301478148,2.6100233299657702,decreament,0.6,41,standard,None,100,,,,,,,,f,27,226,fr,r,0,raw,2022-06-28_11h08.25.497,oddball,2022.1.2,60.01493177282926,
20,,,,,0,0,0,3,4,0,4,0,25,0,25,0,,,,,,,,,,,,,,,,,590.0976449996233,None,590.6147868996486,591.2145969998091,591.1980435997248,593.198736499995,j,0,0.6070933295413852,2.607782829552889,decreament,0.6,41,standard,None,100,0.5185592006891966,,,,,,,f,27,226,fr,r,0,raw,2022-06-28_11h08.25.497,oddball,2022.1.2,60.01493177282926,
20,,,,,0,0,0,3,4,0,4,0,26,0,26,0,,,,,,,,,,,,,,,,,593.2154107997194,None,593.7991404999048,594.3993178000674,594.3825674997643,596.3829378001392,None,1,0.6112675294280052,2.611550529487431,decreament,0.6,41,standard,None,100,,,,,,,,f,27,226,fr,r,0,raw,2022-06-28_11h08.25.497,oddball,2022.1.2,60.01493177282926,
20,,,,,0,0,0,3,4,0,4,0,27,0,27,0,,,,,,,,,,,,,,,,,596.399655399844,None,597.1668101996183,597.7670743996277,597.7502327002585,599.7512745000422,None,1,0.6132047288119793,2.6142796287313104,decreament,0.6,41,standard,None,100,,,,,,,,f,27,226,fr,r,0,raw,2022-06-28_11h08.25.497,oddball,2022.1.2,60.01493177282926,
20,,,,,0,0,0,3,4,0,4,0,28,0,28,0,,,,,,,,,,,,,,,,,599.767913499847,None,600.3852083003148,600.63485340029,600.6018950995058,602.6025066003203,j,1,0.2449719300493598,2.245614230632782,decreament,0.24,42,oddball,j,40,0.7629463011398911,,,,,,,f,27,226,fr,r,0,raw,2022-06-28_11h08.25.497,oddball,2022.1.2,60.01493177282926,
20,,,,,0,0,0,3,4,0,4,0,29,0,29,0,,,,,,,,,,,,,,,,,602.6193078001961,None,603.2524480996653,603.8529735999182,603.836270599626,605.8370310999453,None,1,0.6134723303839564,2.614219930022955,decreament,0.6,41,standard,None,100,,,,,,,,f,27,226,fr,r,0,raw,2022-06-28_11h08.25.497,oddball,2022.1.2,60.01493177282926,
20,,,,,0,0,0,3,5,0,5,0,0,0,0,0,,,,,,,,,,,,,,,608.4744338002056,None,609.6718172002584,None,610.221931300126,610.8221333995461,610.8060263004154,612.8059462998062,None,1,0.6135973297059536,2.6134227300062776,increament,0.6,45,standard,None,100,,605.8541262000799,None,,,,,f,27,226,fr,r,0,raw,2022-06-28_11h08.25.497,oddball,2022.1.2,60.01493177282926,
20,,,,,0,0,0,3,5,0,5,0,1,0,1,0,,,,,,,,,,,,,,,,,612.8226455999538,None,613.3731905994937,613.973329000175,613.9566251002252,615.9575706003234,None,1,0.6083672307431698,2.6093410309404135,increament,0.6,45,standard,None,100,,,,,,,,f,27,226,fr,r,0,raw,2022-06-28_11h08.25.497,oddball,2022.1.2,60.01493177282926,
20,,,,,0,0,0,3,5,0,5,0,2,0,2,0,,,,,,,,,,,,,,,,,615.9741770001128,None,616.6077573001385,617.207697100006,617.1911103995517,619.1918093999848,None,1,0.612339030019939,2.6129554295912385,increament,0.6,45,standard,None,100,,,,,,,,f,27,226,fr,r,0,raw,2022-06-28_11h08.25.497,oddball,2022.1.2,60.01493177282926,
20,,,,,0,0,0,3,5,0,5,0,3,0,3,0,,,,,,,,,,,,,,,,,619.2083836002275,None,619.7588275996968,620.3592891003937,620.3424423001707,622.3430621000007,None,1,0.6103258300572634,2.6109083304181695,increament,0.6,45,standard,None,100,,,,,,,,f,27,226,fr,r,0,raw,2022-06-28_11h08.25.497,oddball,2022.1.2,60.01493177282926,
20,,,,,0,0,0,3,5,0,5,0,4,0,4,0,,,,,,,,,,,,,,,,,622.3596796002239,None,623.0273877996951,623.6271101003513,623.6105161998421,625.6109600998461,None,1,0.6116541298106313,2.61210623010993,increament,0.6,45,standard,None,100,,,,,,,,f,27,226,fr,r,0,raw,2022-06-28_11h08.25.497,oddball,2022.1.2,60.01493177282926,
20,,,,,0,0,0,3,5,0,5,0,5,0,5,0,,,,,,,,,,,,,,,,,625.6277235001326,None,626.3280074000359,627.1783571997657,627.144944800064,629.1457607001066,j,1,0.8456106297671795,2.846424230374396,increament,0.84,47,oddball,j,140,0.8676144005730748,,,,,,,f,27,226,fr,r,0,raw,2022-06-28_11h08.25.497,oddball,2022.1.2,60.01493177282926,
20,,,,,0,0,0,3,5,0,5,0,6,0,6,0,,,,,,,,,,,,,,,,,629.1626319997013,None,629.8460099995136,630.4461514996365,630.4298940002918,632.4307017996907,None,1,0.61165193002671,2.6125154299661517,increament,0.6,45,standard,None,100,,,,,,,,f,27,226,fr,r,0,raw,2022-06-28_11h08.25.497,oddball,2022.1.2,60.01493177282926,
20,,,,,0,0,0,3,5,0,5,0,7,0,7,0,,,,,,,,,,,,,,,,,632.4470014004037,None,633.2640311997384,633.8642106000334,633.8475118996575,635.8485716003925,None,1,0.6123402304947376,2.6133936308324337,increament,0.6,45,standard,None,100,,,,,,,,f,27,226,fr,r,0,raw,2022-06-28_11h08.25.497,oddball,2022.1.2,60.01493177282926,
20,,,,,0,0,0,3,5,0,5,0,8,0,8,0,,,,,,,,,,,,,,,,,635.8652272997424,None,636.4318287996575,637.0320333000273,637.0154055999592,639.0163005003706,None,1,0.6125743305310607,2.613476230762899,increament,0.6,45,standard,None,100,,,,,,,,f,27,226,fr,r,0,raw,2022-06-28_11h08.25.497,oddball,2022.1.2,60.01493177282926,
20,,,,,0,0,0,3,5,0,5,0,9,0,9,0,,,,,,,,,,,,,,,,,639.0326555995271,None,639.6498370002955,640.3835734995082,640.3501172000542,642.3504560003057,None,0,0.7295783301815391,2.729872230440378,increament,0.72,46,oddball,j,120,,,,,,,,f,27,226,fr,r,0,raw,2022-06-28_11h08.25.497,oddball,2022.1.2,60.01493177282926,
20,,,,,0,0,0,3,5,0,5,0,10,0,10,0,,,,,,,,,,,,,,,,,642.367288899608,None,643.1016581002623,643.7012644000351,643.6846158001572,645.6853050002828,None,1,0.6129242284223437,2.6135935289785266,increament,0.6,45,standard,None,100,,,,,,,,f,27,226,fr,r,0,raw,2022-06-28_11h08.25.497,oddball,2022.1.2,60.01493177282926,
20,,,,,0,0,0,3,5,0,5,0,11,0,11,0,,,,,,,,,,,,,,,,,645.7019287999719,None,646.5025052996352,647.1024725995958,647.0862258998677,649.0864049000666,None,1,0.612517730332911,2.6125070303678513,increament,0.6,45,standard,None,100,,,,,,,,f,27,226,fr,r,0,raw,2022-06-28_11h08.25.497,oddball,2022.1.2,60.01493177282926,
20,,,,,0,0,0,3,5,0,5,0,12,0,12,0,,,,,,,,,,,,,,,,,649.1032335003838,None,649.7537204995751,650.3538351003081,650.3372980002314,652.3377053001896,None,1,0.6126238303259015,2.613015729933977,increament,0.6,45,standard,None,100,,,,,,,,f,27,226,fr,r,0,raw,2022-06-28_11h08.25.497,oddball,2022.1.2,60.01493177282926,
20,,,,,0,0,0,3,5,0,5,0,13,0,13,0,,,,,,,,,,,,,,,,,652.3548301998526,None,653.0713887996972,653.6716828998178,653.655195100233,655.656207899563,None,1,0.6125313295051455,2.6135563291609287,increament,0.6,45,standard,None,100,,,,,,,,f,27,226,fr,r,0,raw,2022-06-28_11h08.25.497,oddball,2022.1.2,60.01493177282926,
20,,,,,0,0,0,3,5,0,5,0,14,0,14,0,,,,,,,,,,,,,,,,,655.6724723996595,None,656.3559368001297,656.9560581995174,656.9393710996956,658.9403948998079,None,1,0.6095807300880551,2.6106081306934357,increament,0.6,45,standard,None,100,,,,,,,,f,27,226,fr,r,0,raw,2022-06-28_11h08.25.497,oddball,2022.1.2,60.01493177282926,
20,,,,,0,0,0,3,5,0,5,0,15,0,15,0,,,,,,,,,,,,,,,,,658.9570623002946,None,659.4741548998281,660.0740388995036,660.0573874004185,662.0581630999222,None,1,0.6088716303929687,2.609680729918182,increament,0.6,45,standard,None,100,,,,,,,,f,27,226,fr,r,0,raw,2022-06-28_11h08.25.497,oddball,2022.1.2,60.01493177282926,
20,,,,,0,0,0,3,5,0,5,0,16,0,16,0,,,,,,,,,,,,,,,,,662.0750896995887,None,662.7585057001561,663.3586790002882,663.3421703996137,665.3428911995143,None,1,0.6118814283981919,2.6125882286578417,increament,0.6,45,standard,None,100,,,,,,,,f,27,226,fr,r,0,raw,2022-06-28_11h08.25.497,oddball,2022.1.2,60.01493177282926,
20,,,,,0,0,0,3,5,0,5,0,17,0,17,0,,,,,,,,,,,,,,,,,665.3595299003646,None,665.9931175000966,666.5933878002688,666.5766960997134,668.5774758998305,None,1,0.613270029425621,2.6140019288286567,increament,0.6,45,standard,None,100,,,,,,,,f,27,226,fr,r,0,raw,2022-06-28_11h08.25.497,oddball,2022.1.2,60.01493177282926,
20,,,,,0,0,0,3,5,0,5,0,18,0,18,0,,,,,,,,,,,,,,,,,668.5940153999254,None,669.2443449003622,669.844421800226,669.8279544999823,671.8286894997582,None,1,0.6112315291538835,2.6119846291840076,increament,0.6,45,standard,None,100,,,,,,,,f,27,226,fr,r,0,raw,2022-06-28_11h08.25.497,oddball,2022.1.2,60.01493177282926,
20,,,,,0,0,0,3,5,0,5,0,19,0,19,0,,,,,,,,,,,,,,,,,671.8454275997356,None,672.5452282000333,673.1456409003586,673.1289021996781,675.1296806996688,None,1,0.6142053296789527,2.614992329850793,increament,0.6,45,standard,None,100,,,,,,,,f,27,226,fr,r,0,raw,2022-06-28_11h08.25.497,oddball,2022.1.2,60.01493177282926,
20,,,,,0,0,0,3,5,0,5,0,20,0,20,0,,,,,,,,,,,,,,,,,675.1464780997485,None,675.8967548999935,676.4970878995955,676.4803624004126,678.4809929002076,None,1,0.6119299298152328,2.6125343292951584,increament,0.6,45,standard,None,100,,,,,,,,f,27,226,fr,r,0,raw,2022-06-28_11h08.25.497,oddball,2022.1.2,60.01493177282926,
20,,,,,0,0,0,3,5,0,5,0,21,0,21,0,,,,,,,,,,,,,,,,,678.4975998997688,None,679.1646413998678,679.7649616003036,679.7481611995026,681.7485085995868,None,1,0.608921030536294,2.609207230620086,increament,0.6,45,standard,None,100,,,,,,,,f,27,226,fr,r,0,raw,2022-06-28_11h08.25.497,oddball,2022.1.2,60.01493177282926,
20,,,,,0,0,0,3,5,0,5,0,22,0,22,0,,,,,,,,,,,,,,,,,681.7651921994984,None,682.5823274003342,683.1827285001054,683.1664969995618,685.167308899574,None,1,0.6146323289722204,2.615559528581798,increament,0.6,45,standard,None,100,,,,,,,,f,27,226,fr,r,0,raw,2022-06-28_11h08.25.497,oddball,2022.1.2,60.01493177282926,
20,,,,,0,0,0,3,5,0,5,0,23,0,23,0,,,,,,,,,,,,,,,,,685.1838322002441,None,685.7838725997135,686.3842655997723,686.3677855003625,688.3682556003332,j,0,0.6125943306833506,2.6130157308652997,increament,0.6,45,standard,None,100,0.3732478003948927,,,,,,,f,27,226,fr,r,0,raw,2022-06-28_11h08.25.497,oddball,2022.1.2,60.01493177282926,
20,,,,,0,0,0,3,5,0,5,0,24,0,24,0,,,,,,,,,,,,,,,,,688.3849673001096,None,688.968689199537,689.9353997996077,689.9188406998292,691.919748400338,j,1,0.9748110305517912,2.975766430608928,increament,0.96,48,oddball,j,160,0.39004600048065186,,,,,,,f,27,226,fr,r,0,raw,2022-06-28_11h08.25.497,oddball,2022.1.2,60.01493177282926,
20,,,,,0,0,0,3,5,0,5,0,25,0,25,0,,,,,,,,,,,,,,,,,691.936362599954,None,692.5862472997978,693.1865827003494,693.1699928995222,695.1707793995738,None,1,0.6137951286509633,2.6146246287971735,increament,0.6,45,standard,None,100,,,,,,,,f,27,226,fr,r,0,raw,2022-06-28_11h08.25.497,oddball,2022.1.2,60.01493177282926,
20,,,,,0,0,0,3,5,0,5,0,26,0,26,0,,,,,,,,,,,,,,,,,695.187498900108,None,695.9877030998468,696.5881295995787,696.5712403003126,698.572169800289,None,1,0.6133016319945455,2.6142618311569095,increament,0.6,45,standard,None,100,,,,,,,,f,27,226,fr,r,0,raw,2022-06-28_11h08.25.497,oddball,2022.1.2,60.01493177282926,
20,,,,,0,0,0,3,5,0,5,0,27,0,27,0,,,,,,,,,,,,,,,,,698.5886017000303,None,699.2722408995032,699.8724376996979,699.8560202000663,701.8565907999873,None,1,0.6124978307634592,2.613049929961562,increament,0.6,45,standard,None,100,,,,,,,,f,27,226,fr,r,0,raw,2022-06-28_11h08.25.497,oddball,2022.1.2,60.01493177282926,
20,,,,,0,0,0,3,5,0,5,0,28,0,28,0,,,,,,,,,,,,,,,,,701.8732107998803,None,702.523805799894,703.1235082000494,703.1071507995948,705.1078177997842,None,1,0.6108414307236671,2.611512631177902,increament,0.6,45,standard,None,100,,,,,,,,f,27,226,fr,r,0,raw,2022-06-28_11h08.25.497,oddball,2022.1.2,60.01493177282926,
20,,,,,0,0,0,3,5,0,5,0,29,0,29,0,,,,,,,,,,,,,,,,,705.1244350001216,None,705.9084369000047,706.5085242995992,706.4916172996163,708.4926183000207,None,1,0.6127287307754159,2.6138343308120966,increament,0.6,45,standard,None,100,,,,,,,,f,27,226,fr,r,0,raw,2022-06-28_11h08.25.497,oddball,2022.1.2,60.01493177282926,
20,,,,,0,0,0,3,6,0,6,0,0,0,0,0,,,,,,,,,,,,,,,709.9617742998526,None,713.894462400116,None,714.5950458003208,715.195242700167,715.178641599603,717.1786935003474,None,1,0.6123630311340094,2.612345331348479,decreament,0.6,41,standard,None,100,,708.5095228003338,None,,,,,f,27,226,fr,r,0,raw,2022-06-28_11h08.25.497,oddball,2022.1.2,60.01493177282926,
20,,,,,0,0,0,3,6,0,6,0,1,0,1,0,,,,,,,,,,,,,,,,,717.1953723002225,None,717.8793852003291,718.4793662000448,718.4626752994955,720.4638711996377,None,1,0.6135218301787972,2.614861230365932,decreament,0.6,41,standard,None,100,,,,,,,,f,27,226,fr,r,0,raw,2022-06-28_11h08.25.497,oddball,2022.1.2,60.01493177282926,
20,,,,,0,0,0,3,6,0,6,0,2,0,2,0,,,,,,,,,,,,,,,,,720.4808059995994,None,721.0972894998267,721.6974079003558,721.6808711998165,723.681430099532,None,1,0.6117207305505872,2.6122785303741693,decreament,0.6,41,standard,None,100,,,,,,,,f,27,226,fr,r,0,raw,2022-06-28_11h08.25.497,oddball,2022.1.2,60.01493177282926,
20,,,,,0,0,0,3,6,0,6,0,3,0,3,0,,,,,,,,,,,,,,,,,723.6981482999399,None,724.2983702998608,724.8985433997586,724.88212009985,726.8828828996047,None,1,0.6125744292512536,2.6133804293349385,decreament,0.6,41,standard,None,100,,,,,,,,f,27,226,fr,r,0,raw,2022-06-28_11h08.25.497,oddball,2022.1.2,60.01493177282926,
20,,,,,0,0,0,3,6,0,6,0,4,0,4,0,,,,,,,,,,,,,,,,,726.8999972995371,None,727.5995447998866,728.200252099894,728.1833851002157,730.1840215995908,None,1,0.6124596297740936,2.6130493292585015,decreament,0.6,41,standard,None,100,,,,,,,,f,27,226,fr,r,0,raw,2022-06-28_11h08.25.497,oddball,2022.1.2,60.01493177282926,
20,,,,,0,0,0,3,6,0,6,0,5,0,5,0,,,,,,,,,,,,,,,,,730.2008327003568,None,730.9176618997008,731.1676107998937,731.1343015003949,733.1351589001715,j,1,0.24457543063908815,2.2454238310456276,decreament,0.24,42,oddball,j,40,0.8863832000643015,,,,,,,f,27,226,fr,r,0,raw,2022-06-28_11h08.25.497,oddball,2022.1.2,60.01493177282926,
20,,,,,0,0,0,3,6,0,6,0,6,0,6,0,,,,,,,,,,,,,,,,,733.1518024997786,None,733.969110599719,734.5687995003536,734.5522758001462,736.5532205002382,None,1,0.6122829290106893,2.6131955292075872,decreament,0.6,41,standard,None,100,,,,,,,,f,27,226,fr,r,0,raw,2022-06-28_11h08.25.497,oddball,2022.1.2,60.01493177282926,
20,,,,,0,0,0,3,6,0,6,0,7,0,7,0,,,,,,,,,,,,,,,,,736.5695653995499,None,737.253388799727,737.8539070002735,737.8373645003885,739.8375784996897,None,1,0.6126215308904648,2.6127483304589987,decreament,0.6,41,standard,None,100,,,,,,,,f,27,226,fr,r,0,raw,2022-06-28_11h08.25.497,oddball,2022.1.2,60.01493177282926,
20,,,,,0,0,0,3,6,0,6,0,8,0,8,0,,,,,,,,,,,,,,,,,739.854119299911,None,740.4377138996497,741.0382850999013,741.0217426996678,743.022199199535,None,1,0.6146370312198997,2.615086430683732,decreament,0.6,41,standard,None,100,,,,,,,,f,27,226,fr,r,0,raw,2022-06-28_11h08.25.497,oddball,2022.1.2,60.01493177282926,
20,,,,,0,0,0,3,6,0,6,0,9,0,9,0,,,,,,,,,,,,,,,,,743.0391137003899,None,743.6558004003018,744.2557891001925,744.2393011003733,746.2401956003159,None,1,0.6095256293192506,2.610509829595685,decreament,0.6,41,standard,None,100,,,,,,,,f,27,226,fr,r,0,raw,2022-06-28_11h08.25.497,oddball,2022.1.2,60.01493177282926,
20,,,,,0,0,0,3,6,0,6,0,10,0,10,0,,,,,,,,,,,,,,,,,746.2569094998762,None,746.9237286001444,747.5237747002393,747.507059100084,749.5080428002402,None,1,0.6100287307053804,2.611024131067097,decreament,0.6,41,standard,None,100,,,,,,,,f,27,226,fr,r,0,raw,2022-06-28_11h08.25.497,oddball,2022.1.2,60.01493177282926,
20,,,,,0,0,0,3,6,0,6,0,11,0,11,0,,,,,,,,,,,,,,,,,749.5248141996562,None,750.1249626995996,750.7251079995185,750.7087337002158,752.7091507995501,None,1,0.6129895318299532,2.6133384313434362,decreament,0.6,41,standard,None,100,,,,,,,,f,27,226,fr,r,0,raw,2022-06-28_11h08.25.497,oddball,2022.1.2,60.01493177282926,
20,,,,,0,0,0,3,6,0,6,0,12,0,12,0,,,,,,,,,,,,,,,,,752.7258168999106,None,753.3095792001113,753.9101646002382,753.893203499727,755.8935540998355,None,1,0.6132181314751506,2.6134910313412547,decreament,0.6,41,standard,None,100,,,,,,,,f,27,226,fr,r,0,raw,2022-06-28_11h08.25.497,oddball,2022.1.2,60.01493177282926,
20,,,,,0,0,0,3,6,0,6,0,13,0,13,0,,,,,,,,,,,,,,,,,755.9104997003451,None,756.5938012003899,757.1941785002127,757.1775877000764,759.1785353999585,None,1,0.6138378297910094,2.614892330020666,decreament,0.6,41,standard,None,100,,,,,,,,f,27,226,fr,r,0,raw,2022-06-28_11h08.25.497,oddball,2022.1.2,60.01493177282926,
20,,,,,0,0,0,3,6,0,6,0,14,0,14,0,,,,,,,,,,,,,,,,,759.1957852002233,None,759.9955148994923,760.5957079995424,760.5787607999519,762.5799537999555,None,1,0.6096757296472788,2.6109385304152966,decreament,0.6,41,standard,None,100,,,,,,,,f,27,226,fr,r,0,raw,2022-06-28_11h08.25.497,oddball,2022.1.2,60.01493177282926,
20,,,,,0,0,0,3,6,0,6,0,15,0,15,0,,,,,,,,,,,,,,,,,762.5963968997821,None,763.1797310998663,763.7798745995387,763.7633653003722,765.7641204996035,None,1,0.6134550292044878,2.614217028953135,decreament,0.6,41,standard,None,100,,,,,,,,f,27,226,fr,r,0,raw,2022-06-28_11h08.25.497,oddball,2022.1.2,60.01493177282926,
20,,,,,0,0,0,3,6,0,6,0,16,0,16,0,,,,,,,,,,,,,,,,,765.7807010002434,None,766.4976295996457,767.0978920999914,767.0813076002523,769.0822515003383,None,1,0.6125842295587063,2.613585129380226,decreament,0.6,41,standard,None,100,,,,,,,,f,27,226,fr,r,0,raw,2022-06-28_11h08.25.497,oddball,2022.1.2,60.01493177282926,
20,,,,,0,0,0,3,6,0,6,0,17,0,17,0,,,,,,,,,,,,,,,,,769.0992687996477,None,769.7990721995011,770.3989381995052,770.382436200045,772.383306699805,None,1,0.613720728084445,2.614647028967738,decreament,0.6,41,standard,None,100,,,,,,,,f,27,226,fr,r,0,raw,2022-06-28_11h08.25.497,oddball,2022.1.2,60.01493177282926,
20,,,,,0,0,0,3,6,0,6,0,18,0,18,0,,,,,,,,,,,,,,,,,772.4000821001828,None,773.0169500000775,773.6173954000697,773.6006464995444,775.601028399542,None,1,0.6122295306995511,2.6125771310180426,decreament,0.6,41,standard,None,100,,,,,,,,f,27,226,fr,r,0,raw,2022-06-28_11h08.25.497,oddball,2022.1.2,60.01493177282926,
20,,,,,0,0,0,3,6,0,6,0,19,0,19,0,,,,,,,,,,,,,,,,,775.6178863001987,None,776.2518085995689,776.6182362996042,776.5848861001432,778.585227499716,j,1,0.3614427298307419,2.3617231296375394,decreament,0.36,43,oddball,j,60,0.675907900556922,,,,,,,f,27,226,fr,r,0,raw,2022-06-28_11h08.25.497,oddball,2022.1.2,60.01493177282926,
20,,,,,0,0,0,3,6,0,6,0,20,0,20,0,,,,,,,,,,,,,,,,,778.601911299862,None,779.2192912995815,779.8192937001586,779.8029984999448,781.8035773998126,None,1,0.6118428306654096,2.612389230169356,decreament,0.6,41,standard,None,100,,,,,,,,f,27,226,fr,r,0,raw,2022-06-28_11h08.25.497,oddball,2022.1.2,60.01493177282926,
20,,,,,0,0,0,3,6,0,6,0,21,0,21,0,,,,,,,,,,,,,,,,,781.8202814999968,None,782.4537837998942,783.0540896002203,783.0371586997062,785.0382602997124,None,1,0.6111877309158444,2.6123230308294296,decreament,0.6,41,standard,None,100,,,,,,,,f,27,226,fr,r,0,raw,2022-06-28_11h08.25.497,oddball,2022.1.2,60.01493177282926,
20,,,,,0,0,0,3,6,0,6,0,22,0,22,0,,,,,,,,,,,,,,,,,785.0549620995298,None,785.6051412001252,786.2050919998437,786.1884845998138,788.1893116999418,None,1,0.6103188311681151,2.6111469315364957,decreament,0.6,41,standard,None,100,,,,,,,,f,27,226,fr,r,0,raw,2022-06-28_11h08.25.497,oddball,2022.1.2,60.01493177282926,
20,,,,,0,0,0,3,6,0,6,0,23,0,23,0,,,,,,,,,,,,,,,,,788.2060062000528,None,788.8232215996832,789.4230757001787,789.4064827002585,791.4070680001751,None,1,0.6111031295731664,2.6116864290088415,decreament,0.6,41,standard,None,100,,,,,,,,f,27,226,fr,r,0,raw,2022-06-28_11h08.25.497,oddball,2022.1.2,60.01493177282926,
20,,,,,0,0,0,3,6,0,6,0,24,0,24,0,,,,,,,,,,,,,,,,,791.4237537002191,None,792.0070663997903,792.607620799914,792.5910118995234,794.5918129002675,None,1,0.6146618295460939,2.615501729771495,decreament,0.6,41,standard,None,100,,,,,,,,f,27,226,fr,r,0,raw,2022-06-28_11h08.25.497,oddball,2022.1.2,60.01493177282926,
20,,,,,0,0,0,3,6,0,6,0,25,0,25,0,,,,,,,,,,,,,,,,,794.6082995003089,None,795.2087990995497,795.8087614998221,795.79218280036,797.7929434999824,None,1,0.6101001296192408,2.610845630057156,decreament,0.6,41,standard,None,100,,,,,,,,f,27,226,fr,r,0,raw,2022-06-28_11h08.25.497,oddball,2022.1.2,60.01493177282926,
20,,,,,0,0,0,3,6,0,6,0,26,0,26,0,,,,,,,,,,,,,,,,,797.8097521001473,None,798.3432911001146,798.9433191996068,798.9267836995423,800.927271399647,None,1,0.6110717300325632,2.6115582305938005,decreament,0.6,41,standard,None,100,,,,,,,,f,27,226,fr,r,0,raw,2022-06-28_11h08.25.497,oddball,2022.1.2,60.01493177282926,
20,,,,,0,0,0,3,6,0,6,0,27,0,27,0,,,,,,,,,,,,,,,,,800.9439861001447,None,801.52756460011,802.1277940999717,802.1113745998591,804.1121678994969,None,1,0.6145014287903905,2.61533712875098,decreament,0.6,41,standard,None,100,,,,,,,,f,27,226,fr,r,0,raw,2022-06-28_11h08.25.497,oddball,2022.1.2,60.01493177282926,
20,,,,,0,0,0,3,6,0,6,0,28,0,28,0,,,,,,,,,,,,,,,,,804.128476199694,None,804.8955600000918,805.3792233001441,805.3460146002471,807.3463498996571,j,1,0.4792197300121188,2.4794748295098543,decreament,0.48,44,oddball,j,80,0.9544020006433129,,,,,,,f,27,226,fr,r,0,raw,2022-06-28_11h08.25.497,oddball,2022.1.2,60.01493177282926,
20,,,,,0,0,0,3,6,0,6,0,29,0,29,0,,,,,,,,,,,,,,,,,807.3633428998291,None,808.03028549999,808.6304371999577,808.613527899608,810.6147336997092,None,1,0.6124733313918114,2.613773931749165,decreament,0.6,41,standard,None,100,,,,,,,,f,27,226,fr,r,0,raw,2022-06-28_11h08.25.497,oddball,2022.1.2,60.01493177282926,
20,,,,,0,0,0,3,7,0,7,0,0,0,0,0,,,,,,,,,,,,,,,812.4191701998934,None,814.3990492997691,None,815.0661752996966,815.6662922995165,815.649509199895,817.6505726994947,None,1,0.6099068308249116,2.6109862299636006,increament,0.6,45,standard,None,100,,810.6319797001779,None,,,,,f,27,226,fr,r,0,raw,2022-06-28_11h08.25.497,oddball,2022.1.2,60.01493177282926,
20,,,,,0,0,0,3,7,0,7,0,1,0,1,0,,,,,,,,,,,,,,,,,817.6670955000445,None,818.3173712994903,818.9173402003944,818.9011003002524,820.9015867998824,None,1,0.6135295312851667,2.6140154311433434,increament,0.6,45,standard,None,100,,,,,,,,f,27,226,fr,r,0,raw,2022-06-28_11h08.25.497,oddball,2022.1.2,60.01493177282926,
20,,,,,0,0,0,3,7,0,7,0,2,0,2,0,,,,,,,,,,,,,,,,,820.9182714000344,None,821.501870200038,822.1021573999897,822.0859356997535,824.08613399975,None,1,0.6136863296851516,2.6138120302930474,increament,0.6,45,standard,None,100,,,,,,,,f,27,226,fr,r,0,raw,2022-06-28_11h08.25.497,oddball,2022.1.2,60.01493177282926,
20,,,,,0,0,0,3,7,0,7,0,3,0,3,0,,,,,,,,,,,,,,,,,824.1029909998178,None,824.7196524003521,825.3203568002209,825.3036919003353,827.3043753001839,None,1,0.6117718294262886,2.612453229725361,increament,0.6,45,standard,None,100,,,,,,,,f,27,226,fr,r,0,raw,2022-06-28_11h08.25.497,oddball,2022.1.2,60.01493177282926,
20,,,,,0,0,0,3,7,0,7,0,4,0,4,0,,,,,,,,,,,,,,,,,827.3208382995799,None,827.8376182001084,828.4381045000628,828.4215379003435,830.4224725998938,None,1,0.6129711307585239,2.613932430744171,increament,0.6,45,standard,None,100,,,,,,,,f,27,226,fr,r,0,raw,2022-06-28_11h08.25.497,oddball,2022.1.2,60.01493177282926,
20,,,,,0,0,0,3,7,0,7,0,5,0,5,0,,,,,,,,,,,,,,,,,830.4383276002482,None,831.1388873001561,831.7389418995008,831.7227028002962,833.7232302995399,None,1,0.6105153299868107,2.611055630259216,increament,0.6,45,standard,None,100,,,,,,,,f,27,226,fr,r,0,raw,2022-06-28_11h08.25.497,oddball,2022.1.2,60.01493177282926,
20,,,,,0,0,0,3,7,0,7,0,6,0,6,0,,,,,,,,,,,,,,,,,833.7399878995493,None,834.2905267998576,834.8902086997405,834.8738339999691,836.874290600419,None,1,0.612673930823803,2.613116230815649,increament,0.6,45,standard,None,100,,,,,,,,f,27,226,fr,r,0,raw,2022-06-28_11h08.25.497,oddball,2022.1.2,60.01493177282926,
20,,,,,0,0,0,3,7,0,7,0,7,0,7,0,,,,,,,,,,,,,,,,,836.8912612004206,None,837.5578327002004,838.158029999584,838.1415304997936,840.1421950999647,None,1,0.6133234305307269,2.6140099307522178,increament,0.6,45,standard,None,100,,,,,,,,f,27,226,fr,r,0,raw,2022-06-28_11h08.25.497,oddball,2022.1.2,60.01493177282926,
20,,,,,0,0,0,3,7,0,7,0,8,0,8,0,,,,,,,,,,,,,,,,,840.1589636001736,None,840.8591914996505,841.4594010999426,841.4433169998229,843.4434567000717,None,1,0.6131125306710601,2.6131951306015253,increament,0.6,45,standard,None,100,,,,,,,,f,27,226,fr,r,0,raw,2022-06-28_11h08.25.497,oddball,2022.1.2,60.01493177282926,
20,,,,,0,0,0,3,7,0,7,0,9,0,9,0,,,,,,,,,,,,,,,,,843.4601042997092,None,844.2104024998844,844.8112081000581,844.7942928001285,846.7949574999511,None,1,0.6136913308873773,2.6143518313765526,increament,0.6,45,standard,None,100,,,,,,,,f,27,226,fr,r,0,raw,2022-06-28_11h08.25.497,oddball,2022.1.2,60.01493177282926,
20,,,,,0,0,0,3,7,0,7,0,10,0,10,0,,,,,,,,,,,,,,,,,846.8116635000333,None,847.545462500304,848.1451153000817,848.1283849999309,850.1293246001005,None,1,0.6106334291398525,2.611635728739202,increament,0.6,45,standard,None,100,,,,,,,,f,27,226,fr,r,0,raw,2022-06-28_11h08.25.497,oddball,2022.1.2,60.01493177282926,
20,,,,,0,0,0,3,7,0,7,0,11,0,11,0,,,,,,,,,,,,,,,,,850.1459972001612,None,850.8135419003665,851.4132829997689,851.3965827003121,853.3971812995151,None,1,0.6122912298887968,2.6128536304458976,increament,0.6,45,standard,None,100,,,,,,,,f,27,226,fr,r,0,raw,2022-06-28_11h08.25.497,oddball,2022.1.2,60.01493177282926,
20,,,,,0,0,0,3,7,0,7,0,12,0,12,0,,,,,,,,,,,,,,,,,853.4140651002526,None,854.1477485001087,854.7479004999623,854.7313259998336,856.7319414997473,j,0,0.6119715292006731,2.6125963293015957,increament,0.6,45,standard,None,100,0.34559750091284513,,,,,,,f,27,226,fr,r,0,raw,2022-06-28_11h08.25.497,oddball,2022.1.2,60.01493177282926,
20,,,,,0,0,0,3,7,0,7,0,13,0,13,0,,,,,,,,,,,,,,,,,856.7488171998411,None,857.3321989998221,857.9323802003637,857.9156691003591,859.9166278997436,None,1,0.6113477293401957,2.612344529479742,increament,0.6,45,standard,None,100,,,,,,,,f,27,226,fr,r,0,raw,2022-06-28_11h08.25.497,oddball,2022.1.2,60.01493177282926,
20,,,,,0,0,0,3,7,0,7,0,14,0,14,0,,,,,,,,,,,,,,,,,859.9336374998093,None,860.6001565996557,861.2005567001179,861.1836507003754,863.184595500119,None,1,0.6131108310073614,2.614093231037259,increament,0.6,45,standard,None,100,,,,,,,,f,27,226,fr,r,0,raw,2022-06-28_11h08.25.497,oddball,2022.1.2,60.01493177282926,
20,,,,,0,0,0,3,7,0,7,0,15,0,15,0,,,,,,,,,,,,,,,,,863.2010979996994,None,863.9180819997564,864.5180847998708,864.5015514995903,866.5021665999666,None,1,0.6120810303837061,2.612699130550027,increament,0.6,45,standard,None,100,,,,,,,,f,27,226,fr,r,0,raw,2022-06-28_11h08.25.497,oddball,2022.1.2,60.01493177282926,
20,,,,,0,0,0,3,7,0,7,0,16,0,16,0,,,,,,,,,,,,,,,,,866.5190022997558,None,867.2191182002425,868.069489499554,868.0365468002856,870.0369787001982,j,1,0.8461954295635223,2.8466322300955653,increament,0.84,47,oddball,j,140,0.3112676003947854,,,,,,,f,27,226,fr,r,0,raw,2022-06-28_11h08.25.497,oddball,2022.1.2,60.01493177282926,
20,,,,,0,0,0,3,7,0,7,0,17,0,17,0,,,,,,,,,,,,,,,,,870.0535979000852,None,870.6872904002666,871.2873793002218,871.2709328001365,873.2714890995994,None,1,0.6108083296567202,2.61141402926296,increament,0.6,45,standard,None,100,,,,,,,,f,27,226,fr,r,0,raw,2022-06-28_11h08.25.497,oddball,2022.1.2,60.01493177282926,
20,,,,,0,0,0,3,7,0,7,0,18,0,18,0,,,,,,,,,,,,,,,,,873.2880106996745,None,873.9717808999121,874.572150000371,874.5555895995349,876.5559676000848,None,1,0.6139360284432769,2.6142635280266404,increament,0.6,45,standard,None,100,,,,,,,,f,27,226,fr,r,0,raw,2022-06-28_11h08.25.497,oddball,2022.1.2,60.01493177282926,
20,,,,,0,0,0,3,7,0,7,0,19,0,19,0,,,,,,,,,,,,,,,,,876.5729535995051,None,877.29017820023,877.8898227000609,877.8731838995591,879.873969799839,None,1,0.6115029295906425,2.6122686294838786,increament,0.6,45,standard,None,100,,,,,,,,f,27,226,fr,r,0,raw,2022-06-28_11h08.25.497,oddball,2022.1.2,60.01493177282926,
20,,,,,0,0,0,3,7,0,7,0,20,0,20,0,,,,,,,,,,,,,,,,,879.8909243000671,None,880.540833200328,881.5081072999164,881.4745014002547,883.4754534000531,j,1,0.9623650312423706,2.9633572306483984,increament,0.96,48,oddball,j,160,0.28242670092731714,,,,,,,f,27,226,fr,r,0,raw,2022-06-28_11h08.25.497,oddball,2022.1.2,60.01493177282926,
20,,,,,0,0,0,3,7,0,7,0,21,0,21,0,,,,,,,,,,,,,,,,,883.4921185001731,None,884.1589040001854,884.7593144997954,884.7424125000834,886.743206099607,None,1,0.6110087307170033,2.6117609310895205,increament,0.6,45,standard,None,100,,,,,,,,f,27,226,fr,r,0,raw,2022-06-28_11h08.25.497,oddball,2022.1.2,60.01493177282926,
20,,,,,0,0,0,3,7,0,7,0,22,0,22,0,,,,,,,,,,,,,,,,,886.7601436004043,None,887.393674899824,887.9940988002345,887.9773273002356,889.9779559997842,None,1,0.6124104298651218,2.6129911299794912,increament,0.6,45,standard,None,100,,,,,,,,f,27,226,fr,r,0,raw,2022-06-28_11h08.25.497,oddball,2022.1.2,60.01493177282926,
20,,,,,0,0,0,3,7,0,7,0,23,0,23,0,,,,,,,,,,,,,,,,,889.9946501003578,None,890.7281067995355,891.3287393003702,891.3123516999185,893.3124518003315,None,1,0.6123395301401615,2.6123627303168178,increament,0.6,45,standard,None,100,,,,,,,,f,27,226,fr,r,0,raw,2022-06-28_11h08.25.497,oddball,2022.1.2,60.01493177282926,
20,,,,,0,0,0,3,7,0,7,0,24,0,24,0,,,,,,,,,,,,,,,,,893.3290667999536,None,894.046020699665,894.7794556003064,894.7467422997579,896.7469840999693,None,0,0.7303463304415345,2.73050863109529,increament,0.72,46,oddball,j,120,,,,,,,,f,27,226,fr,r,0,raw,2022-06-28_11h08.25.497,oddball,2022.1.2,60.01493177282926,
20,,,,,0,0,0,3,7,0,7,0,25,0,25,0,,,,,,,,,,,,,,,,,896.7638641996309,None,897.4976650001481,898.0974393999204,898.0808156998828,900.0817860998213,None,1,0.61112972907722,2.6121042296290398,increament,0.6,45,standard,None,100,,,,,,,,f,27,226,fr,r,0,raw,2022-06-28_11h08.25.497,oddball,2022.1.2,60.01493177282926,
20,,,,,0,0,0,3,7,0,7,0,26,0,26,0,,,,,,,,,,,,,,,,,900.0986160002649,None,900.7154062995687,901.3157791001722,901.2989020003006,903.2995565999299,None,1,0.6095635294914246,2.6101737301796675,increament,0.6,45,standard,None,100,,,,,,,,f,27,226,fr,r,0,raw,2022-06-28_11h08.25.497,oddball,2022.1.2,60.01493177282926,
20,,,,,0,0,0,3,7,0,7,0,27,0,27,0,,,,,,,,,,,,,,,,,903.3163417996839,None,903.9831438995898,904.5832975003868,904.566700999625,906.5677145998925,None,1,0.6139919301494956,2.615072130225599,increament,0.6,45,standard,None,100,,,,,,,,f,27,226,fr,r,0,raw,2022-06-28_11h08.25.497,oddball,2022.1.2,60.01493177282926,
20,,,,,0,0,0,3,7,0,7,0,28,0,28,0,,,,,,,,,,,,,,,,,906.5842896001413,None,907.2844278002158,907.884428399615,907.8679179996252,909.8687829999253,None,1,0.6124979294836521,2.6134260296821594,increament,0.6,45,standard,None,100,,,,,,,,f,27,226,fr,r,0,raw,2022-06-28_11h08.25.497,oddball,2022.1.2,60.01493177282926,
20,,,,,0,0,0,3,7,0,7,0,29,0,29,0,,,,,,,,,,,,,,,,,909.8855128996074,None,910.4857521997765,911.0858322996646,911.0694156996906,913.0698619000614,None,1,0.6124733304604888,2.6128462310880423,increament,0.6,45,standard,None,100,,,,,,,,f,27,226,fr,r,0,raw,2022-06-28_11h08.25.497,oddball,2022.1.2,60.01493177282926,
20,,,,,0,0,0,3,8,0,8,0,0,0,0,0,,,,,,,,,,,,,,,917.571584300138,None,919.0388991003856,None,919.6724723996595,920.27274809964,920.255939300172,922.2565943999216,None,1,0.6116918306797743,2.6123629305511713,decreament,0.6,41,standard,None,100,,913.0868231002241,None,,,,,f,27,226,fr,r,0,raw,2022-06-28_11h08.25.497,oddball,2022.1.2,60.01493177282926,
20,,,,,0,0,0,3,8,0,8,0,1,0,1,0,,,,,,,,,,,,,,,,,922.273538400419,None,922.9072150001302,923.5072055002674,923.4907285002992,925.491333999671,None,1,0.6122345309704542,2.6128546306863427,decreament,0.6,41,standard,None,100,,,,,,,,f,27,226,fr,r,0,raw,2022-06-28_11h08.25.497,oddball,2022.1.2,60.01493177282926,
20,,,,,0,0,0,3,8,0,8,0,2,0,2,0,,,,,,,,,,,,,,,,,925.508161299862,None,926.1915747001767,926.7918542996049,926.7752117998898,928.775970400311,None,1,0.6131591303274035,2.613852529786527,decreament,0.6,41,standard,None,100,,,,,,,,f,27,226,fr,r,0,raw,2022-06-28_11h08.25.497,oddball,2022.1.2,60.01493177282926,
20,,,,,0,0,0,3,8,0,8,0,3,0,3,0,,,,,,,,,,,,,,,,,928.7926252996549,None,929.409418400377,930.0098602995276,929.9930592998862,931.9936143998057,None,1,0.6129706297069788,2.613522529602051,decreament,0.6,41,standard,None,100,,,,,,,,f,27,226,fr,r,0,raw,2022-06-28_11h08.25.497,oddball,2022.1.2,60.01493177282926,
20,,,,,0,0,0,3,8,0,8,0,4,0,4,0,,,,,,,,,,,,,,,,,932.0105689000338,None,932.6274688001722,933.2280962998047,933.2110749995336,935.2118052998558,None,1,0.612504230812192,2.6132167307659984,decreament,0.6,41,standard,None,100,,,,,,,,f,27,226,fr,r,0,raw,2022-06-28_11h08.25.497,oddball,2022.1.2,60.01493177282926,
20,,,,,0,0,0,3,8,0,8,0,5,0,5,0,,,,,,,,,,,,,,,,,935.2289448995143,None,936.0620764996856,936.6618870999664,936.645483000204,938.6464355997741,None,1,0.612288529984653,2.6132752299308777,decreament,0.6,41,standard,None,100,,,,,,,,f,27,226,fr,r,0,raw,2022-06-28_11h08.25.497,oddball,2022.1.2,60.01493177282926,
20,,,,,0,0,0,3,8,0,8,0,6,0,6,0,,,,,,,,,,,,,,,,,938.6629125000909,None,939.2297197002918,939.8298391001299,939.8132397998124,941.8140255995095,None,1,0.6137021305039525,2.614529830403626,decreament,0.6,41,standard,None,100,,,,,,,,f,27,226,fr,r,0,raw,2022-06-28_11h08.25.497,oddball,2022.1.2,60.01493177282926,
20,,,,,0,0,0,3,8,0,8,0,7,0,7,0,,,,,,,,,,,,,,,,,941.8307355996221,None,942.430978000164,942.6812051003799,942.6478193998337,944.6488570999354,j,1,0.24602952972054482,2.2471208292990923,decreament,0.24,42,oddball,j,40,0.5962521005421877,,,,,,,f,27,226,fr,r,0,raw,2022-06-28_11h08.25.497,oddball,2022.1.2,60.01493177282926,
20,,,,,0,0,0,3,8,0,8,0,8,0,8,0,,,,,,,,,,,,,,,,,944.6654305001721,None,945.4157422995195,946.0159398000687,945.9994844999164,947.9997979002073,None,1,0.6128269303590059,2.613022729754448,decreament,0.6,41,standard,None,100,,,,,,,,f,27,226,fr,r,0,raw,2022-06-28_11h08.25.497,oddball,2022.1.2,60.01493177282926,
20,,,,,0,0,0,3,8,0,8,0,9,0,9,0,,,,,,,,,,,,,,,,,948.0163158001378,None,948.667216300033,949.2670184001327,949.2507164999843,951.2508249999955,None,1,0.6100769294425845,2.6101208301261067,decreament,0.6,41,standard,None,100,,,,,,,,f,27,226,fr,r,0,raw,2022-06-28_11h08.25.497,oddball,2022.1.2,60.01493177282926,
20,,,,,0,0,0,3,8,0,8,0,10,0,10,0,,,,,,,,,,,,,,,,,951.2676700996235,None,951.851258199662,952.4515156000853,952.4352241000161,954.4355570999905,None,1,0.6132870288565755,2.6135042291134596,decreament,0.6,41,standard,None,100,,,,,,,,f,27,226,fr,r,0,raw,2022-06-28_11h08.25.497,oddball,2022.1.2,60.01493177282926,
20,,,,,0,0,0,3,8,0,8,0,11,0,11,0,,,,,,,,,,,,,,,,,954.4525047000498,None,955.0357569996268,955.636121599935,955.6195590998977,957.6199931995943,None,1,0.6119723301380873,2.612344030290842,decreament,0.6,41,standard,None,100,,,,,,,,f,27,226,fr,r,0,raw,2022-06-28_11h08.25.497,oddball,2022.1.2,60.01493177282926,
20,,,,,0,0,0,3,8,0,8,0,12,0,12,0,,,,,,,,,,,,,,,,,957.6368971001357,None,958.4199888994917,959.0213240999728,959.0041052000597,961.0048208003864,None,1,0.6138910315930843,2.6145476307719946,decreament,0.6,41,standard,None,100,,,,,,,,f,27,226,fr,r,0,raw,2022-06-28_11h08.25.497,oddball,2022.1.2,60.01493177282926,
20,,,,,0,0,0,3,8,0,8,0,13,0,13,0,,,,,,,,,,,,,,,,,961.021387799643,None,961.7552292002365,962.3550658999011,962.33881559968,964.339542100206,None,1,0.6111992308869958,2.6120364302769303,decreament,0.6,41,standard,None,100,,,,,,,,f,27,226,fr,r,0,raw,2022-06-28_11h08.25.497,oddball,2022.1.2,60.01493177282926,
20,,,,,0,0,0,3,8,0,8,0,14,0,14,0,,,,,,,,,,,,,,,,,964.3567661000416,None,965.0727925002575,965.6731305997819,965.6566519998014,967.6572140995413,None,1,0.6141259307041764,2.614726130850613,decreament,0.6,41,standard,None,100,,,,,,,,f,27,226,fr,r,0,raw,2022-06-28_11h08.25.497,oddball,2022.1.2,60.01493177282926,
20,,,,,0,0,0,3,8,0,8,0,15,0,15,0,,,,,,,,,,,,,,,,,967.6741514001042,None,968.2573522003368,968.858348400332,968.8414939995855,970.8418507995084,j,0,0.6149813299998641,2.615252030082047,decreament,0.6,41,standard,None,100,0.6267834007740021,,,,,,,f,27,226,fr,r,0,raw,2022-06-28_11h08.25.497,oddball,2022.1.2,60.01493177282926,
20,,,,,0,0,0,3,8,0,8,0,16,0,16,0,,,,,,,,,,,,,,,,,970.8585572000593,None,971.3758779000491,971.8591342996806,971.8424257002771,973.8428456000984,j,1,0.49402603041380644,2.494352930225432,decreament,0.48,44,oddball,j,80,0.9845728008076549,,,,,,,f,27,226,fr,r,0,raw,2022-06-28_11h08.25.497,oddball,2022.1.2,60.01493177282926,
20,,,,,0,0,0,3,8,0,8,0,17,0,17,0,,,,,,,,,,,,,,,,,973.8593894997612,None,974.5763242999092,975.1767090000212,975.160331199877,977.1610252000391,None,1,0.6140975318849087,2.614859831519425,decreament,0.6,41,standard,None,100,,,,,,,,f,27,226,fr,r,0,raw,2022-06-28_11h08.25.497,oddball,2022.1.2,60.01493177282926,
20,,,,,0,0,0,3,8,0,8,0,18,0,18,0,,,,,,,,,,,,,,,,,977.1777347000316,None,977.8778547002003,978.4779973002151,978.4613602999598,980.4621174996719,None,1,0.610878930427134,2.6116958297789097,decreament,0.6,41,standard,None,100,,,,,,,,f,27,226,fr,r,0,raw,2022-06-28_11h08.25.497,oddball,2022.1.2,60.01493177282926,
20,,,,,0,0,0,3,8,0,8,0,19,0,19,0,,,,,,,,,,,,,,,,,980.4787956997752,None,981.1794568998739,981.7794409003109,981.7627055002376,983.763168499805,j,0,0.6114935297518969,2.6119320299476385,decreament,0.6,41,standard,None,100,1.217120200395584,,,,,,,f,27,226,fr,r,0,raw,2022-06-28_11h08.25.497,oddball,2022.1.2,60.01493177282926,
20,,,,,0,0,0,3,8,0,8,0,20,0,20,0,,,,,,,,,,,,,,,,,983.7800636999309,None,984.3967830995098,984.9970337999985,984.9805608000606,986.9815386999398,None,1,0.6126177310943604,2.613694930449128,decreament,0.6,41,standard,None,100,,,,,,,,f,27,226,fr,r,0,raw,2022-06-28_11h08.25.497,oddball,2022.1.2,60.01493177282926,
20,,,,,0,0,0,3,8,0,8,0,21,0,21,0,,,,,,,,,,,,,,,,,986.9978633001447,None,987.564762099646,988.1650529997423,988.1483813002706,990.14897869993,None,1,0.6132955309003592,2.6138419304043055,decreament,0.6,41,standard,None,100,,,,,,,,f,27,226,fr,r,0,raw,2022-06-28_11h08.25.497,oddball,2022.1.2,60.01493177282926,
20,,,,,0,0,0,3,8,0,8,0,22,0,22,0,,,,,,,,,,,,,,,,,990.1655615000054,None,990.8163850000128,991.4162258002907,991.3994089998305,993.4002398997545,None,1,0.6108676306903362,2.6116986302658916,decreament,0.6,41,standard,None,100,,,,,,,,f,27,226,fr,r,0,raw,2022-06-28_11h08.25.497,oddball,2022.1.2,60.01493177282926,
20,,,,,0,0,0,3,8,0,8,0,23,0,23,0,,,,,,,,,,,,,,,,,993.4171802997589,None,994.0673340996727,994.6674673995003,994.6511770002544,996.6515223002061,None,1,0.6121334293857217,2.6123951291665435,decreament,0.6,41,standard,None,100,,,,,,,,f,27,226,fr,r,0,raw,2022-06-28_11h08.25.497,oddball,2022.1.2,60.01493177282926,
20,,,,,0,0,0,3,8,0,8,0,24,0,24,0,,,,,,,,,,,,,,,,,996.6685595000163,None,997.4185293996707,998.0187342995778,998.0021375995129,1000.002868199721,None,1,0.6117890309542418,2.612541531212628,decreament,0.6,41,standard,None,100,,,,,,,,f,27,226,fr,r,0,raw,2022-06-28_11h08.25.497,oddball,2022.1.2,60.01493177282926,
20,,,,,0,0,0,3,8,0,8,0,25,0,25,0,,,,,,,,,,,,,,,,,1000.0194744002074,None,1000.6029032003134,1000.9698344999924,1000.9365945002064,1002.9374171001837,j,1,0.36248523090034723,2.3633186314255,decreament,0.36,43,oddball,j,60,0.7223131004720926,,,,,,,f,27,226,fr,r,0,raw,2022-06-28_11h08.25.497,oddball,2022.1.2,60.01493177282926,
20,,,,,0,0,0,3,8,0,8,0,26,0,26,0,,,,,,,,,,,,,,,,,1002.9541592001915,None,1003.6045629000291,1004.2043399997056,1004.1876146998256,1006.1886705998331,None,1,0.6119159292429686,2.6130155296996236,decreament,0.6,41,standard,None,100,,,,,,,,f,27,226,fr,r,0,raw,2022-06-28_11h08.25.497,oddball,2022.1.2,60.01493177282926,
20,,,,,0,0,0,3,8,0,8,0,27,0,27,0,,,,,,,,,,,,,,,,,1006.2051620995626,None,1006.9891109000891,1007.5892540998757,1007.5723748998716,1009.573086399585,None,1,0.6120181297883391,2.6127080293372273,decreament,0.6,41,standard,None,100,,,,,,,,f,27,226,fr,r,0,raw,2022-06-28_11h08.25.497,oddball,2022.1.2,60.01493177282926,
20,,,,,0,0,0,3,8,0,8,0,28,0,28,0,,,,,,,,,,,,,,,,,1009.5896787997335,None,1010.2067440003157,1010.8069099998102,1010.7902910001576,1012.7908709999174,None,1,0.609655630774796,2.6102388305589557,decreament,0.6,41,standard,None,100,,,,,,,,f,27,226,fr,r,0,raw,2022-06-28_11h08.25.497,oddball,2022.1.2,60.01493177282926,
20,,,,,0,0,0,3,8,0,8,0,29,0,29,0,,,,,,,,,,,,,,,,,1012.8077378999442,None,1013.5245148995891,1014.124937100336,1014.1083038002253,1016.1089615002275,None,1,0.6145167294889688,2.6151491291821003,decreament,0.6,41,standard,None,100,,,,,,,,f,27,226,fr,r,0,raw,2022-06-28_11h08.25.497,oddball,2022.1.2,60.01493177282926,
20,,,,,0,0,0,3,9,0,9,0,0,0,0,0,,,,,,,,,,,,,,,1029.192955199629,None,1032.131444499828,None,1032.7153462003917,1033.3155105002224,1033.2988852998242,1035.2996517997235,None,1,0.6090848306193948,2.609789830632508,increament,0.6,45,standard,None,100,,1016.1256862003356,None,,,,,f,27,226,fr,r,0,raw,2022-06-28_11h08.25.497,oddball,2022.1.2,60.01493177282926,
20,,,,,0,0,0,3,9,0,9,0,1,0,1,0,,,,,,,,,,,,,,,,,1035.3162003997713,None,1036.0004366002977,1036.5999657995999,1036.5835258001462,1038.5841255001724,None,1,0.6106195310130715,2.611226131208241,increament,0.6,45,standard,None,100,,,,,,,,f,27,226,fr,r,0,raw,2022-06-28_11h08.25.497,oddball,2022.1.2,60.01493177282926,
20,,,,,0,0,0,3,9,0,9,0,2,0,2,0,,,,,,,,,,,,,,,,,1038.6009307997301,None,1039.3679015003145,1039.968468800187,1039.9516517994925,1041.9520765999332,None,1,0.611905830912292,2.612324630841613,increament,0.6,45,standard,None,100,,,,,,,,f,27,226,fr,r,0,raw,2022-06-28_11h08.25.497,oddball,2022.1.2,60.01493177282926,
20,,,,,0,0,0,3,9,0,9,0,3,0,3,0,,,,,,,,,,,,,,,,,1041.968802000396,None,1042.5525188995525,1043.152672600001,1043.1362642999738,1045.136484700255,None,1,0.6131191300228238,2.6132657304406166,increament,0.6,45,standard,None,100,,,,,,,,f,27,226,fr,r,0,raw,2022-06-28_11h08.25.497,oddball,2022.1.2,60.01493177282926,
20,,,,,0,0,0,3,9,0,9,0,4,0,4,0,,,,,,,,,,,,,,,,,1045.1533214002848,None,1045.8871761001647,1046.4872086998075,1046.4703941000625,1048.471459100023,None,1,0.6092598307877779,2.6103927306830883,increament,0.6,45,standard,None,100,,,,,,,,f,27,226,fr,r,0,raw,2022-06-28_11h08.25.497,oddball,2022.1.2,60.01493177282926,
20,,,,,0,0,0,3,9,0,9,0,5,0,5,0,,,,,,,,,,,,,,,,,1048.4877535002306,None,1049.0547919999808,1049.7887276001275,1049.75514880009,1051.755820499733,None,0,0.7243214305490255,2.7249986305832863,increament,0.72,46,oddball,j,120,,,,,,,,f,27,226,fr,r,0,raw,2022-06-28_11h08.25.497,oddball,2022.1.2,60.01493177282926,
20,,,,,0,0,0,3,9,0,9,0,6,0,6,0,,,,,,,,,,,,,,,,,1051.7725024996325,None,1052.322668899782,1052.9227822003886,1052.9061091002077,1054.906899499707,None,1,0.6126848300918937,2.6134784296154976,increament,0.6,45,standard,None,100,,,,,,,,f,27,226,fr,r,0,raw,2022-06-28_11h08.25.497,oddball,2022.1.2,60.01493177282926,
20,,,,,0,0,0,3,9,0,9,0,7,0,7,0,,,,,,,,,,,,,,,,,1054.9238745998591,None,1055.6909120995551,1056.290728200227,1056.2740505998954,1058.2752345995978,None,1,0.6122859288007021,2.6135570285841823,increament,0.6,45,standard,None,100,,,,,,,,f,27,226,fr,r,0,raw,2022-06-28_11h08.25.497,oddball,2022.1.2,60.01493177282926,
20,,,,,0,0,0,3,9,0,9,0,8,0,8,0,,,,,,,,,,,,,,,,,1058.2925538998097,None,1058.9752243999392,1059.5753966001794,1059.5586021998897,1061.5595239000395,None,1,0.6134850289672613,2.6144293285906315,increament,0.6,45,standard,None,100,,,,,,,,f,27,226,fr,r,0,raw,2022-06-28_11h08.25.497,oddball,2022.1.2,60.01493177282926,
20,,,,,0,0,0,3,9,0,9,0,9,0,9,0,,,,,,,,,,,,,,,,,1061.5763478996232,None,1062.228211699985,1062.8431417997926,1062.8096935003996,None,None,1,0.5991264311596751,2.6003118315711617,increament,0.6,45,standard,None,100,,,,,,,,f,27,226,fr,r,0,raw,2022-06-28_11h08.25.497,oddball,2022.1.2,60.01493177282926,
20,,,,,0,0,0,3,9,0,9,0,10,0,10,0,,,,,,,,,,,,,,,,,1064.8105696002021,None,1065.3609584001824,1065.9608792997897,1065.9445043001324,1067.9452855996788,None,1,0.6126684295013547,2.6134713301435113,increament,0.6,45,standard,None,100,,,,,,,,f,27,226,fr,r,0,raw,2022-06-28_11h08.25.497,oddball,2022.1.2,60.01493177282926,
20,,,,,0,0,0,3,9,0,9,0,11,0,11,0,,,,,,,,,,,,,,,,,1067.962068299763,None,1068.6956569999456,1069.2958758994937,1069.279267700389,1071.2800561999902,None,1,0.6102079292759299,2.6110174292698503,increament,0.6,45,standard,None,100,,,,,,,,f,27,226,fr,r,0,raw,2022-06-28_11h08.25.497,oddball,2022.1.2,60.01493177282926,
20,,,,,0,0,0,3,9,0,9,0,12,0,12,0,,,,,,,,,,,,,,,,,1071.296260399744,None,1071.9304582998157,1072.530315699987,1072.513801000081,1074.514381499961,None,1,0.6120587298646569,2.6125828297808766,increament,0.6,45,standard,None,100,,,,,,,,f,27,226,fr,r,0,raw,2022-06-28_11h08.25.497,oddball,2022.1.2,60.01493177282926,
20,,,,,0,0,0,3,9,0,9,0,13,0,13,0,,,,,,,,,,,,,,,,,1074.531429500319,None,1075.3319455003366,1075.9315312001854,1075.9150412995368,1077.9158691996709,None,1,0.6088026305660605,2.6096600303426385,increament,0.6,45,standard,None,100,,,,,,,,f,27,226,fr,r,0,raw,2022-06-28_11h08.25.497,oddball,2022.1.2,60.01493177282926,
20,,,,,0,0,0,3,9,0,9,0,14,0,14,0,,,,,,,,,,,,,,,,,1077.9323402000591,None,1078.5159534998238,1079.1159357996657,1079.0990546001121,1081.100393800065,None,1,0.6126693300902843,2.614050829783082,increament,0.6,45,standard,None,100,,,,,,,,f,27,226,fr,r,0,raw,2022-06-28_11h08.25.497,oddball,2022.1.2,60.01493177282926,
20,,,,,0,0,0,3,9,0,9,0,15,0,15,0,,,,,,,,,,,,,,,,,1081.1169707998633,None,1081.7171184998006,1082.5675283996388,1082.5339222997427,1084.535206399858,j,1,0.8473604302853346,2.8487331299111247,increament,0.84,47,oddball,j,140,0.7742809010669589,,,,,,,f,27,226,fr,r,0,raw,2022-06-28_11h08.25.497,oddball,2022.1.2,60.01493177282926,
20,,,,,0,0,0,3,9,0,9,0,16,0,16,0,,,,,,,,,,,,,,,,,1084.5532598998398,None,1085.2188189001754,1085.8188188998029,1085.8022192995995,1087.8027242999524,None,1,0.6098637310788035,2.610318231396377,increament,0.6,45,standard,None,100,,,,,,,,f,27,226,fr,r,0,raw,2022-06-28_11h08.25.497,oddball,2022.1.2,60.01493177282926,
20,,,,,0,0,0,3,9,0,9,0,17,0,17,0,,,,,,,,,,,,,,,,,1087.8195589995012,None,1088.4363550003618,1089.036578799598,1089.0199197996408,1091.0208419002593,None,1,0.6138298297300935,2.614824729040265,increament,0.6,45,standard,None,100,,,,,,,,f,27,226,fr,r,0,raw,2022-06-28_11h08.25.497,oddball,2022.1.2,60.01493177282926,
20,,,,,0,0,0,3,9,0,9,0,18,0,18,0,,,,,,,,,,,,,,,,,1091.0380068998784,None,1091.6373592000455,1092.2376672001556,1092.2212509000674,1094.221675899811,None,1,0.6124270306900144,2.612784730270505,increament,0.6,45,standard,None,100,,,,,,,,f,27,226,fr,r,0,raw,2022-06-28_11h08.25.497,oddball,2022.1.2,60.01493177282926,
20,,,,,0,0,0,3,9,0,9,0,19,0,19,0,,,,,,,,,,,,,,,,,1094.2383647998795,None,1095.1055362001061,1095.7055142996833,1095.6895987000316,1097.6898130998015,None,1,0.6135277301073074,2.6136910300701857,increament,0.6,45,standard,None,100,,,,,,,,f,27,226,fr,r,0,raw,2022-06-28_11h08.25.497,oddball,2022.1.2,60.01493177282926,
20,,,,,0,0,0,3,9,0,9,0,20,0,20,0,,,,,,,,,,,,,,,,,1097.7064701998606,None,1098.2904136003926,1098.8903807001188,1098.8736116001382,1100.8742998000234,None,1,0.6091478317975998,2.6098179314285517,increament,0.6,45,standard,None,100,,,,,,,,f,27,226,fr,r,0,raw,2022-06-28_11h08.25.497,oddball,2022.1.2,60.01493177282926,
20,,,,,0,0,0,3,9,0,9,0,21,0,21,0,,,,,,,,,,,,,,,,,1100.891325599514,None,1101.6415136996657,1102.241446199827,1102.2249386999756,1104.225959699601,None,1,0.6094656307250261,2.6104916306212544,increament,0.6,45,standard,None,100,,,,,,,,f,27,226,fr,r,0,raw,2022-06-28_11h08.25.497,oddball,2022.1.2,60.01493177282926,
20,,,,,0,0,0,3,9,0,9,0,22,0,22,0,,,,,,,,,,,,,,,,,1104.242636299692,None,1104.8592173000798,1105.4596100999042,1105.443195199594,1107.4443028001115,None,1,0.6139804311096668,2.6151171317324042,increament,0.6,45,standard,None,100,,,,,,,,f,27,226,fr,r,0,raw,2022-06-28_11h08.25.497,oddball,2022.1.2,60.01493177282926,
20,,,,,0,0,0,3,9,0,9,0,23,0,23,0,,,,,,,,,,,,,,,,,1107.4605106003582,None,1108.260625699535,1108.8607185995206,1108.8441412998363,1110.8454232998192,None,1,0.61292933113873,2.614341330714524,increament,0.6,45,standard,None,100,,,,,,,,f,27,226,fr,r,0,raw,2022-06-28_11h08.25.497,oddball,2022.1.2,60.01493177282926,
20,,,,,0,0,0,3,9,0,9,0,24,0,24,0,,,,,,,,,,,,,,,,,1110.8612425997853,None,1111.4284755000845,1112.0285329995677,1112.011938500218,1114.012616300024,None,1,0.6126430295407772,2.613334729336202,increament,0.6,45,standard,None,100,,,,,,,,f,27,226,fr,r,0,raw,2022-06-28_11h08.25.497,oddball,2022.1.2,60.01493177282926,
20,,,,,0,0,0,3,9,0,9,0,25,0,25,0,,,,,,,,,,,,,,,,,1114.029573299922,None,1114.6462188996375,1115.246446300298,1115.229829000309,1117.2305763000622,None,1,0.6127212308347225,2.6134866308420897,increament,0.6,45,standard,None,100,,,,,,,,f,27,226,fr,r,0,raw,2022-06-28_11h08.25.497,oddball,2022.1.2,60.01493177282926,
20,,,,,0,0,0,3,9,0,9,0,26,0,26,0,,,,,,,,,,,,,,,,,1117.2472412995994,None,1117.997775499709,1118.5978511003777,1118.5813926998526,1120.5820607002825,None,1,0.611035630106926,2.61167442984879,increament,0.6,45,standard,None,100,,,,,,,,f,27,226,fr,r,0,raw,2022-06-28_11h08.25.497,oddball,2022.1.2,60.01493177282926,
20,,,,,0,0,0,3,9,0,9,0,27,0,27,0,,,,,,,,,,,,,,,,,1120.59857250005,None,1121.1820080000907,1121.7820252003148,1121.7655747998506,1123.7666244003922,None,1,0.6129721319302917,2.6140892319381237,increament,0.6,45,standard,None,100,,,,,,,,f,27,226,fr,r,0,raw,2022-06-28_11h08.25.497,oddball,2022.1.2,60.01493177282926,
20,,,,,0,0,0,3,9,0,9,0,28,0,28,0,,,,,,,,,,,,,,,,,1123.7829673998058,None,1124.4500529002398,1125.417019800283,1125.383966700174,1127.3842561999336,j,1,0.962356629781425,2.962716529145837,increament,0.96,48,oddball,j,160,0.18022709991782904,,,,,,,f,27,226,fr,r,0,raw,2022-06-28_11h08.25.497,oddball,2022.1.2,60.01493177282926,
20,,,,,0,0,0,3,9,0,9,0,29,0,29,0,,,,,,,,,,,,,,,,,1127.4014611998573,None,1128.0682354997844,1128.6684434004128,1128.652304300107,1130.6525004003197,None,1,0.6117548299953341,2.6118523301556706,increament,0.6,45,standard,None,100,,,,,,,,f,27,226,fr,r,0,raw,2022-06-28_11h08.25.497,oddball,2022.1.2,60.01493177282926,
10,,,,,0,1,1,2,0,0,0,0,0,0,0,0,,,,,,,,,,,,,,,1318.2459567999467,None,1320.3404462998733,None,1320.9913497995585,1321.5912739001215,1321.5748004000634,1323.5757894003764,None,1,0.6085338303819299,2.6096108304336667,decreament,0.6,21,standard,None,100,,1310.7038353998214,None,1130.69222550001,None,,,f,27,226,fr,r,0,raw,2022-06-28_11h08.25.497,oddball,2022.1.2,60.01493177282926,
10,,,,,0,1,1,2,0,0,0,0,1,0,1,0,,,,,,,,,,,,,,,,,1323.5919941999018,None,1324.4427746003494,1325.042474700138,1325.0259232996032,1327.0264926999807,None,1,0.6113469293341041,2.6119418293237686,decreament,0.6,21,standard,None,100,,,,,,,,f,27,226,fr,r,0,raw,2022-06-28_11h08.25.497,oddball,2022.1.2,60.01493177282926,
10,,,,,0,1,1,2,0,0,0,0,2,0,2,0,,,,,,,,,,,,,,,,,1327.0433093998581,None,1327.6103488001972,1328.2104369997978,1328.1936422996223,1330.1944976001978,None,1,0.6132580293342471,2.6140956291928887,decreament,0.6,21,standard,None,100,,,,,,,,f,27,226,fr,r,0,raw,2022-06-28_11h08.25.497,oddball,2022.1.2,60.01493177282926,
10,,,,,0,1,1,2,0,0,0,0,3,0,3,0,,,,,,,,,,,,,,,,,1330.2113984003663,None,1330.7449000999331,1331.3446714999154,1331.3284229002893,1333.3290451001376,None,1,0.6124479314312339,2.613047631457448,decreament,0.6,21,standard,None,100,,,,,,,,f,27,226,fr,r,0,raw,2022-06-28_11h08.25.497,oddball,2022.1.2,60.01493177282926,
10,,,,,0,1,1,2,0,0,0,0,4,0,4,0,,,,,,,,,,,,,,,,,1333.3456640997902,None,1333.9796019000933,1334.5794981000945,1334.5630596000701,1336.5638939999044,None,1,0.6104362299665809,2.611337729729712,decreament,0.6,21,standard,None,100,,,,,,,,f,27,226,fr,r,0,raw,2022-06-28_11h08.25.497,oddball,2022.1.2,60.01493177282926,
10,,,,,0,1,1,2,0,0,0,0,5,0,5,0,,,,,,,,,,,,,,,,,1336.5805027000606,None,1337.3306320002303,1337.9306354001164,1337.914323600009,1339.9150967001915,None,1,0.6121181305497885,2.612935731187463,decreament,0.6,21,standard,None,100,,,,,,,,f,27,226,fr,r,0,raw,2022-06-28_11h08.25.497,oddball,2022.1.2,60.01493177282926,
10,,,,,0,1,1,2,0,0,0,0,6,0,6,0,,,,,,,,,,,,,,,,,1339.9322373000905,None,1340.732379199937,1341.3320882003754,1341.315425899811,1343.3163360999897,None,1,0.6110424315556884,2.6119926311075687,decreament,0.6,21,standard,None,100,,,,,,,,f,27,226,fr,r,0,raw,2022-06-28_11h08.25.497,oddball,2022.1.2,60.01493177282926,
10,,,,,0,1,1,2,0,0,0,0,7,0,7,0,,,,,,,,,,,,,,,,,1343.333223800175,None,1344.0833890996873,1344.6833557002246,1344.6668948000297,1346.6673323996365,None,1,0.6077928310260177,2.608186430297792,decreament,0.6,21,standard,None,100,,,,,,,,f,27,226,fr,r,0,raw,2022-06-28_11h08.25.497,oddball,2022.1.2,60.01493177282926,
10,,,,,0,1,1,2,0,0,0,0,8,0,8,0,,,,,,,,,,,,,,,,,1346.6840851996094,None,1347.3343497002497,1347.934589699842,1347.9182131001726,1349.91940480005,None,1,0.6113118305802345,2.6125764306634665,decreament,0.6,21,standard,None,100,,,,,,,,f,27,226,fr,r,0,raw,2022-06-28_11h08.25.497,oddball,2022.1.2,60.01493177282926,
10,,,,,0,1,1,2,0,0,0,0,9,0,9,0,,,,,,,,,,,,,,,,,1349.9358759000897,None,1350.4859462995082,1351.085812699981,1351.0690647000447,1353.070069000125,j,0,0.6112396316602826,2.6123079312965274,decreament,0.6,21,standard,None,100,0.5170531012117863,,,,,,,f,27,226,fr,r,0,raw,2022-06-28_11h08.25.497,oddball,2022.1.2,60.01493177282926,
10,,,,,0,1,1,2,0,0,0,0,10,0,10,0,,,,,,,,,,,,,,,,,1353.0867569996044,None,1353.836683199741,1354.3201374998316,1354.2873729998246,1356.2880212003365,j,1,0.4814302297309041,2.482036730274558,decreament,0.48,24,oddball,j,80,0.5706898998469114,,,,,,,f,27,226,fr,r,0,raw,2022-06-28_11h08.25.497,oddball,2022.1.2,60.01493177282926,
10,,,,,0,1,1,2,0,0,0,0,11,0,11,0,,,,,,,,,,,,,,,,,1356.3044702997431,None,1356.8713819999248,1357.4716755002737,1357.4555514995009,1359.455681799911,None,1,0.6117605296894908,2.6117881294339895,decreament,0.6,21,standard,None,100,,,,,,,,f,27,226,fr,r,0,raw,2022-06-28_11h08.25.497,oddball,2022.1.2,60.01493177282926,
10,,,,,0,1,1,2,0,0,0,0,12,0,12,0,,,,,,,,,,,,,,,,,1359.472430399619,None,1360.1559001998976,1360.7564310003072,1360.739704100415,1362.740301599726,None,1,0.6126643298193812,2.613295629620552,decreament,0.6,21,standard,None,100,,,,,,,,f,27,226,fr,r,0,raw,2022-06-28_11h08.25.497,oddball,2022.1.2,60.01493177282926,
10,,,,,0,1,1,2,0,0,0,0,13,0,13,0,,,,,,,,,,,,,,,,,1362.7571655996144,None,1363.4570410996675,1364.0575246000662,1364.0408212002367,1366.0413566995412,None,1,0.6133743291720748,2.6138985296711326,decreament,0.6,21,standard,None,100,,,,,,,,f,27,226,fr,r,0,raw,2022-06-28_11h08.25.497,oddball,2022.1.2,60.01493177282926,
