grating_freq,blocks_prac.thisRepN,blocks_prac.thisTrialN,blocks_prac.thisN,blocks_prac.thisIndex,blocks.thisRepN,blocks.thisTrialN,blocks.thisN,blocks.thisIndex,repeat_freq.thisRepN,repeat_freq.thisTrialN,repeat_freq.thisN,repeat_freq.thisIndex,trials.thisRepN,trials.thisTrialN,trials.thisN,trials.thisIndex,break_loop.thisRepN,break_loop.thisTrialN,break_loop.thisN,break_loop.thisIndex,rest_loop.thisRepN,rest_loop.thisTrialN,rest_loop.thisN,rest_loop.thisIndex,instruct_prac_text.started,instruct_prac_resp.started,b_instruct_text_2_.started,b_instruct_resp_2_.started,prac_done_text.started,prac_done_resp.started,instruct_text.started,instruct_resp.started,fixation.started,fixation.stopped,grating.started,blank.started,grating.stopped,resp.started,blank.stopped,resp.stopped,resp.keys,resp.corr,direction,duration,trigger,stim_type,corr_ans,scaling,resp.rt,rest_text.started,rest_resp.started,text_2.started,text_2.stopped,thx_txt.started,gender,age,participant,language,main_hand,nBlock_prac,file_suffix,date,expName,psychopyVersion,frameRate,
0,,,,,0,0,0,0,0,0,0,0,0,0,0,0,,,,,,,,,20.957161900005303,20.957161900005303,33.02844999998342,33.02844999998342,36.908699900028296,36.908699900028296,77.4964952999726,77.4964952999726,82.28819879994262,83.03525369998533,83.03525369998533,83.62034709996078,83.63690659997519,0.6153612999478355,85.63538839993998,2.630424699978903,None,1,decreament,0.6,1,standard,None,100,,,,,,,f,36,237,fr,r,0,raw,2023-04-20_09h22.33.242,oddball,2022.2.5,60.1074239944408,
0,,,,,0,0,0,0,0,0,0,0,1,0,1,0,,,,,,,,,,,,,,,,,85.6521641999716,86.26803000003565,86.26803000003565,86.86765120003838,86.86765120003838,0.6153213999932632,88.88256469997577,2.630240299971774,None,1,decreament,0.6,1,standard,None,100,,,,,,,f,36,237,fr,r,0,raw,2023-04-20_09h22.33.242,oddball,2022.2.5,60.1074239944408,
0,,,,,0,0,0,0,0,0,0,0,2,0,2,0,,,,,,,,,,,,,,,,,88.89929540001322,89.51537389995065,89.51537389995065,90.09850299998652,90.11492249998264,0.5991565000731498,92.11330690002069,2.613948700018227,None,1,decreament,0.6,1,standard,None,100,,,,,,,f,36,237,fr,r,0,raw,2023-04-20_09h22.33.242,oddball,2022.2.5,60.1074239944408,
0,,,,,0,0,0,0,0,0,0,0,3,0,3,0,,,,,,,,,,,,,,,,,92.12996749999002,92.79618459998164,92.79618459998164,93.39582919992972,93.39582919992972,0.6155791999772191,95.41069149994291,2.6304518000688404,None,1,decreament,0.6,1,standard,None,100,,,,,,,f,36,237,fr,r,0,raw,2023-04-20_09h22.33.242,oddball,2022.2.5,60.1074239944408,
0,,,,,0,0,0,0,0,0,0,0,4,0,4,0,,,,,,,,,,,,,,,,,95.42730889993254,96.04345200001262,96.04345200001262,96.64318699995056,96.64318699995056,0.5990703999996185,98.65778060001321,2.614170699962415,None,1,decreament,0.6,1,standard,None,100,,,,,,,f,36,237,fr,r,0,raw,2023-04-20_09h22.33.242,oddball,2022.2.5,60.1074239944408,
0,,,,,0,0,0,0,0,0,0,0,5,0,5,0,,,,,,,,,,,,,,,,,98.65778060001321,99.29088700003922,99.29088700003922,99.89038739993703,99.89038739993703,0.6156013999134302,101.90511099994183,2.6303040999919176,None,1,decreament,0.6,1,standard,None,100,,,,,,,f,36,237,fr,r,0,raw,2023-04-20_09h22.33.242,oddball,2022.2.5,60.1074239944408,
0,,,,,0,0,0,0,0,0,0,0,6,0,6,0,,,,,,,,,,,,,,,,,101.92197050002869,102.60462819994427,102.60462819994427,103.20410620002076,103.20410620002076,0.6152776000089943,105.21924889995717,2.630421100067906,None,1,decreament,0.6,1,standard,None,100,,,,,,,f,36,237,fr,r,0,raw,2023-04-20_09h22.33.242,oddball,2022.2.5,60.1074239944408,
0,,,,,0,0,0,0,0,0,0,0,7,0,7,0,,,,,,,,,,,,,,,,,105.23585719999392,105.90202529996168,105.90202529996168,106.25170279992744,106.26825099997222,0.36555759992916137,108.26670829998329,2.3805636999895796,j,1,decreament,0.36,3,oddball,j,60,0.5015054999385029,,,,,,f,36,237,fr,r,0,raw,2023-04-20_09h22.33.242,oddball,2022.2.5,60.1074239944408,
0,,,,,0,0,0,0,0,0,0,0,8,0,8,0,,,,,,,,,,,,,,,,,108.28346820001025,108.93293549993541,108.93293549993541,109.53270610002801,109.53270610002801,0.5990352000808343,111.54725539998617,2.6140780000714585,None,1,decreament,0.6,1,standard,None,100,,,,,,,f,36,237,fr,r,0,raw,2023-04-20_09h22.33.242,oddball,2022.2.5,60.1074239944408,
0,,,,,0,0,0,0,0,0,0,0,9,0,9,0,,,,,,,,,,,,,,,,,111.54725539998617,112.13029010000173,112.13029010000173,112.72966239997186,112.72966239997186,0.6154161999002099,114.74472670000978,2.6304736000020057,None,1,decreament,0.6,1,standard,None,100,,,,,,,f,36,237,fr,r,0,raw,2023-04-20_09h22.33.242,oddball,2022.2.5,60.1074239944408,
0,,,,,0,0,0,0,0,0,0,0,10,0,10,0,,,,,,,,,,,,,,,,,114.76175359997433,115.44408499996644,115.44408499996644,116.0435602000216,116.0435602000216,0.6153262000298128,118.05879419995472,2.630563500104472,None,1,decreament,0.6,1,standard,None,100,,,,,,,f,36,237,fr,r,0,raw,2023-04-20_09h22.33.242,oddball,2022.2.5,60.1074239944408,
0,,,,,0,0,0,0,0,0,0,0,11,0,11,0,,,,,,,,,,,,,,,,,118.07534829992801,118.72482190001756,118.72482190001756,119.19107409997378,119.20771570003126,0.4822486999910325,121.2060291999951,2.4972149999812245,j,1,decreament,0.48,4,oddball,j,80,0.39886850002221763,,,,,,f,36,237,fr,r,0,raw,2023-04-20_09h22.33.242,oddball,2022.2.5,60.1074239944408,
0,,,,,0,0,0,0,0,0,0,0,12,0,12,0,,,,,,,,,,,,,,,,,121.22295199998189,121.93899119994603,121.93899119994603,122.53828830004204,122.53828830004204,0.5990240001119673,124.55344980000518,2.6136447000317276,None,1,decreament,0.6,1,standard,None,100,,,,,,,f,36,237,fr,r,0,raw,2023-04-20_09h22.33.242,oddball,2022.2.5,60.1074239944408,
0,,,,,0,0,0,0,0,0,0,0,13,0,13,0,,,,,,,,,,,,,,,,,124.55344980000518,125.1860501000192,125.1860501000192,125.78577970003244,125.78577970003244,0.6155392000218853,127.80086329998448,2.6306228999746963,None,1,decreament,0.6,1,standard,None,100,,,,,,,f,36,237,fr,r,0,raw,2023-04-20_09h22.33.242,oddball,2022.2.5,60.1074239944408,
0,,,,,0,0,0,0,0,0,0,0,14,0,14,0,,,,,,,,,,,,,,,,,127.81751209998038,128.50013679999392,128.50013679999392,129.09964939998463,129.09964939998463,0.6156726999906823,131.11484649998602,2.6308796000666916,j,0,decreament,0.6,1,standard,None,100,0.4362047000322491,,,,,,f,36,237,fr,r,0,raw,2023-04-20_09h22.33.242,oddball,2022.2.5,60.1074239944408,
0,,,,,0,0,0,0,0,0,0,0,15,0,15,0,,,,,,,,,,,,,,,,,131.13118010002654,131.93038429995067,131.93038429995067,132.52989230002277,132.52989230002277,0.6153717000270262,134.5451727999607,2.6306680999696255,None,1,decreament,0.6,1,standard,None,100,,,,,,,f,36,237,fr,r,0,raw,2023-04-20_09h22.33.242,oddball,2022.2.5,60.1074239944408,
0,,,,,0,0,0,0,0,0,0,0,16,0,16,0,,,,,,,,,,,,,,,,,134.56182970001828,135.32775599998422,135.32775599998422,135.92731659999117,135.92731659999117,0.5990331000648439,137.94221829995513,2.613878200063482,None,1,decreament,0.6,1,standard,None,100,,,,,,,f,36,237,fr,r,0,raw,2023-04-20_09h22.33.242,oddball,2022.2.5,60.1074239944408,
0,,,,,0,0,0,0,0,0,0,0,17,0,17,0,,,,,,,,,,,,,,,,,137.94221829995513,138.59194299997762,138.59194299997762,139.1914911000058,139.1914911000058,0.6157270000549033,141.20624410000164,2.630501899984665,None,1,decreament,0.6,1,standard,None,100,,,,,,,f,36,237,fr,r,0,raw,2023-04-20_09h22.33.242,oddball,2022.2.5,60.1074239944408,
0,,,,,0,0,0,0,0,0,0,0,18,0,18,0,,,,,,,,,,,,,,,,,141.22285449993797,141.9059252999723,141.9059252999723,142.48856289999094,142.50524710002355,0.5990088999969885,144.50370460003614,2.614141699974425,None,1,decreament,0.6,1,standard,None,100,,,,,,,f,36,237,fr,r,0,raw,2023-04-20_09h22.33.242,oddball,2022.2.5,60.1074239944408,
0,,,,,0,0,0,0,0,0,0,0,19,0,19,0,,,,,,,,,,,,,,,,,144.52037980000023,145.15295799996238,145.15295799996238,145.75257350003812,145.75257350003812,0.615536900004372,147.76747029996477,2.6304417999926955,None,1,decreament,0.6,1,standard,None,100,,,,,,,f,36,237,fr,r,0,raw,2023-04-20_09h22.33.242,oddball,2022.2.5,60.1074239944408,
0,,,,,0,0,0,0,0,0,0,0,20,0,20,0,,,,,,,,,,,,,,,,,147.78448799997568,148.46694419998676,148.46694419998676,148.70008560002316,148.7166277000215,0.24893189989961684,150.71512559999246,2.2639840999618173,j,1,decreament,0.24,2,oddball,j,40,0.6888228999450803,,,,,,f,36,237,fr,r,0,raw,2023-04-20_09h22.33.242,oddball,2022.2.5,60.1074239944408,
0,,,,,0,0,0,0,0,0,0,0,21,0,21,0,,,,,,,,,,,,,,,,,150.73205160000362,151.43111529992893,151.43111529992893,152.03076779993717,152.03076779993717,0.6152862999588251,154.04571550001856,2.6302307000150904,None,1,decreament,0.6,1,standard,None,100,,,,,,,f,36,237,fr,r,0,raw,2023-04-20_09h22.33.242,oddball,2022.2.5,60.1074239944408,
0,,,,,0,0,0,0,0,0,0,0,22,0,22,0,,,,,,,,,,,,,,,,,154.062399599934,154.8118202999467,154.8118202999467,155.41120119998232,155.41120119998232,0.6151915999362245,157.4264190000249,2.6304260999895632,None,1,decreament,0.6,1,standard,None,100,,,,,,,f,36,237,fr,r,0,raw,2023-04-20_09h22.33.242,oddball,2022.2.5,60.1074239944408,
0,,,,,0,0,0,0,0,0,0,0,23,0,23,0,,,,,,,,,,,,,,,,,157.4429722999921,158.1424070999492,158.1424070999492,158.74200269998983,158.74200269998983,0.6156088999705389,160.75690189993475,2.6305001999717206,None,1,decreament,0.6,1,standard,None,100,,,,,,,f,36,237,fr,r,0,raw,2023-04-20_09h22.33.242,oddball,2022.2.5,60.1074239944408,
0,,,,,0,0,0,0,0,0,0,0,24,0,24,0,,,,,,,,,,,,,,,,,160.77353929996025,161.6061368000228,161.6061368000228,162.18899589998182,162.20567469997332,0.615648299921304,164.20422780001536,2.6305564999347553,None,1,decreament,0.6,1,standard,None,100,,,,,,,f,36,237,fr,r,0,raw,2023-04-20_09h22.33.242,oddball,2022.2.5,60.1074239944408,
0,,,,,0,0,0,0,0,0,0,0,25,0,25,0,,,,,,,,,,,,,,,,,164.23732950002886,164.7869641999714,164.7869641999714,165.38652499997988,165.38652499997988,0.6157647999934852,167.401499300031,2.6307391999289393,None,1,decreament,0.6,1,standard,None,100,,,,,,,f,36,237,fr,r,0,raw,2023-04-20_09h22.33.242,oddball,2022.2.5,60.1074239944408,
0,,,,,0,0,0,0,0,0,0,0,26,0,26,0,,,,,,,,,,,,,,,,,167.41806459997315,168.03427049994934,168.03427049994934,168.63382039999124,168.63382039999124,0.6155763000715524,170.64849859999958,2.6302499000448734,None,1,decreament,0.6,1,standard,None,100,,,,,,,f,36,237,fr,r,0,raw,2023-04-20_09h22.33.242,oddball,2022.2.5,60.1074239944408,
0,,,,,0,0,0,0,0,0,0,0,27,0,27,0,,,,,,,,,,,,,,,,,170.66539989993908,171.29819490003865,171.29819490003865,171.89779529999942,171.89779529999942,0.6150791000109166,173.91288079996593,2.630183000001125,None,1,decreament,0.6,1,standard,None,100,,,,,,,f,36,237,fr,r,0,raw,2023-04-20_09h22.33.242,oddball,2022.2.5,60.1074239944408,
0,,,,,0,0,0,0,0,0,0,0,28,0,28,0,,,,,,,,,,,,,,,,,173.92949749995023,174.56222429999616,174.56222429999616,175.14502649998758,175.16173749999143,0.5990815999684855,177.16011759999674,2.6141758000012487,None,1,decreament,0.6,1,standard,None,100,,,,,,,f,36,237,fr,r,0,raw,2023-04-20_09h22.33.242,oddball,2022.2.5,60.1074239944408,
0,,,,,0,0,0,0,0,0,0,0,29,0,29,0,,,,,,,,,,,,,,,,,177.17674869997427,177.85957079997752,177.85957079997752,178.45906859997194,178.45906859997194,0.6156457999022678,180.47405429999344,2.6305980999022722,None,1,decreament,0.6,1,standard,None,100,,,,,,,f,36,237,fr,r,0,raw,2023-04-20_09h22.33.242,oddball,2022.2.5,60.1074239944408,
0,,,,,0,0,0,0,1,0,1,0,0,0,0,0,,,,,,,,,,,,,,,196.09421090001706,196.09421090001706,204.72095889993943,205.38685729994904,205.38685729994904,205.97023840004113,205.98626739997417,0.5995933000231162,207.98481259995606,2.61417519999668,None,1,increament,0.6,5,standard,None,100,,180.4910042999545,0.0007607999723404646,,,,f,36,237,fr,r,0,raw,2023-04-20_09h22.33.242,oddball,2022.2.5,60.1074239944408,
0,,,,,0,0,0,0,1,0,1,0,1,0,1,0,,,,,,,,,,,,,,,,,208.0015469000209,208.6340834000148,208.6340834000148,209.21728240000084,209.23374830000103,0.5992927000625059,211.23207559995353,2.6140568000264466,None,1,increament,0.6,5,standard,None,100,,,,,,,f,36,237,fr,r,0,raw,2023-04-20_09h22.33.242,oddball,2022.2.5,60.1074239944408,
0,,,,,0,0,0,0,1,0,1,0,2,0,2,0,,,,,,,,,,,,,,,,,211.24864559993148,211.7651739999419,211.7651739999419,212.36435359995812,212.36435359995812,0.5991667000344023,214.3795188999502,2.6138023999519646,None,1,increament,0.6,5,standard,None,100,,,,,,,f,36,237,fr,r,0,raw,2023-04-20_09h22.33.242,oddball,2022.2.5,60.1074239944408,
0,,,,,0,0,0,0,1,0,1,0,3,0,3,0,,,,,,,,,,,,,,,,,214.3795188999502,215.01221650000662,215.01221650000662,215.61211660003755,215.61211660003755,0.6158276000060141,217.62672429997474,2.6304319999180734,None,1,increament,0.6,5,standard,None,100,,,,,,,f,36,237,fr,r,0,raw,2023-04-20_09h22.33.242,oddball,2022.2.5,60.1074239944408,
0,,,,,0,0,0,0,1,0,1,0,4,0,4,0,,,,,,,,,,,,,,,,,217.64359330001753,218.29295909998473,218.29295909998473,218.89265489997342,218.89265489997342,0.5994826999958605,220.90751739998814,2.6140661999816075,None,1,increament,0.6,5,standard,None,100,,,,,,,f,36,237,fr,r,0,raw,2023-04-20_09h22.33.242,oddball,2022.2.5,60.1074239944408,
0,,,,,0,0,0,0,1,0,1,0,5,0,5,0,,,,,,,,,,,,,,,,,220.90751739998814,221.47413380001672,221.47413380001672,222.42273769993335,222.43951659998856,0.9651165000395849,224.43803620000836,2.980427599977702,j,1,increament,0.96,8,oddball,j,160,0.3764889999292791,,,,,,f,36,237,fr,r,0,raw,2023-04-20_09h22.33.242,oddball,2022.2.5,60.1074239944408,
0,,,,,0,0,0,0,1,0,1,0,6,0,6,0,,,,,,,,,,,,,,,,,224.45456809992902,225.10402989992872,225.10402989992872,225.70363020000514,225.70363020000514,0.6153807999799028,227.71843989996705,2.630157299921848,None,1,increament,0.6,5,standard,None,100,,,,,,,f,36,237,fr,r,0,raw,2023-04-20_09h22.33.242,oddball,2022.2.5,60.1074239944408,
0,,,,,0,0,0,0,1,0,1,0,7,0,7,0,,,,,,,,,,,,,,,,,227.73516679997556,228.31803550000768,228.31803550000768,228.91747839993332,228.91747839993332,0.5990224999841303,230.9324900000356,2.6137457999866456,None,1,increament,0.6,5,standard,None,100,,,,,,,f,36,237,fr,r,0,raw,2023-04-20_09h22.33.242,oddball,2022.2.5,60.1074239944408,
0,,,,,0,0,0,0,1,0,1,0,8,0,8,0,,,,,,,,,,,,,,,,,230.9324900000356,231.58190049999394,231.58190049999394,232.16485059994739,232.18173079995904,0.5990054999710992,234.17981540004257,2.6139515000395477,None,1,increament,0.6,5,standard,None,100,,,,,,,f,36,237,fr,r,0,raw,2023-04-20_09h22.33.242,oddball,2022.2.5,60.1074239944408,
0,,,,,0,0,0,0,1,0,1,0,9,0,9,0,,,,,,,,,,,,,,,,,234.1964699999662,234.91267769993283,234.91267769993283,235.512344299932,235.512344299932,0.6156495999312028,237.5272536999546,2.6305254999315366,None,1,increament,0.6,5,standard,None,100,,,,,,,f,36,237,fr,r,0,raw,2023-04-20_09h22.33.242,oddball,2022.2.5,60.1074239944408,
0,,,,,0,0,0,0,1,0,1,0,10,0,10,0,,,,,,,,,,,,,,,,,237.54367599997204,238.12660109996796,238.12660109996796,238.7094919999363,238.7261008999776,0.599069399992004,240.72451400000136,2.6140820999862626,None,1,increament,0.6,5,standard,None,100,,,,,,,f,36,237,fr,r,0,raw,2023-04-20_09h22.33.242,oddball,2022.2.5,60.1074239944408,
0,,,,,0,0,0,0,1,0,1,0,11,0,11,0,,,,,,,,,,,,,,,,,240.7410813999595,241.55727650003973,241.55727650003973,242.1566918999888,242.1566918999888,0.6153801999753341,244.17175360000692,2.630427800002508,None,1,increament,0.6,5,standard,None,100,,,,,,,f,36,237,fr,r,0,raw,2023-04-20_09h22.33.242,oddball,2022.2.5,60.1074239944408,
0,,,,,0,0,0,0,1,0,1,0,12,0,12,0,,,,,,,,,,,,,,,,,244.18822629994247,244.75451240001712,244.75451240001712,245.3540348999668,245.3540348999668,0.5990745999151841,247.36930559994653,2.613839800003916,None,1,increament,0.6,5,standard,None,100,,,,,,,f,36,237,fr,r,0,raw,2023-04-20_09h22.33.242,oddball,2022.2.5,60.1074239944408,
0,,,,,0,0,0,0,1,0,1,0,13,0,13,0,,,,,,,,,,,,,,,,,247.36930559994653,248.08507010003086,248.08507010003086,248.68456409999635,248.68456409999635,0.6156370000680909,250.69963899999857,2.6307028000010177,None,1,increament,0.6,5,standard,None,100,,,,,,,f,36,237,fr,r,0,raw,2023-04-20_09h22.33.242,oddball,2022.2.5,60.1074239944408,
0,,,,,0,0,0,0,1,0,1,0,14,0,14,0,,,,,,,,,,,,,,,,,250.71626969997305,251.3156394000398,251.3156394000398,251.89898059994448,251.91549339995254,0.5995491000358015,253.91375870001502,2.6143161000218242,None,1,increament,0.6,5,standard,None,100,,,,,,,f,36,237,fr,r,0,raw,2023-04-20_09h22.33.242,oddball,2022.2.5,60.1074239944408,
0,,,,,0,0,0,0,1,0,1,0,15,0,15,0,,,,,,,,,,,,,,,,,253.9302651999751,254.59637669997755,254.59637669997755,255.19609630003106,255.19609630003106,0.5991073000477627,257.2108587999828,2.6140346999745816,None,1,increament,0.6,5,standard,None,100,,,,,,,f,36,237,fr,r,0,raw,2023-04-20_09h22.33.242,oddball,2022.2.5,60.1074239944408,
0,,,,,0,0,0,0,1,0,1,0,16,0,16,0,,,,,,,,,,,,,,,,,257.2108587999828,257.8604274999816,257.8604274999816,258.4600090000313,258.4600090000313,0.6155501999892294,260.4751432000194,2.63065840001218,None,1,increament,0.6,5,standard,None,100,,,,,,,f,36,237,fr,r,0,raw,2023-04-20_09h22.33.242,oddball,2022.2.5,60.1074239944408,
0,,,,,0,0,0,0,1,0,1,0,17,0,17,0,,,,,,,,,,,,,,,,,260.4915556999622,261.1244133999571,261.1244133999571,261.72388039994985,261.72388039994985,0.6153881999198347,263.7389055000385,2.6304185999324545,None,1,increament,0.6,5,standard,None,100,,,,,,,f,36,237,fr,r,0,raw,2023-04-20_09h22.33.242,oddball,2022.2.5,60.1074239944408,
0,,,,,0,0,0,0,1,0,1,0,18,0,18,0,,,,,,,,,,,,,,,,,263.755642300006,264.42171389993746,264.42171389993746,265.02172670001164,265.02172670001164,0.6157584000611678,267.0360651999945,2.6300891999853775,None,1,increament,0.6,5,standard,None,100,,,,,,,f,36,237,fr,r,0,raw,2023-04-20_09h22.33.242,oddball,2022.2.5,60.1074239944408,
0,,,,,0,0,0,0,1,0,1,0,19,0,19,0,,,,,,,,,,,,,,,,,267.0528655999806,267.7523336999584,267.7523336999584,268.3518467999529,268.3518467999529,0.5990696999942884,270.366833099979,2.6140046999789774,None,1,increament,0.6,5,standard,None,100,,,,,,,f,36,237,fr,r,0,raw,2023-04-20_09h22.33.242,oddball,2022.2.5,60.1074239944408,
0,,,,,0,0,0,0,1,0,1,0,20,0,20,0,,,,,,,,,,,,,,,,,270.366833099979,271.01619819994085,271.01619819994085,271.6157611999661,271.6157611999661,0.6154829000588506,273.63078340003267,2.630486600100994,None,1,increament,0.6,5,standard,None,100,,,,,,,f,36,237,fr,r,0,raw,2023-04-20_09h22.33.242,oddball,2022.2.5,60.1074239944408,
0,,,,,0,0,0,0,1,0,1,0,21,0,21,0,,,,,,,,,,,,,,,,,273.6474967999384,274.2635790000204,274.2635790000204,274.8631280999398,274.8631280999398,0.6152076000580564,276.8781152999727,2.630184800014831,None,1,increament,0.6,5,standard,None,100,,,,,,,f,36,237,fr,r,0,raw,2023-04-20_09h22.33.242,oddball,2022.2.5,60.1074239944408,
0,,,,,0,0,0,0,1,0,1,0,22,0,22,0,,,,,,,,,,,,,,,,,276.8947224000003,277.5775307000149,277.5775307000149,278.2939579000231,278.3101629000157,0.7323133000172675,280.30865439993795,2.7470050000119954,j,1,increament,0.72,6,oddball,j,120,1.241497400100343,,,,,,f,36,237,fr,r,0,raw,2023-04-20_09h22.33.242,oddball,2022.2.5,60.1074239944408,
0,,,,,0,0,0,0,1,0,1,0,23,0,23,0,,,,,,,,,,,,,,,,,280.3251855999697,281.074629599927,281.074629599927,281.67413349996787,281.67413349996787,0.6154685000656173,283.68891899997834,2.6302220000652596,None,1,increament,0.6,5,standard,None,100,,,,,,,f,36,237,fr,r,0,raw,2023-04-20_09h22.33.242,oddball,2022.2.5,60.1074239944408,
0,,,,,0,0,0,0,1,0,1,0,24,0,24,0,,,,,,,,,,,,,,,,,283.70571749994997,284.4222984999651,284.4222984999651,285.0214078000281,285.04519079998136,0.6156754000112414,287.03644980001263,2.630733300000429,j,0,increament,0.6,5,standard,None,100,0.473413800005801,,,,,,f,36,237,fr,r,0,raw,2023-04-20_09h22.33.242,oddball,2022.2.5,60.1074239944408,
0,,,,,0,0,0,0,1,0,1,0,25,0,25,0,,,,,,,,,,,,,,,,,287.05333369993605,287.66933679999784,287.66933679999784,288.2519909000257,288.2688386000227,0.6157429000595585,290.2671175999567,2.630531799979508,None,1,increament,0.6,5,standard,None,100,,,,,,,f,36,237,fr,r,0,raw,2023-04-20_09h22.33.242,oddball,2022.2.5,60.1074239944408,
0,,,,,0,0,0,0,1,0,1,0,26,0,26,0,,,,,,,,,,,,,,,,,290.300550899934,290.9501661999384,290.9501661999384,291.54925279994495,291.5658294999739,0.6154089999618009,293.56441959994845,2.6305853000376374,None,1,increament,0.6,5,standard,None,100,,,,,,,f,36,237,fr,r,0,raw,2023-04-20_09h22.33.242,oddball,2022.2.5,60.1074239944408,
0,,,,,0,0,0,0,1,0,1,0,27,0,27,0,,,,,,,,,,,,,,,,,293.58102259994484,294.31364780000877,294.31364780000877,294.8966812000144,294.91329960001167,0.5992627999512479,296.9115288000321,2.613988099968992,None,1,increament,0.6,5,standard,None,100,,,,,,,f,36,237,fr,r,0,raw,2023-04-20_09h22.33.242,oddball,2022.2.5,60.1074239944408,
0,,,,,0,0,0,0,1,0,1,0,28,0,28,0,,,,,,,,,,,,,,,,,296.92837999993935,297.5611948999576,297.5611948999576,298.1441627999302,298.16055579995736,0.5990182999521494,300.1590517000295,2.6138930999441072,None,1,increament,0.6,5,standard,None,100,,,,,,,f,36,237,fr,r,0,raw,2023-04-20_09h22.33.242,oddball,2022.2.5,60.1074239944408,
0,,,,,0,0,0,0,1,0,1,0,29,0,29,0,,,,,,,,,,,,,,,,,300.1755830999464,300.7918730999809,300.7918730999809,301.62435069994535,301.6410645999713,0.8478845999343321,303.63928390003275,2.862829599995166,j,1,increament,0.84,7,oddball,j,140,0.7794291999889538,,,,,,f,36,237,fr,r,0,raw,2023-04-20_09h22.33.242,oddball,2022.2.5,60.1074239944408,
0,,,,,0,0,0,0,2,0,2,0,0,0,0,0,,,,,,,,,,,,,,,310.43379699997604,310.43379699997604,315.0300654999446,315.613003400038,315.613003400038,316.21249069995247,316.21249069995247,0.5991554000647739,318.2278920999961,2.61369739996735,None,1,decreament,0.6,1,standard,None,100,,303.65608660003636,0.000989799969829619,,,,f,36,237,fr,r,0,raw,2023-04-20_09h22.33.242,oddball,2022.2.5,60.1074239944408,
0,,,,,0,0,0,0,2,0,2,0,1,0,1,0,,,,,,,,,,,,,,,,,318.2278920999961,319.04339989996515,319.04339989996515,319.62626399996225,319.64314609998837,0.6158826999599114,321.6413834999548,2.6307881999528036,None,1,decreament,0.6,1,standard,None,100,,,,,,,f,36,237,fr,r,0,raw,2023-04-20_09h22.33.242,oddball,2022.2.5,60.1074239944408,
0,,,,,0,0,0,0,2,0,2,0,2,0,2,0,,,,,,,,,,,,,,,,,321.6745381000219,322.1909892000258,322.1909892000258,322.7741259000031,322.79052010003943,0.5992870000191033,324.78872680000495,2.613877300056629,None,1,decreament,0.6,1,standard,None,100,,,,,,,f,36,237,fr,r,0,raw,2023-04-20_09h22.33.242,oddball,2022.2.5,60.1074239944408,
0,,,,,0,0,0,0,2,0,2,0,3,0,3,0,,,,,,,,,,,,,,,,,324.80596439994406,325.50483620003797,325.50483620003797,326.1041948000202,326.1041948000202,0.6152221000520512,328.11927629995625,2.630300300079398,None,1,decreament,0.6,1,standard,None,100,,,,,,,f,36,237,fr,r,0,raw,2023-04-20_09h22.33.242,oddball,2022.2.5,60.1074239944408,
0,,,,,0,0,0,0,2,0,2,0,4,0,4,0,,,,,,,,,,,,,,,,,328.135894499952,328.8520302999532,328.8520302999532,329.43486159993336,329.4516395999817,0.5991254000691697,331.44986960000824,2.6141379000619054,None,1,decreament,0.6,1,standard,None,100,,,,,,,f,36,237,fr,r,0,raw,2023-04-20_09h22.33.242,oddball,2022.2.5,60.1074239944408,
0,,,,,0,0,0,0,2,0,2,0,5,0,5,0,,,,,,,,,,,,,,,,,331.4666108000092,332.09937249997165,332.09937249997165,332.6988986999495,332.6988986999495,0.6153753000544384,334.713761699968,2.6302188000408933,None,1,decreament,0.6,1,standard,None,100,,,,,,,f,36,237,fr,r,0,raw,2023-04-20_09h22.33.242,oddball,2022.2.5,60.1074239944408,
0,,,,,0,0,0,0,2,0,2,0,6,0,6,0,,,,,,,,,,,,,,,,,334.73061069997493,335.2635522999335,335.2635522999335,335.862867299933,335.862867299933,0.5991135999793187,337.87800629995763,2.614036799990572,None,1,decreament,0.6,1,standard,None,100,,,,,,,f,36,237,fr,r,0,raw,2023-04-20_09h22.33.242,oddball,2022.2.5,60.1074239944408,
0,,,,,0,0,0,0,2,0,2,0,7,0,7,0,,,,,,,,,,,,,,,,,337.87800629995763,338.39484369999263,338.39484369999263,338.99384270003065,339.0102772000246,0.5990665999706835,341.0085702999495,2.614313400001265,None,1,decreament,0.6,1,standard,None,100,,,,,,,f,36,237,fr,r,0,raw,2023-04-20_09h22.33.242,oddball,2022.2.5,60.1074239944408,
0,,,,,0,0,0,0,2,0,2,0,8,0,8,0,,,,,,,,,,,,,,,,,341.0085702999495,341.6415384999709,341.6415384999709,342.10783520003315,342.1245336999418,0.48232970002572984,344.12266510003246,2.4971467000432312,None,0,decreament,0.48,4,oddball,j,80,,,,,,,f,36,237,fr,r,0,raw,2023-04-20_09h22.33.242,oddball,2022.2.5,60.1074239944408,
0,,,,,0,0,0,0,2,0,2,0,9,0,9,0,,,,,,,,,,,,,,,,,344.13978149998,344.8223187000258,344.8223187000258,345.4217458999483,345.4217458999483,0.5992212999844924,347.4368862999836,2.6141608000034466,None,1,decreament,0.6,1,standard,None,100,,,,,,,f,36,237,fr,r,0,raw,2023-04-20_09h22.33.242,oddball,2022.2.5,60.1074239944408,
0,,,,,0,0,0,0,2,0,2,0,10,0,10,0,,,,,,,,,,,,,,,,,347.4368862999836,348.0695427999599,348.0695427999599,348.66910880000796,348.66910880000796,0.6157266000518575,350.68414140003733,2.630708000040613,None,1,decreament,0.6,1,standard,None,100,,,,,,,f,36,237,fr,r,0,raw,2023-04-20_09h22.33.242,oddball,2022.2.5,60.1074239944408,
0,,,,,0,0,0,0,2,0,2,0,11,0,11,0,,,,,,,,,,,,,,,,,350.7006126999622,351.36700780002866,351.36700780002866,351.94979039998725,351.96643579995725,0.5991095000645146,353.9648098000325,2.6141118000959978,None,1,decreament,0.6,1,standard,None,100,,,,,,,f,36,237,fr,r,0,raw,2023-04-20_09h22.33.242,oddball,2022.2.5,60.1074239944408,
0,,,,,0,0,0,0,2,0,2,0,12,0,12,0,,,,,,,,,,,,,,,,,353.9814622999402,354.5641774999676,354.5641774999676,354.7972139000194,354.81393449997995,0.24899390002246946,356.8123215000378,2.2640825000125915,j,1,decreament,0.24,2,oddball,j,40,0.5557203999487683,,,,,,f,36,237,fr,r,0,raw,2023-04-20_09h22.33.242,oddball,2022.2.5,60.1074239944408,
0,,,,,0,0,0,0,2,0,2,0,13,0,13,0,,,,,,,,,,,,,,,,,356.8289732999401,357.5451658000238,357.5451658000238,358.1445982999867,358.1445982999867,0.5990003000479192,360.15953699999955,2.6140038000885397,None,1,decreament,0.6,1,standard,None,100,,,,,,,f,36,237,fr,r,0,raw,2023-04-20_09h22.33.242,oddball,2022.2.5,60.1074239944408,
0,,,,,0,0,0,0,2,0,2,0,14,0,14,0,,,,,,,,,,,,,,,,,360.15953699999955,360.7924497999484,360.7924497999484,361.3919704,361.3919704,0.5992112000240013,363.4068436999805,2.6137414999539033,None,1,decreament,0.6,1,standard,None,100,,,,,,,f,36,237,fr,r,0,raw,2023-04-20_09h22.33.242,oddball,2022.2.5,60.1074239944408,
0,,,,,0,0,0,0,2,0,2,0,15,0,15,0,,,,,,,,,,,,,,,,,363.4068436999805,364.1727821000386,364.1727821000386,364.77242569997907,364.77242569997907,0.5991360999178141,366.78757549996953,2.6145885000005364,None,1,decreament,0.6,1,standard,None,100,,,,,,,f,36,237,fr,r,0,raw,2023-04-20_09h22.33.242,oddball,2022.2.5,60.1074239944408,
0,,,,,0,0,0,0,2,0,2,0,16,0,16,0,,,,,,,,,,,,,,,,,366.78757549996953,367.33703309996054,367.33703309996054,367.9365511999931,367.9365511999931,0.6155686000129208,369.95175799995195,2.6307771001011133,None,1,decreament,0.6,1,standard,None,100,,,,,,,f,36,237,fr,r,0,raw,2023-04-20_09h22.33.242,oddball,2022.2.5,60.1074239944408,
0,,,,,0,0,0,0,2,0,2,0,17,0,17,0,,,,,,,,,,,,,,,,,369.96832989994437,370.68419199995697,370.68419199995697,371.2838494000025,371.2838494000025,0.615045899990946,373.2991442999337,2.630327000049874,None,1,decreament,0.6,1,standard,None,100,,,,,,,f,36,237,fr,r,0,raw,2023-04-20_09h22.33.242,oddball,2022.2.5,60.1074239944408,
0,,,,,0,0,0,0,2,0,2,0,18,0,18,0,,,,,,,,,,,,,,,,,373.3154844000237,373.86507559998427,373.86507559998427,374.46474950003903,374.46474950003903,0.6156463000224903,376.4796054000035,2.6304979999549687,None,1,decreament,0.6,1,standard,None,100,,,,,,,f,36,237,fr,r,0,raw,2023-04-20_09h22.33.242,oddball,2022.2.5,60.1074239944408,
0,,,,,0,0,0,0,2,0,2,0,19,0,19,0,,,,,,,,,,,,,,,,,376.49618409993127,377.17918800003827,377.17918800003827,377.52912600000855,377.54538050002884,0.36570369999390095,379.54371609992813,2.380290300003253,j,1,decreament,0.36,3,oddball,j,60,0.684300999972038,,,,,,f,36,237,fr,r,0,raw,2023-04-20_09h22.33.242,oddball,2022.2.5,60.1074239944408,
0,,,,,0,0,0,0,2,0,2,0,20,0,20,0,,,,,,,,,,,,,,,,,379.560539899976,380.2766303999815,380.2766303999815,380.8759679000359,380.8759679000359,0.5992389000020921,382.8909578999737,2.6138327999506146,None,1,decreament,0.6,1,standard,None,100,,,,,,,f,36,237,fr,r,0,raw,2023-04-20_09h22.33.242,oddball,2022.2.5,60.1074239944408,
0,,,,,0,0,0,0,2,0,2,0,21,0,21,0,,,,,,,,,,,,,,,,,382.8909578999737,383.5070800000103,383.5070800000103,384.1072598999599,384.1072598999599,0.6160677000880241,386.1216010999633,2.630418400047347,None,1,decreament,0.6,1,standard,None,100,,,,,,,f,36,237,fr,r,0,raw,2023-04-20_09h22.33.242,oddball,2022.2.5,60.1074239944408,
0,,,,,0,0,0,0,2,0,2,0,22,0,22,0,,,,,,,,,,,,,,,,,386.1382619999349,386.7879118999699,386.7879118999699,387.370577899972,387.3871372999856,0.5990032999543473,389.3861451999983,2.6145650999387726,None,1,decreament,0.6,1,standard,None,100,,,,,,,f,36,237,fr,r,0,raw,2023-04-20_09h22.33.242,oddball,2022.2.5,60.1074239944408,
0,,,,,0,0,0,0,2,0,2,0,23,0,23,0,,,,,,,,,,,,,,,,,389.40229989995714,390.151917799958,390.151917799958,390.75121979997493,390.75121979997493,0.5991235000547022,392.76611309999134,2.6141391000710428,None,1,decreament,0.6,1,standard,None,100,,,,,,,f,36,237,fr,r,0,raw,2023-04-20_09h22.33.242,oddball,2022.2.5,60.1074239944408,
0,,,,,0,0,0,0,2,0,2,0,24,0,24,0,,,,,,,,,,,,,,,,,392.76611309999134,393.3659223000286,393.3659223000286,393.96526349999476,393.96526349999476,0.6156495000468567,395.9801265000133,2.6304899000097066,None,1,decreament,0.6,1,standard,None,100,,,,,,,f,36,237,fr,r,0,raw,2023-04-20_09h22.33.242,oddball,2022.2.5,60.1074239944408,
0,,,,,0,0,0,0,2,0,2,0,25,0,25,0,,,,,,,,,,,,,,,,,395.99702659994364,396.71333009994123,396.71333009994123,397.3123315999983,397.3123315999983,0.6152059999294579,399.32753499993123,2.630415399908088,None,1,decreament,0.6,1,standard,None,100,,,,,,,f,36,237,fr,r,0,raw,2023-04-20_09h22.33.242,oddball,2022.2.5,60.1074239944408,
0,,,,,0,0,0,0,2,0,2,0,26,0,26,0,,,,,,,,,,,,,,,,,399.34407689992804,400.06073170003947,400.06073170003947,400.65972889994737,400.65972889994737,0.5992211999837309,402.67465719999745,2.6139222000492737,None,1,decreament,0.6,1,standard,None,100,,,,,,,f,36,237,fr,r,0,raw,2023-04-20_09h22.33.242,oddball,2022.2.5,60.1074239944408,
0,,,,,0,0,0,0,2,0,2,0,27,0,27,0,,,,,,,,,,,,,,,,,402.67465719999745,403.4407476999331,403.4407476999331,404.023599899956,404.04065819992684,0.6159382000332698,406.0387766000349,2.6305895000696182,None,1,decreament,0.6,1,standard,None,100,,,,,,,f,36,237,fr,r,0,raw,2023-04-20_09h22.33.242,oddball,2022.2.5,60.1074239944408,
0,,,,,0,0,0,0,2,0,2,0,28,0,28,0,,,,,,,,,,,,,,,,,406.0719784999965,406.7047588999849,406.7047588999849,407.2880591999274,407.3040574999759,0.5996320999693125,409.30255000002217,2.614125599968247,None,1,decreament,0.6,1,standard,None,100,,,,,,,f,36,237,fr,r,0,raw,2023-04-20_09h22.33.242,oddball,2022.2.5,60.1074239944408,
0,,,,,0,0,0,0,2,0,2,0,29,0,29,0,,,,,,,,,,,,,,,,,409.31977499998175,410.0021941999439,410.0021941999439,410.58490050002,410.6015254999511,0.5990394999971613,412.5996951999841,2.6138258000137284,None,1,decreament,0.6,1,standard,None,100,,,,,,,f,36,237,fr,r,0,raw,2023-04-20_09h22.33.242,oddball,2022.2.5,60.1074239944408,
0,,,,,0,0,0,0,3,0,3,0,0,0,0,0,,,,,,,,,,,,,,,425.7389835999347,425.7389835999347,431.36764479998965,432.0005077000242,432.0005077000242,432.6000463999808,432.6000463999808,0.6155256999190897,434.61560140002985,2.6310966999735683,None,1,increament,0.6,5,standard,None,100,,412.61679879995063,0.000806800089776516,,,,f,36,237,fr,r,0,raw,2023-04-20_09h22.33.242,oddball,2022.2.5,60.1074239944408,
0,,,,,0,0,0,0,3,0,3,0,1,0,1,0,,,,,,,,,,,,,,,,,434.63178179995157,435.1479535000399,435.1479535000399,435.7475661999779,435.7475661999779,0.599042100016959,437.76247459999286,2.614121900056489,None,1,increament,0.6,5,standard,None,100,,,,,,,f,36,237,fr,r,0,raw,2023-04-20_09h22.33.242,oddball,2022.2.5,60.1074239944408,
0,,,,,0,0,0,0,3,0,3,0,2,0,2,0,,,,,,,,,,,,,,,,,437.76247459999286,438.345536799985,438.345536799985,438.9282518000109,438.94498090003617,0.5991337999003008,440.943446099991,2.6143427999923006,None,1,increament,0.6,5,standard,None,100,,,,,,,f,36,237,fr,r,0,raw,2023-04-20_09h22.33.242,oddball,2022.2.5,60.1074239944408,
0,,,,,0,0,0,0,3,0,3,0,3,0,3,0,,,,,,,,,,,,,,,,,440.95995499996934,441.6094150999561,441.6094150999561,442.1922165999422,442.2091142999707,0.6157860999228433,444.2072787999641,2.6304509999463335,None,1,increament,0.6,5,standard,None,100,,,,,,,f,36,237,fr,r,0,raw,2023-04-20_09h22.33.242,oddball,2022.2.5,60.1074239944408,
0,,,,,0,0,0,0,3,0,3,0,4,0,4,0,,,,,,,,,,,,,,,,,444.24055999994744,444.87338769994676,444.87338769994676,445.47277280001435,445.47277280001435,0.5993087999522686,447.48781640001107,2.613953599939123,None,1,increament,0.6,5,standard,None,100,,,,,,,f,36,237,fr,r,0,raw,2023-04-20_09h22.33.242,oddball,2022.2.5,60.1074239944408,
0,,,,,0,0,0,0,3,0,3,0,5,0,5,0,,,,,,,,,,,,,,,,,447.48781640001107,448.1040735000279,448.1040735000279,449.0533092999831,449.06997449998744,0.9652526000281796,451.0682270999532,2.980170900002122,j,1,increament,0.96,8,oddball,j,160,0.3249125999864191,,,,,,f,36,237,fr,r,0,raw,2023-04-20_09h22.33.242,oddball,2022.2.5,60.1074239944408,
0,,,,,0,0,0,0,3,0,3,0,6,0,6,0,,,,,,,,,,,,,,,,,451.08490529994015,451.6344027000014,451.6344027000014,452.21726810000837,452.2343452000059,0.5990393999963999,454.2323227999732,2.614086000015959,None,1,increament,0.6,5,standard,None,100,,,,,,,f,36,237,fr,r,0,raw,2023-04-20_09h22.33.242,oddball,2022.2.5,60.1074239944408,
0,,,,,0,0,0,0,3,0,3,0,7,0,7,0,,,,,,,,,,,,,,,,,454.2490809999872,454.9816666999832,454.9816666999832,455.581134499982,455.581134499982,0.5991841000504792,457.59638320002705,2.614093799958937,None,1,increament,0.6,5,standard,None,100,,,,,,,f,36,237,fr,r,0,raw,2023-04-20_09h22.33.242,oddball,2022.2.5,60.1074239944408,
0,,,,,0,0,0,0,3,0,3,0,8,0,8,0,,,,,,,,,,,,,,,,,457.59638320002705,458.312339099939,458.312339099939,458.91177619993687,458.91177619993687,0.6153654999798164,460.9269767999649,2.630553099908866,None,1,increament,0.6,5,standard,None,100,,,,,,,f,36,237,fr,r,0,raw,2023-04-20_09h22.33.242,oddball,2022.2.5,60.1074239944408,
0,,,,,0,0,0,0,3,0,3,0,9,0,9,0,,,,,,,,,,,,,,,,,460.9435055999784,461.7262522999663,461.7262522999663,462.3089117000345,462.3256479999982,0.5990796000696719,464.32397699996363,2.6141417000908405,None,1,increament,0.6,5,standard,None,100,,,,,,,f,36,237,fr,r,0,raw,2023-04-20_09h22.33.242,oddball,2022.2.5,60.1074239944408,
0,,,,,0,0,0,0,3,0,3,0,10,0,10,0,,,,,,,,,,,,,,,,,464.3407487999648,464.8904736000113,464.8904736000113,465.4896825000178,465.4896825000178,0.5991101999534294,467.5047943999525,2.613982000038959,None,1,increament,0.6,5,standard,None,100,,,,,,,f,36,237,fr,r,0,raw,2023-04-20_09h22.33.242,oddball,2022.2.5,60.1074239944408,
0,,,,,0,0,0,0,3,0,3,0,11,0,11,0,,,,,,,,,,,,,,,,,467.5047943999525,468.1875334000215,468.1875334000215,468.770321900025,468.78710429999046,0.5990287999156862,470.7855905999895,2.6143032999243587,None,1,increament,0.6,5,standard,None,100,,,,,,,f,36,237,fr,r,0,raw,2023-04-20_09h22.33.242,oddball,2022.2.5,60.1074239944408,
0,,,,,0,0,0,0,3,0,3,0,12,0,12,0,,,,,,,,,,,,,,,,,470.80202119995374,471.434936100035,471.434936100035,472.0344504000386,472.0344504000386,0.615561000071466,474.04925749998074,2.6303800999885425,None,1,increament,0.6,5,standard,None,100,,,,,,,f,36,237,fr,r,0,raw,2023-04-20_09h22.33.242,oddball,2022.2.5,60.1074239944408,
0,,,,,0,0,0,0,3,0,3,0,13,0,13,0,,,,,,,,,,,,,,,,,474.06598850002047,474.6653770999983,474.6653770999983,475.3817239999771,475.3981888999697,0.7321673000697047,477.39659030002076,2.747047199984081,j,1,increament,0.72,6,oddball,j,120,0.8655295999487862,,,,,,f,36,237,fr,r,0,raw,2023-04-20_09h22.33.242,oddball,2022.2.5,60.1074239944408,
0,,,,,0,0,0,0,3,0,3,0,14,0,14,0,,,,,,,,,,,,,,,,,477.4132397000212,478.0631387999747,478.0631387999747,478.6456351999659,478.6627289999742,0.5990921999327838,480.6606320999563,2.614084400003776,None,1,increament,0.6,5,standard,None,100,,,,,,,f,36,237,fr,r,0,raw,2023-04-20_09h22.33.242,oddball,2022.2.5,60.1074239944408,
0,,,,,0,0,0,0,3,0,3,0,15,0,15,0,,,,,,,,,,,,,,,,,480.6773304999806,481.2599416000303,481.2599416000303,481.8597179999342,481.8597179999342,0.615525099914521,483.87464509997517,2.6304272999987006,None,1,increament,0.6,5,standard,None,100,,,,,,,f,36,237,fr,r,0,raw,2023-04-20_09h22.33.242,oddball,2022.2.5,60.1074239944408,
0,,,,,0,0,0,0,3,0,3,0,16,0,16,0,,,,,,,,,,,,,,,,,483.8912885999307,484.6073850999819,484.6073850999819,485.20683109993115,485.20683109993115,0.6154846000717953,487.2219128999859,2.6305620000930503,None,1,increament,0.6,5,standard,None,100,,,,,,,f,36,237,fr,r,0,raw,2023-04-20_09h22.33.242,oddball,2022.2.5,60.1074239944408,
0,,,,,0,0,0,0,3,0,3,0,17,0,17,0,,,,,,,,,,,,,,,,,487.23850470001344,487.8380758999847,487.8380758999847,488.43741959996987,488.43741959996987,0.6153301000595093,490.45268350001425,2.63062589999754,None,1,increament,0.6,5,standard,None,100,,,,,,,f,36,237,fr,r,0,raw,2023-04-20_09h22.33.242,oddball,2022.2.5,60.1074239944408,
0,,,,,0,0,0,0,3,0,3,0,18,0,18,0,,,,,,,,,,,,,,,,,490.46925980004016,491.0191231999779,491.0191231999779,491.6184533999767,491.6184533999767,0.6154430999886245,493.6332741000224,2.6302603000076488,None,1,increament,0.6,5,standard,None,100,,,,,,,f,36,237,fr,r,0,raw,2023-04-20_09h22.33.242,oddball,2022.2.5,60.1074239944408,
0,,,,,0,0,0,0,3,0,3,0,19,0,19,0,,,,,,,,,,,,,,,,,493.6499002999626,494.3660254999995,494.3660254999995,494.96549089998007,494.96549089998007,0.6157159999711439,496.98049300001003,2.630721400026232,None,1,increament,0.6,5,standard,None,100,,,,,,,f,36,237,fr,r,0,raw,2023-04-20_09h22.33.242,oddball,2022.2.5,60.1074239944408,
0,,,,,0,0,0,0,3,0,3,0,20,0,20,0,,,,,,,,,,,,,,,,,496.9972345000133,497.64659809996374,497.64659809996374,498.2296240000287,498.24621699994896,0.5992825001012534,500.24464599997737,2.6142898000543937,None,1,increament,0.6,5,standard,None,100,,,,,,,f,36,237,fr,r,0,raw,2023-04-20_09h22.33.242,oddball,2022.2.5,60.1074239944408,
0,,,,,0,0,0,0,3,0,3,0,21,0,21,0,,,,,,,,,,,,,,,,,500.2611068999395,500.82744260004256,500.82744260004256,501.4267393000191,501.4267393000191,0.6152255999622867,503.4418110999977,2.6302812999347225,None,1,increament,0.6,5,standard,None,100,,,,,,,f,36,237,fr,r,0,raw,2023-04-20_09h22.33.242,oddball,2022.2.5,60.1074239944408,
0,,,,,0,0,0,0,3,0,3,0,22,0,22,0,,,,,,,,,,,,,,,,,503.45859119994566,504.22470080002677,504.22470080002677,505.05761280003935,505.0738231999567,0.8491166000021622,507.0721182000125,2.863621399970725,j,1,increament,0.84,7,oddball,j,140,0.4056629999540746,,,,,,f,36,237,fr,r,0,raw,2023-04-20_09h22.33.242,oddball,2022.2.5,60.1074239944408,
0,,,,,0,0,0,0,3,0,3,0,23,0,23,0,,,,,,,,,,,,,,,,,507.0888491999358,507.6385006000055,507.6385006000055,508.22134719998576,508.23806070000865,0.5992056999821216,510.23645820003003,2.6143049999373034,None,1,increament,0.6,5,standard,None,100,,,,,,,f,36,237,fr,r,0,raw,2023-04-20_09h22.33.242,oddball,2022.2.5,60.1074239944408,
0,,,,,0,0,0,0,3,0,3,0,24,0,24,0,,,,,,,,,,,,,,,,,510.25318919995334,510.8525714999996,510.8525714999996,511.4520233999938,511.4520233999938,0.5990145999239758,513.4669157000026,2.6139182000188157,None,1,increament,0.6,5,standard,None,100,,,,,,,f,36,237,fr,r,0,raw,2023-04-20_09h22.33.242,oddball,2022.2.5,60.1074239944408,
0,,,,,0,0,0,0,3,0,3,0,25,0,25,0,,,,,,,,,,,,,,,,,513.4669157000026,514.2497158999322,514.2497158999322,514.8492899000412,514.8492899000412,0.615572499926202,516.8640199999791,2.6302807999309152,None,1,increament,0.6,5,standard,None,100,,,,,,,f,36,237,fr,r,0,raw,2023-04-20_09h22.33.242,oddball,2022.2.5,60.1074239944408,
0,,,,,0,0,0,0,3,0,3,0,26,0,26,0,,,,,,,,,,,,,,,,,516.8808586000232,517.5637639999622,517.5637639999622,518.1630776999518,518.1630776999518,0.6151699998881668,520.1783451000229,2.6304362999508157,None,1,increament,0.6,5,standard,None,100,,,,,,,f,36,237,fr,r,0,raw,2023-04-20_09h22.33.242,oddball,2022.2.5,60.1074239944408,
0,,,,,0,0,0,0,3,0,3,0,27,0,27,0,,,,,,,,,,,,,,,,,520.1947887999704,520.7943346999818,520.7943346999818,521.3771303000394,521.3938496999908,0.5990884999046102,523.3921607999364,2.614132499904372,None,1,increament,0.6,5,standard,None,100,,,,,,,f,36,237,fr,r,0,raw,2023-04-20_09h22.33.242,oddball,2022.2.5,60.1074239944408,
0,,,,,0,0,0,0,3,0,3,0,28,0,28,0,,,,,,,,,,,,,,,,,523.4089624999324,524.041661700001,524.041661700001,524.6411868999712,524.6411868999712,0.6155036999844015,526.6561228999635,2.6304269999964163,None,1,increament,0.6,5,standard,None,100,,,,,,,f,36,237,fr,r,0,raw,2023-04-20_09h22.33.242,oddball,2022.2.5,60.1074239944408,
0,,,,,0,0,0,0,3,0,3,0,29,0,29,0,,,,,,,,,,,,,,,,,526.6728835999966,527.455514500034,527.455514500034,528.0549888999667,528.0549888999667,0.615512500051409,530.0700392000144,2.6305640001082793,None,1,increament,0.6,5,standard,None,100,,,,,,,f,36,237,fr,r,0,raw,2023-04-20_09h22.33.242,oddball,2022.2.5,60.1074239944408,
0,,,,,0,0,0,0,4,0,4,0,0,0,0,0,,,,,,,,,,,,,,,544.7911335999379,544.7911335999379,550.919689900009,551.7190602000337,551.7190602000337,552.3183485999471,552.3183485999471,0.5990386999910697,554.3334023000207,2.6142188999801874,None,1,decreament,0.6,1,standard,None,100,,530.086685199989,0.0005636001005768776,,,,f,36,237,fr,r,0,raw,2023-04-20_09h22.33.242,oddball,2022.2.5,60.1074239944408,
0,,,,,0,0,0,0,4,0,4,0,1,0,1,0,,,,,,,,,,,,,,,,,554.3334023000207,554.9328024999704,554.9328024999704,555.5323845000239,555.5323845000239,0.5994034999748692,557.547352500027,2.613920500036329,None,1,decreament,0.6,1,standard,None,100,,,,,,,f,36,237,fr,r,0,raw,2023-04-20_09h22.33.242,oddball,2022.2.5,60.1074239944408,
0,,,,,0,0,0,0,4,0,4,0,2,0,2,0,,,,,,,,,,,,,,,,,557.547352500027,558.1968808999518,558.1968808999518,558.7797189999837,558.7965316999471,0.5991106000728905,560.7948272000067,2.6141983000561595,None,1,decreament,0.6,1,standard,None,100,,,,,,,f,36,237,fr,r,0,raw,2023-04-20_09h22.33.242,oddball,2022.2.5,60.1074239944408,
0,,,,,0,0,0,0,4,0,4,0,3,0,3,0,,,,,,,,,,,,,,,,,560.8113651999738,561.3775404000189,561.3775404000189,561.9769550999627,561.9769550999627,0.6146486999932677,563.9921808999497,2.629890099982731,None,1,decreament,0.6,1,standard,None,100,,,,,,,f,36,237,fr,r,0,raw,2023-04-20_09h22.33.242,oddball,2022.2.5,60.1074239944408,
0,,,,,0,0,0,0,4,0,4,0,4,0,4,0,,,,,,,,,,,,,,,,,564.0086959999753,564.7583073000424,564.7583073000424,565.357627099962,565.357627099962,0.5992647999664769,567.3729656999931,2.614020299981348,None,1,decreament,0.6,1,standard,None,100,,,,,,,f,36,237,fr,r,0,raw,2023-04-20_09h22.33.242,oddball,2022.2.5,60.1074239944408,
0,,,,,0,0,0,0,4,0,4,0,5,0,5,0,,,,,,,,,,,,,,,,,567.3729656999931,567.9389856000198,567.9389856000198,568.4052349999547,568.4219587999396,0.4821665999479592,570.4200949999504,2.497014499967918,None,0,decreament,0.48,4,oddball,j,80,,,,,,,f,36,237,fr,r,0,raw,2023-04-20_09h22.33.242,oddball,2022.2.5,60.1074239944408,
0,,,,,0,0,0,0,4,0,4,0,6,0,6,0,,,,,,,,,,,,,,,,,570.4368612000253,571.086251599947,571.086251599947,571.6859217999736,571.6859217999736,0.6156535999616608,573.7009299999336,2.630691999918781,None,1,decreament,0.6,1,standard,None,100,,,,,,,f,36,237,fr,r,0,raw,2023-04-20_09h22.33.242,oddball,2022.2.5,60.1074239944408,
0,,,,,0,0,0,0,4,0,4,0,7,0,7,0,,,,,,,,,,,,,,,,,573.7173386999639,574.366941299988,574.366941299988,574.9663737999508,574.9663737999508,0.6151226999936625,576.981486100005,2.6302088999655098,None,1,decreament,0.6,1,standard,None,100,,,,,,,f,36,237,fr,r,0,raw,2023-04-20_09h22.33.242,oddball,2022.2.5,60.1074239944408,
0,,,,,0,0,0,0,4,0,4,0,8,0,8,0,,,,,,,,,,,,,,,,,576.9979456999572,577.6974813999841,577.6974813999841,578.2975494000129,578.2975494000129,0.6159507000120357,580.3120656999527,2.6304818999487907,None,1,decreament,0.6,1,standard,None,100,,,,,,,f,36,237,fr,r,0,raw,2023-04-20_09h22.33.242,oddball,2022.2.5,60.1074239944408,
0,,,,,0,0,0,0,4,0,4,0,9,0,9,0,,,,,,,,,,,,,,,,,580.3289402000373,581.1280982999597,581.1280982999597,581.7274939999916,581.7274939999916,0.6152274999767542,583.7424425999634,2.630153500009328,None,1,decreament,0.6,1,standard,None,100,,,,,,,f,36,237,fr,r,0,raw,2023-04-20_09h22.33.242,oddball,2022.2.5,60.1074239944408,
0,,,,,0,0,0,0,4,0,4,0,10,0,10,0,,,,,,,,,,,,,,,,,583.7588730999269,584.3422535000136,584.3422535000136,584.941635999945,584.941635999945,0.6155177999753505,586.9564820999512,2.630342400050722,None,1,decreament,0.6,1,standard,None,100,,,,,,,f,36,237,fr,r,0,raw,2023-04-20_09h22.33.242,oddball,2022.2.5,60.1074239944408,
0,,,,,0,0,0,0,4,0,4,0,11,0,11,0,,,,,,,,,,,,,,,,,586.9732144000009,587.5392748999875,587.5392748999875,588.1389163000276,588.1389163000276,0.5991912999888882,590.1542023000075,2.6140078000025824,None,1,decreament,0.6,1,standard,None,100,,,,,,,f,36,237,fr,r,0,raw,2023-04-20_09h22.33.242,oddball,2022.2.5,60.1074239944408,
0,,,,,0,0,0,0,4,0,4,0,12,0,12,0,,,,,,,,,,,,,,,,,590.1542023000075,590.886827499955,590.886827499955,591.4696433999343,591.4861667000223,0.6154842000687495,593.4846248000395,2.630521500017494,None,1,decreament,0.6,1,standard,None,100,,,,,,,f,36,237,fr,r,0,raw,2023-04-20_09h22.33.242,oddball,2022.2.5,60.1074239944408,
0,,,,,0,0,0,0,4,0,4,0,13,0,13,0,,,,,,,,,,,,,,,,,593.5179241999285,594.2172954999842,594.2172954999842,594.8001460999949,594.816810999997,0.5990130000282079,596.8153088999679,2.6141968000447378,j,0,decreament,0.6,1,standard,None,100,0.48304550000466406,,,,,,f,36,237,fr,r,0,raw,2023-04-20_09h22.33.242,oddball,2022.2.5,60.1074239944408,
0,,,,,0,0,0,0,4,0,4,0,14,0,14,0,,,,,,,,,,,,,,,,,596.831765400013,597.4814322999446,597.4814322999446,598.0809142999351,598.0809142999351,0.6156069000717252,600.0956953000277,2.630348499980755,None,1,decreament,0.6,1,standard,None,100,,,,,,,f,36,237,fr,r,0,raw,2023-04-20_09h22.33.242,oddball,2022.2.5,60.1074239944408,
0,,,,,0,0,0,0,4,0,4,0,15,0,15,0,,,,,,,,,,,,,,,,,600.1124547999352,600.811837599962,600.811837599962,601.4113215999678,601.4113215999678,0.6154044999275357,603.4266007000115,2.6306582998950034,None,1,decreament,0.6,1,standard,None,100,,,,,,,f,36,237,fr,r,0,raw,2023-04-20_09h22.33.242,oddball,2022.2.5,60.1074239944408,
0,,,,,0,0,0,0,4,0,4,0,16,0,16,0,,,,,,,,,,,,,,,,,603.4430246000411,604.0592026000377,604.0592026000377,604.6587005000329,604.6587005000329,0.6152955000288785,606.6737334999489,2.630307300016284,None,1,decreament,0.6,1,standard,None,100,,,,,,,f,36,237,fr,r,0,raw,2023-04-20_09h22.33.242,oddball,2022.2.5,60.1074239944408,
0,,,,,0,0,0,0,4,0,4,0,17,0,17,0,,,,,,,,,,,,,,,,,606.6903721999843,607.5729254999897,607.5729254999897,608.1726003999356,608.1726003999356,0.6154919998953119,610.1873351000249,2.6302275999914855,None,1,decreament,0.6,1,standard,None,100,,,,,,,f,36,237,fr,r,0,raw,2023-04-20_09h22.33.242,oddball,2022.2.5,60.1074239944408,
0,,,,,0,0,0,0,4,0,4,0,18,0,18,0,,,,,,,,,,,,,,,,,610.2040952999378,610.7372030999977,610.7372030999977,611.3365793999983,611.3365793999983,0.6152820999268442,613.3516733000288,2.6303908999543637,None,1,decreament,0.6,1,standard,None,100,,,,,,,f,36,237,fr,r,0,raw,2023-04-20_09h22.33.242,oddball,2022.2.5,60.1074239944408,
0,,,,,0,0,0,0,4,0,4,0,19,0,19,0,,,,,,,,,,,,,,,,,613.3681815000018,613.9178342999658,613.9178342999658,614.5172839999432,614.5172839999432,0.6153589999303222,616.532347499975,2.630417399923317,None,1,decreament,0.6,1,standard,None,100,,,,,,,f,36,237,fr,r,0,raw,2023-04-20_09h22.33.242,oddball,2022.2.5,60.1074239944408,
0,,,,,0,0,0,0,4,0,4,0,20,0,20,0,,,,,,,,,,,,,,,,,616.5489697000012,617.1483841999434,617.1483841999434,617.7312546999892,617.7479578999337,0.6154876999789849,619.7464965999825,2.6305413000518456,None,1,decreament,0.6,1,standard,None,100,,,,,,,f,36,237,fr,r,0,raw,2023-04-20_09h22.33.242,oddball,2022.2.5,60.1074239944408,
0,,,,,0,0,0,0,4,0,4,0,21,0,21,0,,,,,,,,,,,,,,,,,619.7796845999546,620.4125222000293,620.4125222000293,621.0119512999663,621.0119512999663,0.6154080999549478,623.0268382999348,2.6303011999698356,None,1,decreament,0.6,1,standard,None,100,,,,,,,f,36,237,fr,r,0,raw,2023-04-20_09h22.33.242,oddball,2022.2.5,60.1074239944408,
0,,,,,0,0,0,0,4,0,4,0,22,0,22,0,,,,,,,,,,,,,,,,,623.043731499929,623.7765761000337,623.7765761000337,624.0097381999949,624.0259741999907,0.24937409989070147,626.0245253000176,2.2641180999344215,j,1,decreament,0.24,2,oddball,j,40,0.43921169999521226,,,,,,f,36,237,fr,r,0,raw,2023-04-20_09h22.33.242,oddball,2022.2.5,60.1074239944408,
0,,,,,0,0,0,0,4,0,4,0,23,0,23,0,,,,,,,,,,,,,,,,,626.0413197999587,626.8073191000149,626.8073191000149,627.4067672999809,627.4067672999809,0.6156565999845043,629.4216020000167,2.630484100081958,None,1,decreament,0.6,1,standard,None,100,,,,,,,f,36,237,fr,r,0,raw,2023-04-20_09h22.33.242,oddball,2022.2.5,60.1074239944408,
0,,,,,0,0,0,0,4,0,4,0,24,0,24,0,,,,,,,,,,,,,,,,,629.4383890000172,629.9712540999753,629.9712540999753,630.5706631999929,630.5706631999929,0.615229899995029,632.5858452999964,2.630420299945399,None,1,decreament,0.6,1,standard,None,100,,,,,,,f,36,237,fr,r,0,raw,2023-04-20_09h22.33.242,oddball,2022.2.5,60.1074239944408,
0,,,,,0,0,0,0,4,0,4,0,25,0,25,0,,,,,,,,,,,,,,,,,632.6025127000175,633.2852016999386,633.2852016999386,633.8848136999877,633.8848136999877,0.6156758000142872,635.8996582999825,2.630510300048627,None,1,decreament,0.6,1,standard,None,100,,,,,,,f,36,237,fr,r,0,raw,2023-04-20_09h22.33.242,oddball,2022.2.5,60.1074239944408,
0,,,,,0,0,0,0,4,0,4,0,26,0,26,0,,,,,,,,,,,,,,,,,635.9162501000101,636.532543099951,636.532543099951,637.1320694999304,637.1320694999304,0.6156044999370351,639.1470788000152,2.630606299964711,None,1,decreament,0.6,1,standard,None,100,,,,,,,f,36,237,fr,r,0,raw,2023-04-20_09h22.33.242,oddball,2022.2.5,60.1074239944408,
0,,,,,0,0,0,0,4,0,4,0,27,0,27,0,,,,,,,,,,,,,,,,,639.163662099978,639.8299736999907,639.8299736999907,640.429268399952,640.429268399952,0.615618700045161,642.4443392000394,2.6306920000351965,None,1,decreament,0.6,1,standard,None,100,,,,,,,f,36,237,fr,r,0,raw,2023-04-20_09h22.33.242,oddball,2022.2.5,60.1074239944408,
0,,,,,0,0,0,0,4,0,4,0,28,0,28,0,,,,,,,,,,,,,,,,,642.4609521999955,643.0939105999423,643.0939105999423,643.443594399956,643.4600576999364,0.36598589993081987,645.4583855000092,2.3807704999344423,j,1,decreament,0.36,3,oddball,j,60,0.7756664999760687,,,,,,f,36,237,fr,r,0,raw,2023-04-20_09h22.33.242,oddball,2022.2.5,60.1074239944408,
0,,,,,0,0,0,0,4,0,4,0,29,0,29,0,,,,,,,,,,,,,,,,,645.4752345000161,646.0747148999944,646.0747148999944,646.6742346000392,646.6742346000392,0.615675599896349,648.6892828999553,2.6307219999143854,None,1,decreament,0.6,1,standard,None,100,,,,,,,f,36,237,fr,r,0,raw,2023-04-20_09h22.33.242,oddball,2022.2.5,60.1074239944408,
0,,,,,0,0,0,0,5,0,5,0,0,0,0,0,,,,,,,,,,,,,,,661.7283863000339,661.7283863000339,664.5426920999307,665.2589468000224,665.2589468000224,665.8417715999531,665.8585790999932,0.599086600006558,667.8567202000413,2.6141498999204487,None,1,increament,0.6,5,standard,None,100,,648.705998999998,0.0009227999253198504,,,,f,36,237,fr,r,0,raw,2023-04-20_09h22.33.242,oddball,2022.2.5,60.1074239944408,
0,,,,,0,0,0,0,5,0,5,0,1,0,1,0,,,,,,,,,,,,,,,,,667.8737047000322,668.556262500002,668.556262500002,669.1556245000102,669.1556245000102,0.6152555999578908,671.1708271999378,2.630445500020869,None,1,increament,0.6,5,standard,None,100,,,,,,,f,36,237,fr,r,0,raw,2023-04-20_09h22.33.242,oddball,2022.2.5,60.1074239944408,
0,,,,,0,0,0,0,5,0,5,0,2,0,2,0,,,,,,,,,,,,,,,,,671.1873779000016,671.9533352999715,671.9533352999715,672.5361767000286,672.5529954000376,0.615631700027734,674.5513857000042,2.6304995000828058,None,1,increament,0.6,5,standard,None,100,,,,,,,f,36,237,fr,r,0,raw,2023-04-20_09h22.33.242,oddball,2022.2.5,60.1074239944408,
0,,,,,0,0,0,0,5,0,5,0,3,0,3,0,,,,,,,,,,,,,,,,,674.5846255000215,675.150915700011,675.150915700011,675.7338364999741,675.7504111999879,0.5994613000657409,677.7487711999565,2.6143716000951827,None,1,increament,0.6,5,standard,None,100,,,,,,,f,36,237,fr,r,0,raw,2023-04-20_09h22.33.242,oddball,2022.2.5,60.1074239944408,
0,,,,,0,0,0,0,5,0,5,0,4,0,4,0,,,,,,,,,,,,,,,,,677.7655536000384,678.4481710999971,678.4481710999971,679.0308922999538,679.047731300001,0.6157874999335036,681.0461312000407,2.630672900006175,None,1,increament,0.6,5,standard,None,100,,,,,,,f,36,237,fr,r,0,raw,2023-04-20_09h22.33.242,oddball,2022.2.5,60.1074239944408,
0,,,,,0,0,0,0,5,0,5,0,5,0,5,0,,,,,,,,,,,,,,,,,681.0792740000179,681.7287226000335,681.7287226000335,682.328233600012,682.328233600012,0.6154160000151023,684.3432767000049,2.6304509000619873,None,1,increament,0.6,5,standard,None,100,,,,,,,f,36,237,fr,r,0,raw,2023-04-20_09h22.33.242,oddball,2022.2.5,60.1074239944408,
0,,,,,0,0,0,0,5,0,5,0,6,0,6,0,,,,,,,,,,,,,,,,,684.3599193999544,684.8761002999963,684.8761002999963,685.8253927000333,685.8420228000032,0.9652383000357077,687.8403552999953,2.98017490003258,j,1,increament,0.96,8,oddball,j,160,0.34993640007451177,,,,,,f,36,237,fr,r,0,raw,2023-04-20_09h22.33.242,oddball,2022.2.5,60.1074239944408,
0,,,,,0,0,0,0,5,0,5,0,7,0,7,0,,,,,,,,,,,,,,,,,687.8570951999864,688.5064385000151,688.5064385000151,689.10607790004,689.10607790004,0.6156107001006603,691.1209988000337,2.6305198000045493,None,1,increament,0.6,5,standard,None,100,,,,,,,f,36,237,fr,r,0,raw,2023-04-20_09h22.33.242,oddball,2022.2.5,60.1074239944408,
0,,,,,0,0,0,0,5,0,5,0,8,0,8,0,,,,,,,,,,,,,,,,,691.1376790000359,691.9372076999862,691.9372076999862,692.5365641999524,692.5365641999524,0.6151795999612659,694.5517541000154,2.630350699997507,None,1,increament,0.6,5,standard,None,100,,,,,,,f,36,237,fr,r,0,raw,2023-04-20_09h22.33.242,oddball,2022.2.5,60.1074239944408,
0,,,,,0,0,0,0,5,0,5,0,9,0,9,0,,,,,,,,,,,,,,,,,694.5681292000227,695.3509500999935,695.3509500999935,695.950357099995,695.950357099995,0.6155366998864338,697.965292799985,2.6304738998878747,None,1,increament,0.6,5,standard,None,100,,,,,,,f,36,237,fr,r,0,raw,2023-04-20_09h22.33.242,oddball,2022.2.5,60.1074239944408,
0,,,,,0,0,0,0,5,0,5,0,10,0,10,0,,,,,,,,,,,,,,,,,697.981921199942,698.6815118000377,698.6815118000377,699.397597800009,699.4140923999948,0.7323967999545857,701.4125032000011,2.7473198999650776,None,0,increament,0.72,6,oddball,j,120,,,,,,,f,36,237,fr,r,0,raw,2023-04-20_09h22.33.242,oddball,2022.2.5,60.1074239944408,
0,,,,,0,0,0,0,5,0,5,0,11,0,11,0,,,,,,,,,,,,,,,,,701.4292625000235,702.01219639997,702.01219639997,702.6116003999487,702.6116003999487,0.6153826001100242,704.6265855999663,2.6303469000849873,None,1,increament,0.6,5,standard,None,100,,,,,,,f,36,237,fr,r,0,raw,2023-04-20_09h22.33.242,oddball,2022.2.5,60.1074239944408,
0,,,,,0,0,0,0,5,0,5,0,12,0,12,0,,,,,,,,,,,,,,,,,704.6432232999941,705.2260619000299,705.2260619000299,705.8087479999522,705.8251949000405,0.6153107000282034,707.8239984000102,2.6308853999944404,None,1,increament,0.6,5,standard,None,100,,,,,,,f,36,237,fr,r,0,raw,2023-04-20_09h22.33.242,oddball,2022.2.5,60.1074239944408,
0,,,,,0,0,0,0,5,0,5,0,13,0,13,0,,,,,,,,,,,,,,,,,707.8571863999823,708.6065689999377,708.6065689999377,709.20603510004,709.20603510004,0.5990301999263465,711.2211955999956,2.614181699929759,None,1,increament,0.6,5,standard,None,100,,,,,,,f,36,237,fr,r,0,raw,2023-04-20_09h22.33.242,oddball,2022.2.5,60.1074239944408,
0,,,,,0,0,0,0,5,0,5,0,14,0,14,0,,,,,,,,,,,,,,,,,711.2211955999956,711.7540818999987,711.7540818999987,712.3534796999302,712.3534796999302,0.6150516999186948,714.36886399996,2.6304641999304295,None,1,increament,0.6,5,standard,None,100,,,,,,,f,36,237,fr,r,0,raw,2023-04-20_09h22.33.242,oddball,2022.2.5,60.1074239944408,
0,,,,,0,0,0,0,5,0,5,0,15,0,15,0,,,,,,,,,,,,,,,,,714.3851646999829,715.167875999934,715.167875999934,715.7508214999689,715.7675282999408,0.599357100087218,717.7658122000284,2.614329000003636,None,1,increament,0.6,5,standard,None,100,,,,,,,f,36,237,fr,r,0,raw,2023-04-20_09h22.33.242,oddball,2022.2.5,60.1074239944408,
0,,,,,0,0,0,0,5,0,5,0,16,0,16,0,,,,,,,,,,,,,,,,,717.7824198999442,718.4652424999513,718.4652424999513,719.0646870000055,719.0646870000055,0.6155274999327958,721.079832199961,2.6306645999429747,None,1,increament,0.6,5,standard,None,100,,,,,,,f,36,237,fr,r,0,raw,2023-04-20_09h22.33.242,oddball,2022.2.5,60.1074239944408,
0,,,,,0,0,0,0,5,0,5,0,17,0,17,0,,,,,,,,,,,,,,,,,721.0963026999962,721.8456189000281,721.8456189000281,722.4451643000357,722.4451643000357,0.6154453000053763,724.4604467999889,2.6307123999577016,None,1,increament,0.6,5,standard,None,100,,,,,,,f,36,237,fr,r,0,raw,2023-04-20_09h22.33.242,oddball,2022.2.5,60.1074239944408,
0,,,,,0,0,0,0,5,0,5,0,18,0,18,0,,,,,,,,,,,,,,,,,724.4770289999433,725.1764188000234,725.1764188000234,725.7758434999269,725.7758434999269,0.6154535000678152,727.7911996999756,2.6308268000138924,None,1,increament,0.6,5,standard,None,100,,,,,,,f,36,237,fr,r,0,raw,2023-04-20_09h22.33.242,oddball,2022.2.5,60.1074239944408,
0,,,,,0,0,0,0,5,0,5,0,19,0,19,0,,,,,,,,,,,,,,,,,727.807613599929,728.4404887999408,728.4404887999408,729.039787299931,729.039787299931,0.6154750999994576,731.0549314999953,2.6305985999060795,None,1,increament,0.6,5,standard,None,100,,,,,,,f,36,237,fr,r,0,raw,2023-04-20_09h22.33.242,oddball,2022.2.5,60.1074239944408,
0,,,,,0,0,0,0,5,0,5,0,20,0,20,0,,,,,,,,,,,,,,,,,731.0718398999888,731.6046162999701,731.6046162999701,732.2039991000202,732.2039991000202,0.6151281000347808,734.2189586999593,2.630078800022602,None,1,increament,0.6,5,standard,None,100,,,,,,,f,36,237,fr,r,0,raw,2023-04-20_09h22.33.242,oddball,2022.2.5,60.1074239944408,
0,,,,,0,0,0,0,5,0,5,0,21,0,21,0,,,,,,,,,,,,,,,,,734.2355526000028,734.8683581999503,734.8683581999503,735.4679347999627,735.4679347999627,0.6152233999455348,737.4828275999753,2.6301097000250593,None,1,increament,0.6,5,standard,None,100,,,,,,,f,36,237,fr,r,0,raw,2023-04-20_09h22.33.242,oddball,2022.2.5,60.1074239944408,
0,,,,,0,0,0,0,5,0,5,0,22,0,22,0,,,,,,,,,,,,,,,,,737.4996632999973,738.0827063999604,738.0827063999604,738.6652960999636,738.6822246999945,0.5990287000313401,740.680289400043,2.614008400007151,None,1,increament,0.6,5,standard,None,100,,,,,,,f,36,237,fr,r,0,raw,2023-04-20_09h22.33.242,oddball,2022.2.5,60.1074239944408,
0,,,,,0,0,0,0,5,0,5,0,23,0,23,0,,,,,,,,,,,,,,,,,740.6969137999695,741.3467127999756,741.3467127999756,741.9460203000344,741.9460203000344,0.6155150999547914,743.9609730000375,2.630421199952252,None,1,increament,0.6,5,standard,None,100,,,,,,,f,36,237,fr,r,0,raw,2023-04-20_09h22.33.242,oddball,2022.2.5,60.1074239944408,
0,,,,,0,0,0,0,5,0,5,0,24,0,24,0,,,,,,,,,,,,,,,,,743.9777557000052,744.6272083999356,744.6272083999356,745.2102440999588,745.2264615999302,0.5991198000265285,747.2248954999959,2.6137478000018746,None,1,increament,0.6,5,standard,None,100,,,,,,,f,36,237,fr,r,0,raw,2023-04-20_09h22.33.242,oddball,2022.2.5,60.1074239944408,
0,,,,,0,0,0,0,5,0,5,0,25,0,25,0,,,,,,,,,,,,,,,,,747.2416060999967,748.0409667999484,748.0409667999484,748.6403279999504,748.6403279999504,0.6153759999433532,750.6553863999434,2.630423599970527,None,1,increament,0.6,5,standard,None,100,,,,,,,f,36,237,fr,r,0,raw,2023-04-20_09h22.33.242,oddball,2022.2.5,60.1074239944408,
0,,,,,0,0,0,0,5,0,5,0,26,0,26,0,,,,,,,,,,,,,,,,,750.6719172999728,751.4213608000427,751.4213608000427,752.0042730999412,752.0209205999272,0.5990575000178069,754.0192968000192,2.6140762000577524,None,1,increament,0.6,5,standard,None,100,,,,,,,f,36,237,fr,r,0,raw,2023-04-20_09h22.33.242,oddball,2022.2.5,60.1074239944408,
0,,,,,0,0,0,0,5,0,5,0,27,0,27,0,,,,,,,,,,,,,,,,,754.035973799997,754.5689517999999,754.5689517999999,755.1518065000419,755.1681917000096,0.5990909000393003,757.1668252999661,2.6141163000138476,None,1,increament,0.6,5,standard,None,100,,,,,,,f,36,237,fr,r,0,raw,2023-04-20_09h22.33.242,oddball,2022.2.5,60.1074239944408,
0,,,,,0,0,0,0,5,0,5,0,28,0,28,0,,,,,,,,,,,,,,,,,757.1833919000346,757.8328858999303,757.8328858999303,758.6654655999737,758.6821153999772,0.848436800064519,760.6804335999768,2.8634563999949023,None,0,increament,0.84,7,oddball,j,140,,,,,,,f,36,237,fr,r,0,raw,2023-04-20_09h22.33.242,oddball,2022.2.5,60.1074239944408,
0,,,,,0,0,0,0,5,0,5,0,29,0,29,0,,,,,,,,,,,,,,,,,760.697120900033,761.3133365999674,761.3133365999674,761.9127691999311,761.9127691999311,0.6155266999267042,763.9278594999341,2.6305855999235064,None,1,increament,0.6,5,standard,None,100,,,,,,,f,36,237,fr,r,0,raw,2023-04-20_09h22.33.242,oddball,2022.2.5,60.1074239944408,
0,,,,,0,0,0,0,6,0,6,0,0,0,0,0,,,,,,,,,,,,,,,783.5449124999577,783.5449124999577,790.2728457000339,790.8224497999763,790.8224497999763,791.4220034999307,791.4220034999307,0.6151674999855459,793.4368437000085,2.6300057999324054,None,1,decreament,0.6,1,standard,None,100,,763.9446531999856,0.0007942999945953488,,,,f,36,237,fr,r,0,raw,2023-04-20_09h22.33.242,oddball,2022.2.5,60.1074239944408,
0,,,,,0,0,0,0,6,0,6,0,1,0,1,0,,,,,,,,,,,,,,,,,793.4537116999272,794.1197651999537,794.1197651999537,794.7191074999282,794.7191074999282,0.6150480000069365,796.7341191000305,2.6300775000127032,None,1,decreament,0.6,1,standard,None,100,,,,,,,f,36,237,fr,r,0,raw,2023-04-20_09h22.33.242,oddball,2022.2.5,60.1074239944408,
0,,,,,0,0,0,0,6,0,6,0,2,0,2,0,,,,,,,,,,,,,,,,,796.7508316999301,797.4002899000188,797.4002899000188,797.9996287999675,797.9996287999675,0.5990048999665305,800.0149309999542,2.613861099933274,None,1,decreament,0.6,1,standard,None,100,,,,,,,f,36,237,fr,r,0,raw,2023-04-20_09h22.33.242,oddball,2022.2.5,60.1074239944408,
0,,,,,0,0,0,0,6,0,6,0,3,0,3,0,,,,,,,,,,,,,,,,,800.0149309999542,800.5477970000356,800.5477970000356,801.130926999962,801.1471856000135,0.5994007000699639,803.1455485000042,2.6139928000047803,None,1,decreament,0.6,1,standard,None,100,,,,,,,f,36,237,fr,r,0,raw,2023-04-20_09h22.33.242,oddball,2022.2.5,60.1074239944408,
0,,,,,0,0,0,0,6,0,6,0,4,0,4,0,,,,,,,,,,,,,,,,,803.1626770999283,803.7617563999956,803.7617563999956,804.34472059994,804.3615039000288,0.5991768999956548,806.3597326999297,2.6142052999930456,None,1,decreament,0.6,1,standard,None,100,,,,,,,f,36,237,fr,r,0,raw,2023-04-20_09h22.33.242,oddball,2022.2.5,60.1074239944408,
0,,,,,0,0,0,0,6,0,6,0,5,0,5,0,,,,,,,,,,,,,,,,,806.376188699971,806.9924334000098,806.9924334000098,807.5921970999334,807.5921970999334,0.6156945000402629,809.6070204999996,2.6305027999915183,None,1,decreament,0.6,1,standard,None,100,,,,,,,f,36,237,fr,r,0,raw,2023-04-20_09h22.33.242,oddball,2022.2.5,60.1074239944408,
0,,,,,0,0,0,0,6,0,6,0,6,0,6,0,,,,,,,,,,,,,,,,,809.6238677999936,810.389770800015,810.389770800015,810.9891201999271,810.9891201999271,0.6154649999225512,813.0042246000376,2.6305567999370396,None,1,decreament,0.6,1,standard,None,100,,,,,,,f,36,237,fr,r,0,raw,2023-04-20_09h22.33.242,oddball,2022.2.5,60.1074239944408,
0,,,,,0,0,0,0,6,0,6,0,7,0,7,0,,,,,,,,,,,,,,,,,813.0208289999282,813.6203177999705,813.6203177999705,814.2198267999338,814.2198267999338,0.6150571999605745,816.2348208000185,2.630041899974458,None,1,decreament,0.6,1,standard,None,100,,,,,,,f,36,237,fr,r,0,raw,2023-04-20_09h22.33.242,oddball,2022.2.5,60.1074239944408,
0,,,,,0,0,0,0,6,0,6,0,8,0,8,0,,,,,,,,,,,,,,,,,816.2516850000247,816.8676240999484,816.8676240999484,817.100887699984,817.1173521999735,0.249053799896501,819.1158457000274,2.2640118999406695,j,1,decreament,0.24,2,oddball,j,40,0.5662198000354692,,,,,,f,36,237,fr,r,0,raw,2023-04-20_09h22.33.242,oddball,2022.2.5,60.1074239944408,
0,,,,,0,0,0,0,6,0,6,0,9,0,9,0,,,,,,,,,,,,,,,,,819.1325478999643,819.7653550000396,819.7653550000396,820.364671499934,820.364671499934,0.5996118999319151,822.3801587999333,2.614010899909772,None,1,decreament,0.6,1,standard,None,100,,,,,,,f,36,237,fr,r,0,raw,2023-04-20_09h22.33.242,oddball,2022.2.5,60.1074239944408,
0,,,,,0,0,0,0,6,0,6,0,10,0,10,0,,,,,,,,,,,,,,,,,822.3801587999333,823.0126518999459,823.0126518999459,823.6120571999345,823.6120571999345,0.5992693000007421,825.6278764000162,2.6137115000747144,None,1,decreament,0.6,1,standard,None,100,,,,,,,f,36,237,fr,r,0,raw,2023-04-20_09h22.33.242,oddball,2022.2.5,60.1074239944408,
0,,,,,0,0,0,0,6,0,6,0,11,0,11,0,,,,,,,,,,,,,,,,,825.6278764000162,826.2768860999495,826.2768860999495,826.8761126999743,826.8761126999743,0.5991268999641761,828.8910560000222,2.6138011999428272,None,1,decreament,0.6,1,standard,None,100,,,,,,,f,36,237,fr,r,0,raw,2023-04-20_09h22.33.242,oddball,2022.2.5,60.1074239944408,
0,,,,,0,0,0,0,6,0,6,0,12,0,12,0,,,,,,,,,,,,,,,,,828.8910560000222,829.5738838999532,829.5738838999532,830.173406100017,830.173406100017,0.6153376000002027,832.1883884000126,2.6303270999342203,None,1,decreament,0.6,1,standard,None,100,,,,,,,f,36,237,fr,r,0,raw,2023-04-20_09h22.33.242,oddball,2022.2.5,60.1074239944408,
0,,,,,0,0,0,0,6,0,6,0,13,0,13,0,,,,,,,,,,,,,,,,,832.2050842000172,832.8712317999452,832.8712317999452,833.470543900039,833.470543900039,0.6154316000174731,835.4856045999331,2.630483500077389,None,1,decreament,0.6,1,standard,None,100,,,,,,,f,36,237,fr,r,0,raw,2023-04-20_09h22.33.242,oddball,2022.2.5,60.1074239944408,
0,,,,,0,0,0,0,6,0,6,0,14,0,14,0,,,,,,,,,,,,,,,,,835.5022542999359,836.1019283999922,836.1019283999922,836.6849578999681,836.7013372000074,0.5991815000306815,838.6999017000198,2.614085500012152,None,1,decreament,0.6,1,standard,None,100,,,,,,,f,36,237,fr,r,0,raw,2023-04-20_09h22.33.242,oddball,2022.2.5,60.1074239944408,
0,,,,,0,0,0,0,6,0,6,0,15,0,15,0,,,,,,,,,,,,,,,,,838.7165876999497,839.4158794999821,839.4158794999821,839.8826569999801,839.8986860000296,0.4825625999365002,841.8970657000318,2.496948599931784,None,0,decreament,0.48,4,oddball,j,80,,,,,,,f,36,237,fr,r,0,raw,2023-04-20_09h22.33.242,oddball,2022.2.5,60.1074239944408,
0,,,,,0,0,0,0,6,0,6,0,16,0,16,0,,,,,,,,,,,,,,,,,841.9137045999523,842.5636273999698,842.5636273999698,843.1627024000045,843.1627024000045,0.6156302999006584,845.177691699937,2.630611400003545,None,1,decreament,0.6,1,standard,None,100,,,,,,,f,36,237,fr,r,0,raw,2023-04-20_09h22.33.242,oddball,2022.2.5,60.1074239944408,
0,,,,,0,0,0,0,6,0,6,0,17,0,17,0,,,,,,,,,,,,,,,,,845.1944318999304,846.043644099962,846.043644099962,846.6431674000341,846.6431674000341,0.6154999999562278,848.6585928000277,2.63091509998776,None,1,decreament,0.6,1,standard,None,100,,,,,,,f,36,237,fr,r,0,raw,2023-04-20_09h22.33.242,oddball,2022.2.5,60.1074239944408,
0,,,,,0,0,0,0,6,0,6,0,18,0,18,0,,,,,,,,,,,,,,,,,848.6749137999723,849.2576698999619,849.2576698999619,849.8571914000204,849.8571914000204,0.6155625000828877,851.8722258999478,2.6305750000756234,None,1,decreament,0.6,1,standard,None,100,,,,,,,f,36,237,fr,r,0,raw,2023-04-20_09h22.33.242,oddball,2022.2.5,60.1074239944408,
0,,,,,0,0,0,0,6,0,6,0,19,0,19,0,,,,,,,,,,,,,,,,,851.888958399999,852.5219594000373,852.5219594000373,853.121275399928,853.121275399928,0.6156052999431267,855.1361933000153,2.6304958999389783,None,1,decreament,0.6,1,standard,None,100,,,,,,,f,36,237,fr,r,0,raw,2023-04-20_09h22.33.242,oddball,2022.2.5,60.1074239944408,
0,,,,,0,0,0,0,6,0,6,0,20,0,20,0,,,,,,,,,,,,,,,,,855.1531019000104,855.7524574999698,855.7524574999698,856.3519675999414,856.3519675999414,0.5990022999467328,858.3668057000032,2.6139697999460623,None,1,decreament,0.6,1,standard,None,100,,,,,,,f,36,237,fr,r,0,raw,2023-04-20_09h22.33.242,oddball,2022.2.5,60.1074239944408,
0,,,,,0,0,0,0,6,0,6,0,21,0,21,0,,,,,,,,,,,,,,,,,858.3668057000032,858.9997621999355,858.9997621999355,859.5992511999793,859.5992511999793,0.6156617000233382,861.6145203999477,2.6309281999710947,None,1,decreament,0.6,1,standard,None,100,,,,,,,f,36,237,fr,r,0,raw,2023-04-20_09h22.33.242,oddball,2022.2.5,60.1074239944408,
0,,,,,0,0,0,0,6,0,6,0,22,0,22,0,,,,,,,,,,,,,,,,,861.6308680999791,862.4301499000285,862.4301499000285,863.0296740999911,863.0296740999911,0.6153986999997869,865.044821599964,2.6305318999802694,None,1,decreament,0.6,1,standard,None,100,,,,,,,f,36,237,fr,r,0,raw,2023-04-20_09h22.33.242,oddball,2022.2.5,60.1074239944408,
0,,,,,0,0,0,0,6,0,6,0,23,0,23,0,,,,,,,,,,,,,,,,,865.061581099988,865.6774893000256,865.6774893000256,866.0272652000422,866.0438509000232,0.365666399942711,868.0423341999995,2.380739299929701,j,1,decreament,0.36,3,oddball,j,60,0.494151100050658,,,,,,f,36,237,fr,r,0,raw,2023-04-20_09h22.33.242,oddball,2022.2.5,60.1074239944408,
0,,,,,0,0,0,0,6,0,6,0,24,0,24,0,,,,,,,,,,,,,,,,,868.0589661999838,868.7084483000217,868.7084483000217,869.3080934999743,869.3080934999743,0.6157759999623522,871.3231166999321,2.6307857000501826,None,1,decreament,0.6,1,standard,None,100,,,,,,,f,36,237,fr,r,0,raw,2023-04-20_09h22.33.242,oddball,2022.2.5,60.1074239944408,
0,,,,,0,0,0,0,6,0,6,0,25,0,25,0,,,,,,,,,,,,,,,,,871.3395686999429,871.8724536999362,871.8724536999362,872.4719357999275,872.4719357999275,0.5991773999994621,874.4870461999672,2.613985100062564,None,1,decreament,0.6,1,standard,None,100,,,,,,,f,36,237,fr,r,0,raw,2023-04-20_09h22.33.242,oddball,2022.2.5,60.1074239944408,
0,,,,,0,0,0,0,6,0,6,0,26,0,26,0,,,,,,,,,,,,,,,,,874.4870461999672,875.0866978999693,875.0866978999693,875.6860959000187,875.6860959000187,0.6155192001024261,877.7010607999982,2.63049980008509,None,1,decreament,0.6,1,standard,None,100,,,,,,,f,36,237,fr,r,0,raw,2023-04-20_09h22.33.242,oddball,2022.2.5,60.1074239944408,
0,,,,,0,0,0,0,6,0,6,0,27,0,27,0,,,,,,,,,,,,,,,,,877.7176038000034,878.3009209999582,878.3009209999582,878.8832745000254,878.9000458000228,0.6157319999765605,880.8988019999815,2.6144995000213385,None,1,decreament,0.6,1,standard,None,100,,,,,,,f,36,237,fr,r,0,raw,2023-04-20_09h22.33.242,oddball,2022.2.5,60.1074239944408,
0,,,,,0,0,0,0,6,0,6,0,28,0,28,0,,,,,,,,,,,,,,,,,880.9149935999885,881.4811644000001,881.4811644000001,882.0806799000129,882.0806799000129,0.6155807999894023,884.0956403999589,2.6305346000008285,None,1,decreament,0.6,1,standard,None,100,,,,,,,f,36,237,fr,r,0,raw,2023-04-20_09h22.33.242,oddball,2022.2.5,60.1074239944408,
0,,,,,0,0,0,0,6,0,6,0,29,0,29,0,,,,,,,,,,,,,,,,,884.1122639999958,884.8617898999946,884.8617898999946,885.4609861000208,885.4609861000208,0.6150287000928074,887.4762429000111,2.630310400039889,None,1,decreament,0.6,1,standard,None,100,,,,,,,f,36,237,fr,r,0,raw,2023-04-20_09h22.33.242,oddball,2022.2.5,60.1074239944408,
0,,,,,0,0,0,0,7,0,7,0,0,0,0,0,,,,,,,,,,,,,,,900.349175499985,900.349175499985,914.420868700021,915.0537802999606,915.0537802999606,915.6364192999899,915.6533198000398,0.6156513999449089,917.6518920999952,2.630585900042206,None,1,increament,0.6,5,standard,None,100,,887.4930555999745,0.0007561999373137951,,,,f,36,237,fr,r,0,raw,2023-04-20_09h22.33.242,oddball,2022.2.5,60.1074239944408,
0,,,,,0,0,0,0,7,0,7,0,1,0,1,0,,,,,,,,,,,,,,,,,917.6849364000373,918.3012575999601,918.3012575999601,918.8837750999955,918.9004731000168,0.6156323000323027,920.8992795000086,2.6144277999410406,None,1,increament,0.6,5,standard,None,100,,,,,,,f,36,237,fr,r,0,raw,2023-04-20_09h22.33.242,oddball,2022.2.5,60.1074239944408,
0,,,,,0,0,0,0,7,0,7,0,2,0,2,0,,,,,,,,,,,,,,,,,920.9154441000428,921.6315120999934,921.6315120999934,922.2312044999562,922.2312044999562,0.6155023999745026,924.2462151999352,2.630504500004463,None,1,increament,0.6,5,standard,None,100,,,,,,,f,36,237,fr,r,0,raw,2023-04-20_09h22.33.242,oddball,2022.2.5,60.1074239944408,
0,,,,,0,0,0,0,7,0,7,0,3,0,3,0,,,,,,,,,,,,,,,,,924.2629712999333,925.0787803999847,925.0787803999847,925.6782270999392,925.6782270999392,0.6155578000470996,927.6932517000241,2.630596000002697,None,1,increament,0.6,5,standard,None,100,,,,,,,f,36,237,fr,r,0,raw,2023-04-20_09h22.33.242,oddball,2022.2.5,60.1074239944408,
0,,,,,0,0,0,0,7,0,7,0,4,0,4,0,,,,,,,,,,,,,,,,,927.7099415999837,928.2927802000195,928.2927802000195,928.8754913000157,928.8923991000047,0.615723600029014,930.8907763999887,2.63070640002843,None,1,increament,0.6,5,standard,None,100,,,,,,,f,36,237,fr,r,0,raw,2023-04-20_09h22.33.242,oddball,2022.2.5,60.1074239944408,
0,,,,,0,0,0,0,7,0,7,0,5,0,5,0,,,,,,,,,,,,,,,,,930.9239558000118,931.5234681000002,931.5234681000002,932.1066821999848,932.122802500031,0.5994277000427246,934.1212896000361,2.614043700043112,None,1,increament,0.6,5,standard,None,100,,,,,,,f,36,237,fr,r,0,raw,2023-04-20_09h22.33.242,oddball,2022.2.5,60.1074239944408,
0,,,,,0,0,0,0,7,0,7,0,6,0,6,0,,,,,,,,,,,,,,,,,934.1383995999349,934.8874184000306,934.8874184000306,935.4869662999408,935.4869662999408,0.6154582999879494,937.5018369000172,2.6302389999618754,None,1,increament,0.6,5,standard,None,100,,,,,,,f,36,237,fr,r,0,raw,2023-04-20_09h22.33.242,oddball,2022.2.5,60.1074239944408,
0,,,,,0,0,0,0,7,0,7,0,7,0,7,0,,,,,,,,,,,,,,,,,937.5184644999681,938.0848181999754,938.0848181999754,938.6846218999708,938.6846218999708,0.6158886000048369,940.6991577999434,2.630434700055048,None,1,increament,0.6,5,standard,None,100,,,,,,,f,36,237,fr,r,0,raw,2023-04-20_09h22.33.242,oddball,2022.2.5,60.1074239944408,
0,,,,,0,0,0,0,7,0,7,0,8,0,8,0,,,,,,,,,,,,,,,,,940.7157250000164,941.3154889999423,941.3154889999423,941.9147964000003,941.9147964000003,0.6154395000776276,943.9295989000238,2.6302325000287965,None,1,increament,0.6,5,standard,None,100,,,,,,,f,36,237,fr,r,0,raw,2023-04-20_09h22.33.242,oddball,2022.2.5,60.1074239944408,
0,,,,,0,0,0,0,7,0,7,0,9,0,9,0,,,,,,,,,,,,,,,,,943.9464930000249,944.4629172999412,944.4629172999412,945.0457144000102,945.0622097000014,0.5991294999839738,947.0608471999876,2.614257900044322,None,1,increament,0.6,5,standard,None,100,,,,,,,f,36,237,fr,r,0,raw,2023-04-20_09h22.33.242,oddball,2022.2.5,60.1074239944408,
0,,,,,0,0,0,0,7,0,7,0,10,0,10,0,,,,,,,,,,,,,,,,,947.0773217999376,947.7433869999368,947.7433869999368,948.343101699953,948.343101699953,0.6157794999890029,950.3579089000123,2.6305688000284135,None,1,increament,0.6,5,standard,None,100,,,,,,,f,36,237,fr,r,0,raw,2023-04-20_09h22.33.242,oddball,2022.2.5,60.1074239944408,
0,,,,,0,0,0,0,7,0,7,0,11,0,11,0,,,,,,,,,,,,,,,,,950.3746841000393,951.0740490999306,951.0740490999306,951.6567767999368,951.673618300003,0.6156808000523597,953.6718161000172,2.6305765999713913,None,1,increament,0.6,5,standard,None,100,,,,,,,f,36,237,fr,r,0,raw,2023-04-20_09h22.33.242,oddball,2022.2.5,60.1074239944408,
0,,,,,0,0,0,0,7,0,7,0,12,0,12,0,,,,,,,,,,,,,,,,,953.7052404000424,954.4043634999543,954.4043634999543,955.353840900003,955.3703984000022,0.9652948000002652,957.3688026999589,2.980236899922602,j,1,increament,0.96,8,oddball,j,160,0.37718180008232594,,,,,,f,36,237,fr,r,0,raw,2023-04-20_09h22.33.242,oddball,2022.2.5,60.1074239944408,
0,,,,,0,0,0,0,7,0,7,0,13,0,13,0,,,,,,,,,,,,,,,,,957.3855709999334,958.0016430999385,958.0016430999385,958.6011326999869,958.6011326999869,0.6153032999718562,960.6164078000002,2.6305831000208855,None,1,increament,0.6,5,standard,None,100,,,,,,,f,36,237,fr,r,0,raw,2023-04-20_09h22.33.242,oddball,2022.2.5,60.1074239944408,
0,,,,,0,0,0,0,7,0,7,0,14,0,14,0,,,,,,,,,,,,,,,,,960.6328066999558,961.2488002999453,961.2488002999453,961.8484714999795,961.8484714999795,0.5992468000622466,963.8634586000117,2.6135452000889927,None,1,increament,0.6,5,standard,None,100,,,,,,,f,36,237,fr,r,0,raw,2023-04-20_09h22.33.242,oddball,2022.2.5,60.1074239944408,
0,,,,,0,0,0,0,7,0,7,0,15,0,15,0,,,,,,,,,,,,,,,,,963.8634586000117,964.4798184999963,964.4798184999963,965.0792661999585,965.0792661999585,0.6155659999931231,967.0943209000397,2.6305864000460133,None,1,increament,0.6,5,standard,None,100,,,,,,,f,36,237,fr,r,0,raw,2023-04-20_09h22.33.242,oddball,2022.2.5,60.1074239944408,
0,,,,,0,0,0,0,7,0,7,0,16,0,16,0,,,,,,,,,,,,,,,,,967.1107767999638,967.7103458000347,967.7103458000347,968.3097762999823,968.3097762999823,0.6152214999310672,970.3250378000084,2.630495799938217,None,1,increament,0.6,5,standard,None,100,,,,,,,f,36,237,fr,r,0,raw,2023-04-20_09h22.33.242,oddball,2022.2.5,60.1074239944408,
0,,,,,0,0,0,0,7,0,7,0,17,0,17,0,,,,,,,,,,,,,,,,,970.3414611000335,970.9909735999536,970.9909735999536,971.8239043999929,971.8401861999882,0.8488445999100804,973.8385753999464,2.863513399963267,None,0,increament,0.84,7,oddball,j,140,,,,,,,f,36,237,fr,r,0,raw,2023-04-20_09h22.33.242,oddball,2022.2.5,60.1074239944408,
0,,,,,0,0,0,0,7,0,7,0,18,0,18,0,,,,,,,,,,,,,,,,,973.855271999957,974.4548094000202,974.4548094000202,975.0542664999375,975.0542664999375,0.6154597999993712,977.0694414000027,2.630633799941279,None,1,increament,0.6,5,standard,None,100,,,,,,,f,36,237,fr,r,0,raw,2023-04-20_09h22.33.242,oddball,2022.2.5,60.1074239944408,
0,,,,,0,0,0,0,7,0,7,0,19,0,19,0,,,,,,,,,,,,,,,,,977.0859260000288,977.6355870999396,977.6355870999396,978.218364899978,978.2353814999806,0.6158905000193045,980.2335279999534,2.630448199925013,None,1,increament,0.6,5,standard,None,100,,,,,,,f,36,237,fr,r,0,raw,2023-04-20_09h22.33.242,oddball,2022.2.5,60.1074239944408,
0,,,,,0,0,0,0,7,0,7,0,20,0,20,0,,,,,,,,,,,,,,,,,980.2669602000387,980.9827864000108,980.9827864000108,981.5823322000215,981.5823322000215,0.5991330000106245,983.5973318000324,2.614065100089647,None,1,increament,0.6,5,standard,None,100,,,,,,,f,36,237,fr,r,0,raw,2023-04-20_09h22.33.242,oddball,2022.2.5,60.1074239944408,
0,,,,,0,0,0,0,7,0,7,0,21,0,21,0,,,,,,,,,,,,,,,,,983.5973318000324,984.2968210999388,984.2968210999388,984.8796359000262,984.8963292000117,0.5990337000694126,986.8947181999683,2.614119300036691,None,1,increament,0.6,5,standard,None,100,,,,,,,f,36,237,fr,r,0,raw,2023-04-20_09h22.33.242,oddball,2022.2.5,60.1074239944408,
0,,,,,0,0,0,0,7,0,7,0,22,0,22,0,,,,,,,,,,,,,,,,,986.911335999961,987.4775530999759,987.4775530999759,988.0769061000319,988.0769061000319,0.6154344999231398,990.0920226000017,2.630551900016144,None,1,increament,0.6,5,standard,None,100,,,,,,,f,36,237,fr,r,0,raw,2023-04-20_09h22.33.242,oddball,2022.2.5,60.1074239944408,
0,,,,,0,0,0,0,7,0,7,0,23,0,23,0,,,,,,,,,,,,,,,,,990.1086701999884,990.708300499944,990.708300499944,991.307699099998,991.307699099998,0.6153033999726176,993.3225988999475,2.6301831000018865,None,1,increament,0.6,5,standard,None,100,,,,,,,f,36,237,fr,r,0,raw,2023-04-20_09h22.33.242,oddball,2022.2.5,60.1074239944408,
0,,,,,0,0,0,0,7,0,7,0,24,0,24,0,,,,,,,,,,,,,,,,,993.3396475999616,993.9056555000134,993.9056555000134,994.5051344999811,994.5051344999811,0.5990203999681398,996.5201084000291,2.6142129000509158,None,1,increament,0.6,5,standard,None,100,,,,,,,f,36,237,fr,r,0,raw,2023-04-20_09h22.33.242,oddball,2022.2.5,60.1074239944408,
0,,,,,0,0,0,0,7,0,7,0,25,0,25,0,,,,,,,,,,,,,,,,,996.5201084000291,997.202862599981,997.202862599981,997.8023614999838,997.8023614999838,0.6155382000142708,999.8176428999286,2.6308149999240413,None,1,increament,0.6,5,standard,None,100,,,,,,,f,36,237,fr,r,0,raw,2023-04-20_09h22.33.242,oddball,2022.2.5,60.1074239944408,
0,,,,,0,0,0,0,7,0,7,0,26,0,26,0,,,,,,,,,,,,,,,,,999.8340251999907,1000.6168963999953,1000.6168963999953,1001.3326922999695,1001.3496247000294,0.7321621000301093,1003.3479405000107,2.7474189000204206,None,0,increament,0.72,6,oddball,j,120,,,,,,,f,36,237,fr,r,0,raw,2023-04-20_09h22.33.242,oddball,2022.2.5,60.1074239944408,
0,,,,,0,0,0,0,7,0,7,0,27,0,27,0,,,,,,,,,,,,,,,,,1003.3643720999826,1003.8806042999495,1003.8806042999495,1004.4802992999321,1004.4802992999321,0.6154857999645174,1006.4950888999738,2.6302627999102697,None,1,increament,0.6,5,standard,None,100,,,,,,,f,36,237,fr,r,0,raw,2023-04-20_09h22.33.242,oddball,2022.2.5,60.1074239944408,
0,,,,,0,0,0,0,7,0,7,0,28,0,28,0,,,,,,,,,,,,,,,,,1006.5118298999732,1007.2947796999943,1007.2947796999943,1007.8943524999777,1007.8943524999777,0.6158971000695601,1009.9093623999506,2.6308925000485033,None,1,increament,0.6,5,standard,None,100,,,,,,,f,36,237,fr,r,0,raw,2023-04-20_09h22.33.242,oddball,2022.2.5,60.1074239944408,
0,,,,,0,0,0,0,7,0,7,0,29,0,29,0,,,,,,,,,,,,,,,,,1009.9258321999805,1010.6419364999747,1010.6419364999747,1011.2247495999327,1011.2412687999895,0.5991471000015736,1013.2397623999277,2.614160700002685,None,1,increament,0.6,5,standard,None,100,,,,,,,f,36,237,fr,r,0,raw,2023-04-20_09h22.33.242,oddball,2022.2.5,60.1074239944408,
0,,,,,0,0,0,0,8,0,8,0,0,0,0,0,,,,,,,,,,,,,,,1023.4646223000018,1023.4646223000018,1028.2605596999638,1028.8602654000279,1028.8602654000279,1029.4429614000255,1029.4596152999438,0.6155071000102907,1031.458084999933,2.6306034999433905,None,1,decreament,0.6,1,standard,None,100,,1013.2562195999781,0.0009275999618694186,,,,f,36,237,fr,r,0,raw,2023-04-20_09h22.33.242,oddball,2022.2.5,60.1074239944408,
0,,,,,0,0,0,0,8,0,8,0,1,0,1,0,,,,,,,,,,,,,,,,,1031.4913258999586,1032.1076191000175,1032.1076191000175,1032.7070110000204,1032.7070110000204,0.5990048999665305,1034.7221371999476,2.6143433999968693,None,1,decreament,0.6,1,standard,None,100,,,,,,,f,36,237,fr,r,0,raw,2023-04-20_09h22.33.242,oddball,2022.2.5,60.1074239944408,
0,,,,,0,0,0,0,8,0,8,0,2,0,2,0,,,,,,,,,,,,,,,,,1034.7221371999476,1035.304939399939,1035.304939399939,1035.8875778999645,1035.9043296999298,0.6155799999833107,1037.9027026999975,2.630499600083567,None,1,decreament,0.6,1,standard,None,100,,,,,,,f,36,237,fr,r,0,raw,2023-04-20_09h22.33.242,oddball,2022.2.5,60.1074239944408,
0,,,,,0,0,0,0,8,0,8,0,3,0,3,0,,,,,,,,,,,,,,,,,1037.9359005999286,1038.452301500016,1038.452301500016,1039.051917499979,1039.051917499979,0.6154454000061378,1041.0667660000036,2.6302748000016436,None,1,decreament,0.6,1,standard,None,100,,,,,,,f,36,237,fr,r,0,raw,2023-04-20_09h22.33.242,oddball,2022.2.5,60.1074239944408,
0,,,,,0,0,0,0,8,0,8,0,4,0,4,0,,,,,,,,,,,,,,,,,1041.0832136999816,1041.7496242999332,1041.7496242999332,1042.3495437999954,1042.3495437999954,0.615727600059472,1044.3641425999813,2.6302897999994457,None,1,decreament,0.6,1,standard,None,100,,,,,,,f,36,237,fr,r,0,raw,2023-04-20_09h22.33.242,oddball,2022.2.5,60.1074239944408,
0,,,,,0,0,0,0,8,0,8,0,5,0,5,0,,,,,,,,,,,,,,,,,1044.3808863000013,1045.1468018000014,1045.1468018000014,1045.7461659000255,1045.7461659000255,0.6152683000545949,1047.7614761999575,2.6305763000855222,None,1,decreament,0.6,1,standard,None,100,,,,,,,f,36,237,fr,r,0,raw,2023-04-20_09h22.33.242,oddball,2022.2.5,60.1074239944408,
0,,,,,0,0,0,0,8,0,8,0,6,0,6,0,,,,,,,,,,,,,,,,,1047.778138399939,1048.5108753000386,1048.5108753000386,1048.976874899934,1048.9936417000135,0.48234860005322844,1050.9917292000027,2.497194700059481,None,0,decreament,0.48,4,oddball,j,80,,,,,,,f,36,237,fr,r,0,raw,2023-04-20_09h22.33.242,oddball,2022.2.5,60.1074239944408,
0,,,,,0,0,0,0,8,0,8,0,7,0,7,0,,,,,,,,,,,,,,,,,1051.0084302999312,1051.6085759999696,1051.6085759999696,1052.2076863000402,1052.2076863000402,0.6156741000013426,1054.2224613999715,2.630446399911307,None,1,decreament,0.6,1,standard,None,100,,,,,,,f,36,237,fr,r,0,raw,2023-04-20_09h22.33.242,oddball,2022.2.5,60.1074239944408,
0,,,,,0,0,0,0,8,0,8,0,8,0,8,0,,,,,,,,,,,,,,,,,1054.2392447999446,1054.8388632999267,1054.8388632999267,1055.438253600034,1055.438253600034,0.6156470999121666,1057.4532484000083,2.6306269998895004,None,1,decreament,0.6,1,standard,None,100,,,,,,,f,36,237,fr,r,0,raw,2023-04-20_09h22.33.242,oddball,2022.2.5,60.1074239944408,
0,,,,,0,0,0,0,8,0,8,0,9,0,9,0,,,,,,,,,,,,,,,,,1057.4698420999339,1058.2527153999545,1058.2527153999545,1058.8521309000207,1058.8521309000207,0.6154209999367595,1060.867243799963,2.630530699971132,None,1,decreament,0.6,1,standard,None,100,,,,,,,f,36,237,fr,r,0,raw,2023-04-20_09h22.33.242,oddball,2022.2.5,60.1074239944408,
0,,,,,0,0,0,0,8,0,8,0,10,0,10,0,,,,,,,,,,,,,,,,,1060.8838800999802,1061.6999295999995,1061.6999295999995,1062.2993608999532,1062.2993608999532,0.5991347000235692,1064.314320800011,2.6140736000379547,None,1,decreament,0.6,1,standard,None,100,,,,,,,f,36,237,fr,r,0,raw,2023-04-20_09h22.33.242,oddball,2022.2.5,60.1074239944408,
0,,,,,0,0,0,0,8,0,8,0,11,0,11,0,,,,,,,,,,,,,,,,,1064.314320800011,1064.897116899956,1064.897116899956,1065.4800143999746,1065.4966499999864,0.5991591999772936,1067.495018000016,2.6141625000163913,j,0,decreament,0.6,1,standard,None,100,0.6551227000309154,,,,,,f,36,237,fr,r,0,raw,2023-04-20_09h22.33.242,oddball,2022.2.5,60.1074239944408,
0,,,,,0,0,0,0,8,0,8,0,12,0,12,0,,,,,,,,,,,,,,,,,1067.5116661000066,1068.1277822999982,1068.1277822999982,1068.7273959999438,1068.7273959999438,0.599104700027965,1070.742339999997,2.6140383000019938,None,1,decreament,0.6,1,standard,None,100,,,,,,,f,36,237,fr,r,0,raw,2023-04-20_09h22.33.242,oddball,2022.2.5,60.1074239944408,
0,,,,,0,0,0,0,8,0,8,0,13,0,13,0,,,,,,,,,,,,,,,,,1070.742339999997,1071.325228999951,1071.325228999951,1071.9079868999543,1071.9247800000012,0.5991816999157891,1073.9230212999973,2.6142068000044674,None,1,decreament,0.6,1,standard,None,100,,,,,,,f,36,237,fr,r,0,raw,2023-04-20_09h22.33.242,oddball,2022.2.5,60.1074239944408,
0,,,,,0,0,0,0,8,0,8,0,14,0,14,0,,,,,,,,,,,,,,,,,1073.9398779999465,1074.5392815000378,1074.5392815000378,1074.7723704000236,1074.789067500038,0.24924189993180335,1076.7873324999819,2.264181499951519,j,1,decreament,0.24,2,oddball,j,40,0.6483519000466913,,,,,,f,36,237,fr,r,0,raw,2023-04-20_09h22.33.242,oddball,2022.2.5,60.1074239944408,
0,,,,,0,0,0,0,8,0,8,0,15,0,15,0,,,,,,,,,,,,,,,,,1076.8040908999974,1077.4036253000377,1077.4036253000377,1078.0030335999327,1078.0030335999327,0.6154627000214532,1080.017987899948,2.630400100024417,None,1,decreament,0.6,1,standard,None,100,,,,,,,f,36,237,fr,r,0,raw,2023-04-20_09h22.33.242,oddball,2022.2.5,60.1074239944408,
0,,,,,0,0,0,0,8,0,8,0,16,0,16,0,,,,,,,,,,,,,,,,,1080.0347824000055,1080.8007158000255,1080.8007158000255,1081.3837548999581,1081.4002137000207,0.5992461000569165,1083.3987707999768,2.614245600067079,None,1,decreament,0.6,1,standard,None,100,,,,,,,f,36,237,fr,r,0,raw,2023-04-20_09h22.33.242,oddball,2022.2.5,60.1074239944408,
0,,,,,0,0,0,0,8,0,8,0,17,0,17,0,,,,,,,,,,,,,,,,,1083.4153036000207,1084.0978801000165,1084.0978801000165,1084.697398899938,1084.697398899938,0.6152967000380158,1086.7125829999568,2.6304753000149503,None,1,decreament,0.6,1,standard,None,100,,,,,,,f,36,237,fr,r,0,raw,2023-04-20_09h22.33.242,oddball,2022.2.5,60.1074239944408,
0,,,,,0,0,0,0,8,0,8,0,18,0,18,0,,,,,,,,,,,,,,,,,1086.7293168000178,1087.3620375000173,1087.3620375000173,1087.711813300033,1087.728471999988,0.3660443000262603,1089.7269551999634,2.3811625000089407,j,1,decreament,0.36,3,oddball,j,60,0.5179966000141576,,,,,,f,36,237,fr,r,0,raw,2023-04-20_09h22.33.242,oddball,2022.2.5,60.1074239944408,
0,,,,,0,0,0,0,8,0,8,0,19,0,19,0,,,,,,,,,,,,,,,,,1089.7434045999544,1090.6259430999635,1090.6259430999635,1091.225499299937,1091.225499299937,0.6155799999833107,1093.2405539000174,2.6306115000043064,None,1,decreament,0.6,1,standard,None,100,,,,,,,f,36,237,fr,r,0,raw,2023-04-20_09h22.33.242,oddball,2022.2.5,60.1074239944408,
0,,,,,0,0,0,0,8,0,8,0,20,0,20,0,,,,,,,,,,,,,,,,,1093.2571024999488,1093.8738228000002,1093.8738228000002,1094.4729855000041,1094.4729855000041,0.6153542000101879,1096.4879695000127,2.6303215000079945,None,1,decreament,0.6,1,standard,None,100,,,,,,,f,36,237,fr,r,0,raw,2023-04-20_09h22.33.242,oddball,2022.2.5,60.1074239944408,
0,,,,,0,0,0,0,8,0,8,0,21,0,21,0,,,,,,,,,,,,,,,,,1096.504532199935,1097.070775500033,1097.070775500033,1097.6704032999696,1097.6704032999696,0.615777499973774,1099.6852429000428,2.630600900040008,None,1,decreament,0.6,1,standard,None,100,,,,,,,f,36,237,fr,r,0,raw,2023-04-20_09h22.33.242,oddball,2022.2.5,60.1074239944408,
0,,,,,0,0,0,0,8,0,8,0,22,0,22,0,,,,,,,,,,,,,,,,,1099.7021501000272,1100.4346768000396,1100.4346768000396,1101.0341284000315,1101.0341284000315,0.6153624000726268,1103.0492105999729,2.630427399999462,None,1,decreament,0.6,1,standard,None,100,,,,,,,f,36,237,fr,r,0,raw,2023-04-20_09h22.33.242,oddball,2022.2.5,60.1074239944408,
0,,,,,0,0,0,0,8,0,8,0,23,0,23,0,,,,,,,,,,,,,,,,,1103.0659115000162,1103.6487776000286,1103.6487776000286,1104.2482031999389,1104.2482031999389,0.6155234000179917,1106.2636244000169,2.6309279000852257,None,1,decreament,0.6,1,standard,None,100,,,,,,,f,36,237,fr,r,0,raw,2023-04-20_09h22.33.242,oddball,2022.2.5,60.1074239944408,
0,,,,,0,0,0,0,8,0,8,0,24,0,24,0,,,,,,,,,,,,,,,,,1106.279752900009,1107.1626103000017,1107.1626103000017,1107.761878099991,1107.761878099991,0.615345900063403,1109.777046800009,2.6305252000456676,None,1,decreament,0.6,1,standard,None,100,,,,,,,f,36,237,fr,r,0,raw,2023-04-20_09h22.33.242,oddball,2022.2.5,60.1074239944408,
0,,,,,0,0,0,0,8,0,8,0,25,0,25,0,,,,,,,,,,,,,,,,,1109.7940336000174,1110.4431207999587,1110.4431207999587,1111.0426317999372,1111.0426317999372,0.6155337000964209,1113.0575151999947,2.6304002000251785,None,1,decreament,0.6,1,standard,None,100,,,,,,,f,36,237,fr,r,0,raw,2023-04-20_09h22.33.242,oddball,2022.2.5,60.1074239944408,
0,,,,,0,0,0,0,8,0,8,0,26,0,26,0,,,,,,,,,,,,,,,,,1113.0742410999956,1113.6072229000274,1113.6072229000274,1114.2066936999327,1114.2066936999327,0.6154889999888837,1116.22174790001,2.6305589999537915,None,1,decreament,0.6,1,standard,None,100,,,,,,,f,36,237,fr,r,0,raw,2023-04-20_09h22.33.242,oddball,2022.2.5,60.1074239944408,
0,,,,,0,0,0,0,8,0,8,0,27,0,27,0,,,,,,,,,,,,,,,,,1116.2384026999352,1116.9709667999996,1116.9709667999996,1117.5705920000328,1117.5705920000328,0.6154517000541091,1119.5856416999595,2.630504700005986,None,1,decreament,0.6,1,standard,None,100,,,,,,,f,36,237,fr,r,0,raw,2023-04-20_09h22.33.242,oddball,2022.2.5,60.1074239944408,
0,,,,,0,0,0,0,8,0,8,0,28,0,28,0,,,,,,,,,,,,,,,,,1119.6025817999616,1120.1518320000032,1120.1518320000032,1120.7512884000316,1120.7512884000316,0.6156221000710502,1122.7661300000036,2.6304606000194326,None,1,decreament,0.6,1,standard,None,100,,,,,,,f,36,237,fr,r,0,raw,2023-04-20_09h22.33.242,oddball,2022.2.5,60.1074239944408,
0,,,,,0,0,0,0,8,0,8,0,29,0,29,0,,,,,,,,,,,,,,,,,1122.7830011999467,1123.5823068999453,1123.5823068999453,1124.1817923999624,1124.1817923999624,0.6153851000126451,1126.1968464000383,2.6304254999849945,None,1,decreament,0.6,1,standard,None,100,,,,,,,f,36,237,fr,r,0,raw,2023-04-20_09h22.33.242,oddball,2022.2.5,60.1074239944408,
0,,,,,0,0,0,0,9,0,9,0,0,0,0,0,,,,,,,,,,,,,,,1161.2679188000038,1161.2679188000038,1163.5993065999355,1164.1988103999756,1164.1988103999756,1164.7816770999925,1164.7985014999285,0.5991066999267787,1166.7968610000098,2.6143009000224993,None,1,increament,0.6,5,standard,None,100,,1126.2133668999886,0.0009181000059470534,,,,f,36,237,fr,r,0,raw,2023-04-20_09h22.33.242,oddball,2022.2.5,60.1074239944408,
0,,,,,0,0,0,0,9,0,9,0,1,0,1,0,,,,,,,,,,,,,,,,,1166.813703599968,1167.5129422999453,1167.5129422999453,1168.112302799942,1168.112302799942,0.5993925000075251,1170.1274147999939,2.6141086000716314,None,1,increament,0.6,5,standard,None,100,,,,,,,f,36,237,fr,r,0,raw,2023-04-20_09h22.33.242,oddball,2022.2.5,60.1074239944408,
0,,,,,0,0,0,0,9,0,9,0,2,0,2,0,,,,,,,,,,,,,,,,,1170.1274147999939,1170.8601635999512,1170.8601635999512,1171.4593823000323,1171.4593823000323,0.6153341999743134,1173.474580799928,2.6305498000001535,None,1,increament,0.6,5,standard,None,100,,,,,,,f,36,237,fr,r,0,raw,2023-04-20_09h22.33.242,oddball,2022.2.5,60.1074239944408,
0,,,,,0,0,0,0,9,0,9,0,3,0,3,0,,,,,,,,,,,,,,,,,1173.4914067999925,1174.0408065000083,1174.0408065000083,1174.6409354000352,1174.6409354000352,0.6158536999719217,1176.6554173999466,2.630310200038366,None,1,increament,0.6,5,standard,None,100,,,,,,,f,36,237,fr,r,0,raw,2023-04-20_09h22.33.242,oddball,2022.2.5,60.1074239944408,
0,,,,,0,0,0,0,9,0,9,0,4,0,4,0,,,,,,,,,,,,,,,,,1176.6722242999822,1177.438156499993,1177.438156499993,1178.037598200026,1178.037598200026,0.6155405999161303,1180.052694199956,2.630634499946609,None,1,increament,0.6,5,standard,None,100,,,,,,,f,36,237,fr,r,0,raw,2023-04-20_09h22.33.242,oddball,2022.2.5,60.1074239944408,
0,,,,,0,0,0,0,9,0,9,0,5,0,5,0,,,,,,,,,,,,,,,,,1180.0691150999628,1180.735543699935,1180.735543699935,1181.3352463999763,1181.3352463999763,0.5990072999848053,1183.3497881999938,2.6141099999658763,None,1,increament,0.6,5,standard,None,100,,,,,,,f,36,237,fr,r,0,raw,2023-04-20_09h22.33.242,oddball,2022.2.5,60.1074239944408,
0,,,,,0,0,0,0,9,0,9,0,6,0,6,0,,,,,,,,,,,,,,,,,1183.3497881999938,1183.8828356999438,1183.8828356999438,1184.4822615999728,1184.4822615999728,0.6155212998855859,1186.4973745000316,2.630629999912344,None,1,increament,0.6,5,standard,None,100,,,,,,,f,36,237,fr,r,0,raw,2023-04-20_09h22.33.242,oddball,2022.2.5,60.1074239944408,
0,,,,,0,0,0,0,9,0,9,0,7,0,7,0,,,,,,,,,,,,,,,,,1186.5137743999949,1187.113380099996,1187.113380099996,1187.712955199997,1187.712955199997,0.6153016000753269,1189.728038399946,2.630373200052418,j,0,increament,0.6,5,standard,None,100,0.4859731999458745,,,,,,f,36,237,fr,r,0,raw,2023-04-20_09h22.33.242,oddball,2022.2.5,60.1074239944408,
0,,,,,0,0,0,0,9,0,9,0,8,0,8,0,,,,,,,,,,,,,,,,,1189.744684400037,1190.5106364999665,1190.5106364999665,1191.1099653999554,1191.1099653999554,0.5993566000834107,1193.1253457999555,2.613664000062272,None,1,increament,0.6,5,standard,None,100,,,,,,,f,36,237,fr,r,0,raw,2023-04-20_09h22.33.242,oddball,2022.2.5,60.1074239944408,
0,,,,,0,0,0,0,9,0,9,0,9,0,9,0,,,,,,,,,,,,,,,,,1193.1253457999555,1193.8413099999307,1193.8413099999307,1194.440825299942,1194.440825299942,0.6154047000454739,1196.4556320999982,2.6302034000400454,None,1,increament,0.6,5,standard,None,100,,,,,,,f,36,237,fr,r,0,raw,2023-04-20_09h22.33.242,oddball,2022.2.5,60.1074239944408,
0,,,,,0,0,0,0,9,0,9,0,10,0,10,0,,,,,,,,,,,,,,,,,1196.4723781000357,1197.1386038999772,1197.1386038999772,1197.7213551999303,1197.7380624000216,0.6156072999583557,1199.7364466999425,2.6304657999426126,None,1,increament,0.6,5,standard,None,100,,,,,,,f,36,237,fr,r,0,raw,2023-04-20_09h22.33.242,oddball,2022.2.5,60.1074239944408,
0,,,,,0,0,0,0,9,0,9,0,11,0,11,0,,,,,,,,,,,,,,,,,1199.7697001999477,1200.3024915999267,1200.3024915999267,1200.902167399996,1200.902167399996,0.6155628999695182,1202.9170199999353,2.630403900053352,None,1,increament,0.6,5,standard,None,100,,,,,,,f,36,237,fr,r,0,raw,2023-04-20_09h22.33.242,oddball,2022.2.5,60.1074239944408,
0,,,,,0,0,0,0,9,0,9,0,12,0,12,0,,,,,,,,,,,,,,,,,1202.9338735999772,1203.5000252999598,1203.5000252999598,1204.0993223999394,1204.0993223999394,0.6151142999297008,1206.1145279000048,2.6303367000073195,None,1,increament,0.6,5,standard,None,100,,,,,,,f,36,237,fr,r,0,raw,2023-04-20_09h22.33.242,oddball,2022.2.5,60.1074239944408,
0,,,,,0,0,0,0,9,0,9,0,13,0,13,0,,,,,,,,,,,,,,,,,1206.1310740000335,1206.747227099957,1206.747227099957,1207.346757799969,1207.346757799969,0.6154910000041127,1209.3617852999596,2.6304990999633446,None,1,increament,0.6,5,standard,None,100,,,,,,,f,36,237,fr,r,0,raw,2023-04-20_09h22.33.242,oddball,2022.2.5,60.1074239944408,
0,,,,,0,0,0,0,9,0,9,0,14,0,14,0,,,,,,,,,,,,,,,,,1209.3784164999379,1209.9280522000045,1209.9280522000045,1210.5275155999698,1210.5275155999698,0.6152517999289557,1212.5425239999313,2.6302504999330267,None,1,increament,0.6,5,standard,None,100,,,,,,,f,36,237,fr,r,0,raw,2023-04-20_09h22.33.242,oddball,2022.2.5,60.1074239944408,
0,,,,,0,0,0,0,9,0,9,0,15,0,15,0,,,,,,,,,,,,,,,,,1212.559166799998,1213.4251007999992,1213.4251007999992,1214.2577039999887,1214.2744245999493,0.8485488999867812,1216.2727377000265,2.8635713999392465,None,0,increament,0.84,7,oddball,j,140,,,,,,,f,36,237,fr,r,0,raw,2023-04-20_09h22.33.242,oddball,2022.2.5,60.1074239944408,
0,,,,,0,0,0,0,9,0,9,0,16,0,16,0,,,,,,,,,,,,,,,,,1216.2894087999593,1216.8889787000371,1216.8889787000371,1217.4883824000135,1217.4883824000135,0.6153860000194982,1219.5033906999743,2.630404100054875,None,1,increament,0.6,5,standard,None,100,,,,,,,f,36,237,fr,r,0,raw,2023-04-20_09h22.33.242,oddball,2022.2.5,60.1074239944408,
0,,,,,0,0,0,0,9,0,9,0,17,0,17,0,,,,,,,,,,,,,,,,,1219.5201312999707,1220.0862844999647,1220.0862844999647,1220.6857471000403,1220.6857471000403,0.6153136000502855,1222.7008198000258,2.630386700038798,None,1,increament,0.6,5,standard,None,100,,,,,,,f,36,237,fr,r,0,raw,2023-04-20_09h22.33.242,oddball,2022.2.5,60.1074239944408,
0,,,,,0,0,0,0,9,0,9,0,18,0,18,0,,,,,,,,,,,,,,,,,1222.7175866999896,1223.3671201999532,1223.3671201999532,1223.9664725000039,1223.9664725000039,0.615438999957405,1225.9815041000256,2.6304816999472678,None,1,increament,0.6,5,standard,None,100,,,,,,,f,36,237,fr,r,0,raw,2023-04-20_09h22.33.242,oddball,2022.2.5,60.1074239944408,
0,,,,,0,0,0,0,9,0,9,0,19,0,19,0,,,,,,,,,,,,,,,,,1225.9981947999913,1226.714183300035,1226.714183300035,1227.3137232000008,1227.3137232000008,0.615207500057295,1229.3287398000248,2.630232800031081,None,1,increament,0.6,5,standard,None,100,,,,,,,f,36,237,fr,r,0,raw,2023-04-20_09h22.33.242,oddball,2022.2.5,60.1074239944408,
0,,,,,0,0,0,0,9,0,9,0,20,0,20,0,,,,,,,,,,,,,,,,,1229.3452995000407,1230.1280298000202,1230.1280298000202,1230.7277882000199,1230.7277882000199,0.5990418000146747,1232.7426380999386,2.6137719000689685,None,1,increament,0.6,5,standard,None,100,,,,,,,f,36,237,fr,r,0,raw,2023-04-20_09h22.33.242,oddball,2022.2.5,60.1074239944408,
0,,,,,0,0,0,0,9,0,9,0,21,0,21,0,,,,,,,,,,,,,,,,,1232.7426380999386,1233.29227049998,1233.29227049998,1233.8916243000422,1233.8916243000422,0.6154867000877857,1235.9068189000245,2.6306752000236884,None,1,increament,0.6,5,standard,None,100,,,,,,,f,36,237,fr,r,0,raw,2023-04-20_09h22.33.242,oddball,2022.2.5,60.1074239944408,
0,,,,,0,0,0,0,9,0,9,0,22,0,22,0,,,,,,,,,,,,,,,,,1235.9232350999955,1236.55624299997,1236.55624299997,1237.272467499948,1237.2888803000096,0.732178199919872,1239.2871754999505,2.746878799982369,None,0,increament,0.72,6,oddball,j,120,,,,,,,f,36,237,fr,r,0,raw,2023-04-20_09h22.33.242,oddball,2022.2.5,60.1074239944408,
0,,,,,0,0,0,0,9,0,9,0,23,0,23,0,,,,,,,,,,,,,,,,,1239.3039582000347,1239.8534833999583,1239.8534833999583,1240.4529786999337,1240.4529786999337,0.6155693000182509,1242.4677396999905,2.6303224000148475,None,1,increament,0.6,5,standard,None,100,,,,,,,f,36,237,fr,r,0,raw,2023-04-20_09h22.33.242,oddball,2022.2.5,60.1074239944408,
0,,,,,0,0,0,0,9,0,9,0,24,0,24,0,,,,,,,,,,,,,,,,,1242.4846611999674,1243.084096699953,1243.084096699953,1243.6668073999463,1243.6835973999696,0.6157619000878185,1245.681538200006,2.6305091000394896,None,1,increament,0.6,5,standard,None,100,,,,,,,f,36,237,fr,r,0,raw,2023-04-20_09h22.33.242,oddball,2022.2.5,60.1074239944408,
0,,,,,0,0,0,0,9,0,9,0,25,0,25,0,,,,,,,,,,,,,,,,,1245.7151048999513,1246.2647321999539,1246.2647321999539,1246.8646088000387,1246.8646088000387,0.6155715000350028,1248.8793828999624,2.6303291999502108,None,1,increament,0.6,5,standard,None,100,,,,,,,f,36,237,fr,r,0,raw,2023-04-20_09h22.33.242,oddball,2022.2.5,60.1074239944408,
0,,,,,0,0,0,0,9,0,9,0,26,0,26,0,,,,,,,,,,,,,,,,,1248.8961504999315,1249.6119966999395,1249.6119966999395,1250.5612932000076,1250.5780348000117,0.9653264000080526,1252.5762898999965,2.9803268000250682,j,1,increament,0.96,8,oddball,j,160,0.5541954000946134,,,,,,f,36,237,fr,r,0,raw,2023-04-20_09h22.33.242,oddball,2022.2.5,60.1074239944408,
0,,,,,0,0,0,0,9,0,9,0,27,0,27,0,,,,,,,,,,,,,,,,,1252.593262600014,1253.2590575999347,1253.2590575999347,1253.858387599932,1253.858387599932,0.6154566999757662,1255.8734726000112,2.630540500045754,None,1,increament,0.6,5,standard,None,100,,,,,,,f,36,237,fr,r,0,raw,2023-04-20_09h22.33.242,oddball,2022.2.5,60.1074239944408,
0,,,,,0,0,0,0,9,0,9,0,28,0,28,0,,,,,,,,,,,,,,,,,1255.8903569999384,1256.5564170000143,1256.5564170000143,1257.139398099971,1257.155752999941,0.6151948000770062,1259.1542448999826,2.6302220000652596,None,1,increament,0.6,5,standard,None,100,,,,,,,f,36,237,fr,r,0,raw,2023-04-20_09h22.33.242,oddball,2022.2.5,60.1074239944408,
0,,,,,0,0,0,0,9,0,9,0,29,0,29,0,,,,,,,,,,,,,,,,,1259.1875030000228,1259.803544400027,1259.803544400027,1260.403171999962,1260.403171999962,0.6156593998894095,1262.4181422999827,2.6306343999458477,None,1,increament,0.6,5,standard,None,100,,,,,,,f,36,237,fr,r,0,raw,2023-04-20_09h22.33.242,oddball,2022.2.5,60.1074239944408,
5,,,,,0,1,1,1,0,0,0,0,0,0,0,0,,,,,,,,,,,,,,,1444.9514677999541,1444.9514677999541,1447.0830623999937,1447.7326596999774,1447.7326596999774,1448.332215399947,1448.332215399947,0.6155919000739232,1450.3469895999879,2.630364299984649,None,1,decreament,0.6,11,standard,None,100,,1442.4369448999641,0.0009907999774441123,1262.436528799939,1442.4369448999641,,f,36,237,fr,r,0,raw,2023-04-20_09h22.33.242,oddball,2022.2.5,60.1074239944408,
5,,,,,0,1,1,1,0,0,0,0,1,0,1,0,,,,,,,,,,,,,,,,,1450.3638509999728,1451.0464564999565,1451.0464564999565,1451.6462346999906,1451.6462346999906,0.615739099914208,1453.6608732999302,2.630377299967222,None,1,decreament,0.6,11,standard,None,100,,,,,,,f,36,237,fr,r,0,raw,2023-04-20_09h22.33.242,oddball,2022.2.5,60.1074239944408,
5,,,,,0,1,1,1,0,0,0,0,2,0,2,0,,,,,,,,,,,,,,,,,1453.6776751999278,1454.2773372000083,1454.2773372000083,1454.8766565000406,1454.8766565000406,0.6154081999557093,1456.8917414000025,2.63049220002722,None,1,decreament,0.6,11,standard,None,100,,,,,,,f,36,237,fr,r,0,raw,2023-04-20_09h22.33.242,oddball,2022.2.5,60.1074239944408,
5,,,,,0,1,1,1,0,0,0,0,3,0,3,0,,,,,,,,,,,,,,,,,1456.9083465000149,1457.7411402999423,1457.7411402999423,1458.3405046999687,1458.3405046999687,0.5990555000025779,1460.3554754999932,2.613896300084889,None,1,decreament,0.6,11,standard,None,100,,,,,,,f,36,237,fr,r,0,raw,2023-04-20_09h22.33.242,oddball,2022.2.5,60.1074239944408,
