grating_freq,blocks_prac.thisRepN,blocks_prac.thisTrialN,blocks_prac.thisN,blocks_prac.thisIndex,blocks.thisRepN,blocks.thisTrialN,blocks.thisN,blocks.thisIndex,repeat_freq.thisRepN,repeat_freq.thisTrialN,repeat_freq.thisN,repeat_freq.thisIndex,trials.thisRepN,trials.thisTrialN,trials.thisN,trials.thisIndex,break_loop.thisRepN,break_loop.thisTrialN,break_loop.thisN,break_loop.thisIndex,rest_loop.thisRepN,rest_loop.thisTrialN,rest_loop.thisN,rest_loop.thisIndex,instruct_prac_text.started,instruct_prac_resp.started,b_instruct_text_2_.started,b_instruct_resp_2_.started,prac_done_text.started,prac_done_resp.started,instruct_text.started,instruct_resp.started,fixation.started,fixation.stopped,grating.started,blank.started,grating.stopped,resp.started,blank.stopped,resp.stopped,resp.keys,resp.corr,direction,duration,trigger,stim_type,corr_ans,scaling,resp.rt,rest_text.started,rest_resp.started,text_2.started,text_2.stopped,thx_txt.started,gender,age,participant,language,main_hand,nBlock_prac,file_suffix,date,expName,psychopyVersion,frameRate,
5,,,,,0,0,0,1,0,0,0,0,0,0,0,0,,,,,,,,,27.536567599978298,27.536567599978298,41.599311999976635,41.599311999976635,60.21697049983777,60.21697049983777,75.15929289977066,75.15929289977066,79.61792239989154,80.2152752999682,80.2152752999682,80.80030929995701,80.81696929992177,0.6155640000943094,82.8153544999659,2.630601800046861,None,1,decreament,0.6,11,standard,None,100,,,,,,,m,22,238,fr,r,0,raw,2023-04-26_09h45.12.787,oddball,2022.2.5,60.02851349547347,
5,,,,,0,0,0,1,0,0,0,0,1,0,1,0,,,,,,,,,,,,,,,,,82.83198849996552,83.48143439996056,83.48143439996056,84.08099989988841,84.08099989988841,0.6156216999515891,86.09600679995492,2.630630800034851,None,1,decreament,0.6,11,standard,None,100,,,,,,,m,22,238,fr,r,0,raw,2023-04-26_09h45.12.787,oddball,2022.2.5,60.02851349547347,
5,,,,,0,0,0,1,0,0,0,0,2,0,2,0,,,,,,,,,,,,,,,,,86.11267499998212,86.87868929980323,86.87868929980323,87.47817979985848,87.47817979985848,0.6152373000513762,89.49316459987313,2.6302175999153405,None,1,decreament,0.6,11,standard,None,100,,,,,,,m,22,238,fr,r,0,raw,2023-04-26_09h45.12.787,oddball,2022.2.5,60.02851349547347,
5,,,,,0,0,0,1,0,0,0,0,3,0,3,0,,,,,,,,,,,,,,,,,89.50974429980852,90.15947929979302,90.15947929979302,90.75878739985637,90.75878739985637,0.5990963999647647,92.77382039977238,2.614015100058168,None,1,decreament,0.6,11,standard,None,100,,,,,,,m,22,238,fr,r,0,raw,2023-04-26_09h45.12.787,oddball,2022.2.5,60.02851349547347,
5,,,,,0,0,0,1,0,0,0,0,4,0,4,0,,,,,,,,,,,,,,,,,92.77382039977238,93.30670329998247,93.30670329998247,93.90610629995354,93.90610629995354,0.6153250997886062,95.9212837999221,2.63050949992612,None,1,decreament,0.6,11,standard,None,100,,,,,,,m,22,238,fr,r,0,raw,2023-04-26_09h45.12.787,oddball,2022.2.5,60.02851349547347,
5,,,,,0,0,0,1,0,0,0,0,5,0,5,0,,,,,,,,,,,,,,,,,95.93799889995717,96.60427919984795,96.60427919984795,96.9537067997735,96.97042489983141,0.36574269994162023,98.96876139985397,2.380797900026664,None,0,decreament,0.36,13,oddball,j,60,,,,,,,m,22,238,fr,r,0,raw,2023-04-26_09h45.12.787,oddball,2022.2.5,60.02851349547347,
5,,,,,0,0,0,1,0,0,0,0,6,0,6,0,,,,,,,,,,,,,,,,,98.9853396997787,99.58491629990749,99.58491629990749,100.18452459992841,100.18452459992841,0.6155592000577599,102.19947479991242,2.6304675999563187,None,1,decreament,0.6,11,standard,None,100,,,,,,,m,22,238,fr,r,0,raw,2023-04-26_09h45.12.787,oddball,2022.2.5,60.02851349547347,
5,,,,,0,0,0,1,0,0,0,0,7,0,7,0,,,,,,,,,,,,,,,,,102.21610519988462,102.88218659977429,102.88218659977429,103.48171879979782,103.48171879979782,0.6152212999295443,105.49659969983622,2.630115699954331,None,1,decreament,0.6,11,standard,None,100,,,,,,,m,22,238,fr,r,0,raw,2023-04-26_09h45.12.787,oddball,2022.2.5,60.02851349547347,
5,,,,,0,0,0,1,0,0,0,0,8,0,8,0,,,,,,,,,,,,,,,,,105.51319719990715,106.12966439989395,106.12966439989395,106.72904659993947,106.72904659993947,0.5990464000497013,108.74407549994066,2.6139257999602705,None,1,decreament,0.6,11,standard,None,100,,,,,,,m,22,238,fr,r,0,raw,2023-04-26_09h45.12.787,oddball,2022.2.5,60.02851349547347,
5,,,,,0,0,0,1,0,0,0,0,9,0,9,0,,,,,,,,,,,,,,,,,108.74407549994066,109.34349929983728,109.34349929983728,109.94299719994888,109.94299719994888,0.5991746999789029,111.95827659987845,2.6139777000062168,j,0,decreament,0.6,11,standard,None,100,0.5580016002058983,,,,,,m,22,238,fr,r,0,raw,2023-04-26_09h45.12.787,oddball,2022.2.5,60.02851349547347,
5,,,,,0,0,0,1,0,0,0,0,10,0,10,0,,,,,,,,,,,,,,,,,111.95827659987845,112.72428299998865,112.72428299998865,113.32359099993482,113.32359099993482,0.6152396998368204,115.33848979999311,2.630123300012201,None,1,decreament,0.6,11,standard,None,100,,,,,,,m,22,238,fr,r,0,raw,2023-04-26_09h45.12.787,oddball,2022.2.5,60.02851349547347,
5,,,,,0,0,0,1,0,0,0,0,11,0,11,0,,,,,,,,,,,,,,,,,115.35526129999198,116.07134299981408,116.07134299981408,116.30407129996456,116.32074339990504,0.24839950003661215,118.31962699978612,2.264012200059369,j,1,decreament,0.24,12,oddball,j,40,0.46891900012269616,,,,,,m,22,238,fr,r,0,raw,2023-04-26_09h45.12.787,oddball,2022.2.5,60.02851349547347,
5,,,,,0,0,0,1,0,0,0,0,12,0,12,0,,,,,,,,,,,,,,,,,118.3359112998005,118.98550239996985,118.98550239996985,119.58499159989879,119.58499159989879,0.6153919999487698,121.59996709995903,2.6303552999161184,None,1,decreament,0.6,11,standard,None,100,,,,,,,m,22,238,fr,r,0,raw,2023-04-26_09h45.12.787,oddball,2022.2.5,60.02851349547347,
5,,,,,0,0,0,1,0,0,0,0,13,0,13,0,,,,,,,,,,,,,,,,,121.61678509996273,122.23279789998196,122.23279789998196,122.83241999987513,122.83241999987513,0.6154874998610467,124.84745199978352,2.6305287000723183,None,1,decreament,0.6,11,standard,None,100,,,,,,,m,22,238,fr,r,0,raw,2023-04-26_09h45.12.787,oddball,2022.2.5,60.02851349547347,
5,,,,,0,0,0,1,0,0,0,0,14,0,14,0,,,,,,,,,,,,,,,,,124.86421089991927,125.5136231998913,125.5136231998913,126.11311189993285,126.11311189993285,0.5990126000251621,128.12796229985543,2.613956200191751,None,1,decreament,0.6,11,standard,None,100,,,,,,,m,22,238,fr,r,0,raw,2023-04-26_09h45.12.787,oddball,2022.2.5,60.02851349547347,
5,,,,,0,0,0,1,0,0,0,0,15,0,15,0,,,,,,,,,,,,,,,,,128.12796229985543,128.81081529986113,128.81081529986113,129.41046989988536,129.41046989988536,0.5990677999798208,131.42542639980093,2.6139689998235554,None,1,decreament,0.6,11,standard,None,100,,,,,,,m,22,238,fr,r,0,raw,2023-04-26_09h45.12.787,oddball,2022.2.5,60.02851349547347,
5,,,,,0,0,0,1,0,0,0,0,16,0,16,0,,,,,,,,,,,,,,,,,131.42542639980093,132.00817049993202,132.00817049993202,132.6076197999064,132.6076197999064,0.615260399878025,134.6227140999399,2.630369999911636,None,1,decreament,0.6,11,standard,None,100,,,,,,,m,22,238,fr,r,0,raw,2023-04-26_09h45.12.787,oddball,2022.2.5,60.02851349547347,
5,,,,,0,0,0,1,0,0,0,0,17,0,17,0,,,,,,,,,,,,,,,,,134.6392999999225,135.18902019993402,135.18902019993402,135.78859419981018,135.78859419981018,0.5990971999708563,137.80366359977052,2.614115099888295,None,1,decreament,0.6,11,standard,None,100,,,,,,,m,22,238,fr,r,0,raw,2023-04-26_09h45.12.787,oddball,2022.2.5,60.02851349547347,
5,,,,,0,0,0,1,0,0,0,0,18,0,18,0,,,,,,,,,,,,,,,,,137.80366359977052,138.53618969977833,138.53618969977833,139.13590909983031,139.13590909983031,0.6156536999624223,141.15083469985984,2.6305665001273155,None,1,decreament,0.6,11,standard,None,100,,,,,,,m,22,238,fr,r,0,raw,2023-04-26_09h45.12.787,oddball,2022.2.5,60.02851349547347,
5,,,,,0,0,0,1,0,0,0,0,19,0,19,0,,,,,,,,,,,,,,,,,141.16740889986977,141.7669599999208,141.7669599999208,142.36630239989609,142.36630239989609,0.614855500170961,144.38146069995128,2.630020100157708,None,1,decreament,0.6,11,standard,None,100,,,,,,,m,22,238,fr,r,0,raw,2023-04-26_09h45.12.787,oddball,2022.2.5,60.02851349547347,
5,,,,,0,0,0,1,0,0,0,0,20,0,20,0,,,,,,,,,,,,,,,,,144.39816329977475,145.11419929983094,145.11419929983094,145.7136594997719,145.7136594997719,0.6150166001170874,147.72851699986495,2.629845099989325,j,0,decreament,0.6,11,standard,None,100,0.5359768001362681,,,,,,m,22,238,fr,r,0,raw,2023-04-26_09h45.12.787,oddball,2022.2.5,60.02851349547347,
5,,,,,0,0,0,1,0,0,0,0,21,0,21,0,,,,,,,,,,,,,,,,,147.74531719996594,148.3615738998633,148.3615738998633,148.960813799873,148.960813799873,0.615286200074479,150.97621529991738,2.6307045000139624,None,1,decreament,0.6,11,standard,None,100,,,,,,,m,22,238,fr,r,0,raw,2023-04-26_09h45.12.787,oddball,2022.2.5,60.02851349547347,
5,,,,,0,0,0,1,0,0,0,0,22,0,22,0,,,,,,,,,,,,,,,,,150.99271339992993,151.60882399999537,151.60882399999537,152.07516139978543,152.09167979983613,0.482520499965176,154.090193499811,2.4977035000920296,None,0,decreament,0.48,14,oddball,j,80,,,,,,,m,22,238,fr,r,0,raw,2023-04-26_09h45.12.787,oddball,2022.2.5,60.02851349547347,
5,,,,,0,0,0,1,0,0,0,0,23,0,23,0,,,,,,,,,,,,,,,,,154.10658839996904,154.67297909990884,154.67297909990884,155.27258139988407,155.27258139988407,0.6155938000883907,157.28760259994306,2.630531500093639,None,1,decreament,0.6,11,standard,None,100,,,,,,,m,22,238,fr,r,0,raw,2023-04-26_09h45.12.787,oddball,2022.2.5,60.02851349547347,
5,,,,,0,0,0,1,0,0,0,0,24,0,24,0,,,,,,,,,,,,,,,,,157.30419269995764,158.10341749992222,158.10341749992222,158.68644659989513,158.70289590000175,0.5992842998821288,160.70137399993837,2.614209800027311,None,1,decreament,0.6,11,standard,None,100,,,,,,,m,22,238,fr,r,0,raw,2023-04-26_09h45.12.787,oddball,2022.2.5,60.02851349547347,
5,,,,,0,0,0,1,0,0,0,0,25,0,25,0,,,,,,,,,,,,,,,,,160.71788159990683,161.26758959982544,161.26758959982544,161.867097399896,161.867097399896,0.6154918000102043,163.88203429989517,2.6304170000366867,None,1,decreament,0.6,11,standard,None,100,,,,,,,m,22,238,fr,r,0,raw,2023-04-26_09h45.12.787,oddball,2022.2.5,60.02851349547347,
5,,,,,0,0,0,1,0,0,0,0,26,0,26,0,,,,,,,,,,,,,,,,,163.89862899994478,164.49817639985122,164.49817639985122,165.0977521999739,165.0977521999739,0.599028900032863,167.1126850999426,2.613777899881825,None,1,decreament,0.6,11,standard,None,100,,,,,,,m,22,238,fr,r,0,raw,2023-04-26_09h45.12.787,oddball,2022.2.5,60.02851349547347,
5,,,,,0,0,0,1,0,0,0,0,27,0,27,0,,,,,,,,,,,,,,,,,167.1126850999426,167.71221099980175,167.71221099980175,168.31167789991014,168.31167789991014,0.6154390000738204,170.326892899815,2.6306783000472933,j,0,decreament,0.6,11,standard,None,100,0.4223963001277298,,,,,,m,22,238,fr,r,0,raw,2023-04-26_09h45.12.787,oddball,2022.2.5,60.02851349547347,
5,,,,,0,0,0,1,0,0,0,0,28,0,28,0,,,,,,,,,,,,,,,,,170.34342119982466,170.9596663999837,170.9596663999837,171.55910219997168,171.55910219997168,0.6155675000045449,173.5740779999178,2.630504099885002,None,1,decreament,0.6,11,standard,None,100,,,,,,,m,22,238,fr,r,0,raw,2023-04-26_09h45.12.787,oddball,2022.2.5,60.02851349547347,
5,,,,,0,0,0,1,0,0,0,0,29,0,29,0,,,,,,,,,,,,,,,,,173.59068759996444,174.37344979983754,174.37344979983754,174.97305369982496,174.97305369982496,0.6154789000283927,176.98787859990261,2.6302881999872625,None,1,decreament,0.6,11,standard,None,100,,,,,,,m,22,238,fr,r,0,raw,2023-04-26_09h45.12.787,oddball,2022.2.5,60.02851349547347,
5,,,,,0,0,0,1,1,0,1,0,0,0,0,0,,,,,,,,,,,,,,,183.91557749989443,183.91557749989443,186.72993969987147,187.34605819988064,187.34605819988064,187.9457118997816,187.9457118997816,0.6155958001036197,189.9606300999876,2.63047460000962,None,1,increament,0.6,15,standard,None,100,,177.00482349982485,0.0008775999303907156,,,,m,22,238,fr,r,0,raw,2023-04-26_09h45.12.787,oddball,2022.2.5,60.02851349547347,
5,,,,,0,0,0,1,1,0,1,0,1,0,1,0,,,,,,,,,,,,,,,,,189.97735979990102,190.54363529989496,190.54363529989496,191.14309279993176,191.14309279993176,0.6155111000407487,193.15808979980648,2.630503899883479,None,1,increament,0.6,15,standard,None,100,,,,,,,m,22,238,fr,r,0,raw,2023-04-26_09h45.12.787,oddball,2022.2.5,60.02851349547347,
5,,,,,0,0,0,1,1,0,1,0,2,0,2,0,,,,,,,,,,,,,,,,,193.17451199982315,193.79085559980012,193.79085559980012,194.3903858999256,194.3903858999256,0.6154348000418395,196.4053562998306,2.630408799974248,None,1,increament,0.6,15,standard,None,100,,,,,,,m,22,238,fr,r,0,raw,2023-04-26_09h45.12.787,oddball,2022.2.5,60.02851349547347,
5,,,,,0,0,0,1,1,0,1,0,3,0,3,0,,,,,,,,,,,,,,,,,196.4217897998169,197.00477619981393,197.00477619981393,197.60447459993884,197.60447459993884,0.6156215001828969,199.6193317999132,2.6304751001298428,None,1,increament,0.6,15,standard,None,100,,,,,,,m,22,238,fr,r,0,raw,2023-04-26_09h45.12.787,oddball,2022.2.5,60.02851349547347,
5,,,,,0,0,0,1,1,0,1,0,4,0,4,0,,,,,,,,,,,,,,,,,199.63596199988388,200.35217449977063,200.35217449977063,200.95166469994,200.95166469994,0.6154553000815213,202.96663679997437,2.6304109001066536,None,1,increament,0.6,15,standard,None,100,,,,,,,m,22,238,fr,r,0,raw,2023-04-26_09h45.12.787,oddball,2022.2.5,60.02851349547347,
5,,,,,0,0,0,1,1,0,1,0,5,0,5,0,,,,,,,,,,,,,,,,,202.98324039997533,203.69936029985547,203.69936029985547,204.2991886998061,204.2991886998061,0.6156787998043001,206.31396879977547,2.630459100008011,None,1,increament,0.6,15,standard,None,100,,,,,,,m,22,238,fr,r,0,raw,2023-04-26_09h45.12.787,oddball,2022.2.5,60.02851349547347,
5,,,,,0,0,0,1,1,0,1,0,6,0,6,0,,,,,,,,,,,,,,,,,206.33055689977482,207.03000939986669,207.03000939986669,207.6294414999429,207.6294414999429,0.615473500220105,209.64458519988693,2.6305983001366258,None,1,increament,0.6,15,standard,None,100,,,,,,,m,22,238,fr,r,0,raw,2023-04-26_09h45.12.787,oddball,2022.2.5,60.02851349547347,
5,,,,,0,0,0,1,1,0,1,0,7,0,7,0,,,,,,,,,,,,,,,,,209.66106439987198,210.39403809979558,210.39403809979558,210.99383809999563,210.99383809999563,0.6156549998559058,213.00834549986757,2.630142399808392,None,1,increament,0.6,15,standard,None,100,,,,,,,m,22,238,fr,r,0,raw,2023-04-26_09h45.12.787,oddball,2022.2.5,60.02851349547347,
5,,,,,0,0,0,1,1,0,1,0,8,0,8,0,,,,,,,,,,,,,,,,,213.02511979988776,213.57465149997734,213.57465149997734,214.17405169992708,214.17405169992708,0.61528420005925,216.1891541997902,2.6303948999848217,None,1,increament,0.6,15,standard,None,100,,,,,,,m,22,238,fr,r,0,raw,2023-04-26_09h45.12.787,oddball,2022.2.5,60.02851349547347,
5,,,,,0,0,0,1,1,0,1,0,9,0,9,0,,,,,,,,,,,,,,,,,216.20566499978304,216.78870639996603,216.78870639996603,217.38817289983854,217.38817289983854,0.5990017000585794,219.4030507998541,2.6140798998530954,None,1,increament,0.6,15,standard,None,100,,,,,,,m,22,238,fr,r,0,raw,2023-04-26_09h45.12.787,oddball,2022.2.5,60.02851349547347,
5,,,,,0,0,0,1,1,0,1,0,10,0,10,0,,,,,,,,,,,,,,,,,219.4030507998541,220.10270519996993,220.10270519996993,221.05183279979974,221.06852999981493,0.9651347999460995,223.06680829985999,2.9801211999729276,j,1,increament,0.96,18,oddball,j,160,0.13486530003137887,,,,,,m,22,238,fr,r,0,raw,2023-04-26_09h45.12.787,oddball,2022.2.5,60.02851349547347,
5,,,,,0,0,0,1,1,0,1,0,11,0,11,0,,,,,,,,,,,,,,,,,223.08339139982127,223.8495139000006,223.8495139000006,224.4491423999425,224.4491423999425,0.6153968998696655,226.46407249988988,2.630339300027117,None,1,increament,0.6,15,standard,None,100,,,,,,,m,22,238,fr,r,0,raw,2023-04-26_09h45.12.787,oddball,2022.2.5,60.02851349547347,
5,,,,,0,0,0,1,1,0,1,0,12,0,12,0,,,,,,,,,,,,,,,,,226.48079749988392,227.11340609984472,227.11340609984472,227.6964050999377,227.7129994998686,0.5991020000074059,229.71144539979286,2.614102400140837,None,1,increament,0.6,15,standard,None,100,,,,,,,m,22,238,fr,r,0,raw,2023-04-26_09h45.12.787,oddball,2022.2.5,60.02851349547347,
5,,,,,0,0,0,1,1,0,1,0,13,0,13,0,,,,,,,,,,,,,,,,,229.72794759995304,230.3775597999338,230.3775597999338,230.97703539999202,230.97703539999202,0.6154081001877785,232.99190339981578,2.630266400054097,None,1,increament,0.6,15,standard,None,100,,,,,,,m,22,238,fr,r,0,raw,2023-04-26_09h45.12.787,oddball,2022.2.5,60.02851349547347,
5,,,,,0,0,0,1,1,0,1,0,14,0,14,0,,,,,,,,,,,,,,,,,233.00897789979354,233.7250377999153,233.7250377999153,234.32420509983785,234.32420509983785,0.6154469999019057,236.33919449988753,2.630426999880001,None,1,increament,0.6,15,standard,None,100,,,,,,,m,22,238,fr,r,0,raw,2023-04-26_09h45.12.787,oddball,2022.2.5,60.02851349547347,
5,,,,,0,0,0,1,1,0,1,0,15,0,15,0,,,,,,,,,,,,,,,,,236.3557545999065,237.0052833999507,237.0052833999507,237.60480879992247,237.60480879992247,0.6154010000173002,239.61980719980784,2.6304134000092745,None,1,increament,0.6,15,standard,None,100,,,,,,,m,22,238,fr,r,0,raw,2023-04-26_09h45.12.787,oddball,2022.2.5,60.02851349547347,
5,,,,,0,0,0,1,1,0,1,0,16,0,16,0,,,,,,,,,,,,,,,,,239.6366928999778,240.41921689989977,240.41921689989977,241.01870829984546,241.01870829984546,0.6154640999156982,243.033681999892,2.630426999880001,None,1,increament,0.6,15,standard,None,100,,,,,,,m,22,238,fr,r,0,raw,2023-04-26_09h45.12.787,oddball,2022.2.5,60.02851349547347,
5,,,,,0,0,0,1,1,0,1,0,17,0,17,0,,,,,,,,,,,,,,,,,243.05043999990448,243.78310819994658,243.78310819994658,244.38272429979406,244.38272429979406,0.6154795000329614,246.39765319996513,2.6303894000593573,None,1,increament,0.6,15,standard,None,100,,,,,,,m,22,238,fr,r,0,raw,2023-04-26_09h45.12.787,oddball,2022.2.5,60.02851349547347,
5,,,,,0,0,0,1,1,0,1,0,18,0,18,0,,,,,,,,,,,,,,,,,246.41440349980257,247.09707319992594,247.09707319992594,247.8132458999753,247.82968289987184,0.7321130000054836,249.82808739994653,2.7469609999097884,None,0,increament,0.72,16,oddball,j,120,,,,,,,m,22,238,fr,r,0,raw,2023-04-26_09h45.12.787,oddball,2022.2.5,60.02851349547347,
5,,,,,0,0,0,1,1,0,1,0,19,0,19,0,,,,,,,,,,,,,,,,,249.84484209981747,250.39431649981998,250.39431649981998,250.99379349988885,250.99379349988885,0.6154160001315176,253.0088680998888,2.630474800011143,None,1,increament,0.6,15,standard,None,100,,,,,,,m,22,238,fr,r,0,raw,2023-04-26_09h45.12.787,oddball,2022.2.5,60.02851349547347,
5,,,,,0,0,0,1,1,0,1,0,20,0,20,0,,,,,,,,,,,,,,,,,253.02549669984728,253.6416901999619,253.6416901999619,254.22470959997736,254.24118949985132,0.5993259998504072,256.239820699906,2.614450699882582,None,1,increament,0.6,15,standard,None,100,,,,,,,m,22,238,fr,r,0,raw,2023-04-26_09h45.12.787,oddball,2022.2.5,60.02851349547347,
5,,,,,0,0,0,1,1,0,1,0,21,0,21,0,,,,,,,,,,,,,,,,,256.25621369993314,256.80564169981517,256.80564169981517,257.4052933999337,257.4052933999337,0.6154307001270354,259.42020449996926,2.630335699999705,None,1,increament,0.6,15,standard,None,100,,,,,,,m,22,238,fr,r,0,raw,2023-04-26_09h45.12.787,oddball,2022.2.5,60.02851349547347,
5,,,,,0,0,0,1,1,0,1,0,22,0,22,0,,,,,,,,,,,,,,,,,259.43693809979595,260.11991719994694,260.11991719994694,260.71908049983904,260.71908049983904,0.6152544999495149,262.7342090997845,2.6303626999724656,None,1,increament,0.6,15,standard,None,100,,,,,,,m,22,238,fr,r,0,raw,2023-04-26_09h45.12.787,oddball,2022.2.5,60.02851349547347,
5,,,,,0,0,0,1,1,0,1,0,23,0,23,0,,,,,,,,,,,,,,,,,262.75079229986295,263.65042279986665,263.65042279986665,264.2497253997717,264.2497253997717,0.6154825000558048,266.2647392998915,2.6304981000721455,None,1,increament,0.6,15,standard,None,100,,,,,,,m,22,238,fr,r,0,raw,2023-04-26_09h45.12.787,oddball,2022.2.5,60.02851349547347,
5,,,,,0,0,0,1,1,0,1,0,24,0,24,0,,,,,,,,,,,,,,,,,266.28118069982156,267.08063889993355,267.08063889993355,267.68004469992593,267.68004469992593,0.6153688000049442,269.695062499959,2.630387500161305,None,1,increament,0.6,15,standard,None,100,,,,,,,m,22,238,fr,r,0,raw,2023-04-26_09h45.12.787,oddball,2022.2.5,60.02851349547347,
5,,,,,0,0,0,1,1,0,1,0,25,0,25,0,,,,,,,,,,,,,,,,,269.7118817998562,270.2780440999195,270.2780440999195,270.8774001998827,270.8774001998827,0.6154690000694245,272.89281989983283,2.630888700019568,None,1,increament,0.6,15,standard,None,100,,,,,,,m,22,238,fr,r,0,raw,2023-04-26_09h45.12.787,oddball,2022.2.5,60.02851349547347,
5,,,,,0,0,0,1,1,0,1,0,26,0,26,0,,,,,,,,,,,,,,,,,272.9091259997804,273.64199109980837,273.64199109980837,274.47450259979814,274.49130049999803,0.8484969001729041,276.4899628998246,2.863969200057909,j,1,increament,0.84,17,oddball,j,140,0.20278190006501973,,,,,,m,22,238,fr,r,0,raw,2023-04-26_09h45.12.787,oddball,2022.2.5,60.02851349547347,
5,,,,,0,0,0,1,1,0,1,0,27,0,27,0,,,,,,,,,,,,,,,,,276.50617739977315,277.0889948999975,277.0889948999975,277.6885912998114,277.6885912998114,0.6154715998563915,279.70379679999314,2.63070089998655,None,1,increament,0.6,15,standard,None,100,,,,,,,m,22,238,fr,r,0,raw,2023-04-26_09h45.12.787,oddball,2022.2.5,60.02851349547347,
5,,,,,0,0,0,1,1,0,1,0,28,0,28,0,,,,,,,,,,,,,,,,,279.72021549986675,280.4864556998946,280.4864556998946,281.08582549984567,281.08582549984567,0.6153433001600206,283.10086219990626,2.6303924000822008,None,1,increament,0.6,15,standard,None,100,,,,,,,m,22,238,fr,r,0,raw,2023-04-26_09h45.12.787,oddball,2022.2.5,60.02851349547347,
5,,,,,0,0,0,1,1,0,1,0,29,0,29,0,,,,,,,,,,,,,,,,,283.1175403997768,283.7669307999313,283.7669307999313,284.3665036999155,284.3665036999155,0.6155234000179917,286.38138079992495,2.63039580010809,None,1,increament,0.6,15,standard,None,100,,,,,,,m,22,238,fr,r,0,raw,2023-04-26_09h45.12.787,oddball,2022.2.5,60.02851349547347,
5,,,,,0,0,0,1,2,0,2,0,0,0,0,0,,,,,,,,,,,,,,,292.9261425998993,292.9261425998993,294.4582430999726,295.15763919986784,295.15763919986784,295.74043939984404,295.75715619977564,0.5992686999961734,297.7555366999004,2.6143801999278367,None,1,decreament,0.6,11,standard,None,100,,286.398245499935,0.0008723000064492226,,,,m,22,238,fr,r,0,raw,2023-04-26_09h45.12.787,oddball,2022.2.5,60.02851349547347,
5,,,,,0,0,0,1,2,0,2,0,1,0,1,0,,,,,,,,,,,,,,,,,297.7720901998691,298.50483849993907,298.50483849993907,299.1043015997857,299.1043015997857,0.6156255998648703,301.1195020999294,2.63080869987607,None,1,decreament,0.6,11,standard,None,100,,,,,,,m,22,238,fr,r,0,raw,2023-04-26_09h45.12.787,oddball,2022.2.5,60.02851349547347,
5,,,,,0,0,0,1,2,0,2,0,2,0,2,0,,,,,,,,,,,,,,,,,301.13602179987356,301.7855140999891,301.7855140999891,302.3850731998682,302.3850731998682,0.6148908999748528,304.40010999981314,2.6299557997845113,None,1,decreament,0.6,11,standard,None,100,,,,,,,m,22,238,fr,r,0,raw,2023-04-26_09h45.12.787,oddball,2022.2.5,60.02851349547347,
5,,,,,0,0,0,1,2,0,2,0,3,0,3,0,,,,,,,,,,,,,,,,,304.4167011999525,305.08293409994803,305.08293409994803,305.68220839998685,305.68220839998685,0.6152811001520604,307.6972389998846,2.630306900013238,None,1,decreament,0.6,11,standard,None,100,,,,,,,m,22,238,fr,r,0,raw,2023-04-26_09h45.12.787,oddball,2022.2.5,60.02851349547347,
5,,,,,0,0,0,1,2,0,2,0,4,0,4,0,,,,,,,,,,,,,,,,,307.71402439987287,308.32997349998914,308.32997349998914,308.9130481998436,308.92957789986394,0.5990446999203414,310.92829839978367,2.614292500074953,None,1,decreament,0.6,11,standard,None,100,,,,,,,m,22,238,fr,r,0,raw,2023-04-26_09h45.12.787,oddball,2022.2.5,60.02851349547347,
5,,,,,0,0,0,1,2,0,2,0,5,0,5,0,,,,,,,,,,,,,,,,,310.94480549986474,311.6607556999661,311.6607556999661,312.26016879989766,312.26016879989766,0.6153883000370115,314.27515839994885,2.630390499951318,None,1,decreament,0.6,11,standard,None,100,,,,,,,m,22,238,fr,r,0,raw,2023-04-26_09h45.12.787,oddball,2022.2.5,60.02851349547347,
5,,,,,0,0,0,1,2,0,2,0,6,0,6,0,,,,,,,,,,,,,,,,,314.2919714997988,315.0413050998468,315.0413050998468,315.62417379999533,315.64093579980545,0.6157530001364648,317.63911279989406,2.6306599001400173,None,1,decreament,0.6,11,standard,None,100,,,,,,,m,22,238,fr,r,0,raw,2023-04-26_09h45.12.787,oddball,2022.2.5,60.02851349547347,
5,,,,,0,0,0,1,2,0,2,0,7,0,7,0,,,,,,,,,,,,,,,,,317.6723950000014,318.25530659989454,318.25530659989454,318.8548301998526,318.8548301998526,0.6153575000353158,320.8698093998246,2.6303338001016527,None,1,decreament,0.6,11,standard,None,100,,,,,,,m,22,238,fr,r,0,raw,2023-04-26_09h45.12.787,oddball,2022.2.5,60.02851349547347,
5,,,,,0,0,0,1,2,0,2,0,8,0,8,0,,,,,,,,,,,,,,,,,320.88648229977116,321.5859216998797,321.5859216998797,322.1853824998252,322.1853824998252,0.6152748998720199,324.20053239981644,2.630466799950227,None,1,decreament,0.6,11,standard,None,100,,,,,,,m,22,238,fr,r,0,raw,2023-04-26_09h45.12.787,oddball,2022.2.5,60.02851349547347,
5,,,,,0,0,0,1,2,0,2,0,9,0,9,0,,,,,,,,,,,,,,,,,324.2171739998739,324.83337439992465,324.83337439992465,325.41604549996555,325.43279099999927,0.6154567000921816,327.431179799838,2.6307422001846135,None,1,decreament,0.6,11,standard,None,100,,,,,,,m,22,238,fr,r,0,raw,2023-04-26_09h45.12.787,oddball,2022.2.5,60.02851349547347,
5,,,,,0,0,0,1,2,0,2,0,10,0,10,0,,,,,,,,,,,,,,,,,327.4643153999932,328.163799099857,328.163799099857,328.7633206997998,328.7633206997998,0.6147050999570638,330.778419499984,2.629777800058946,None,1,decreament,0.6,11,standard,None,100,,,,,,,m,22,238,fr,r,0,raw,2023-04-26_09h45.12.787,oddball,2022.2.5,60.02851349547347,
5,,,,,0,0,0,1,2,0,2,0,11,0,11,0,,,,,,,,,,,,,,,,,330.79495319980197,331.41114359977655,331.41114359977655,332.0106612998061,332.0106612998061,0.6151158998254687,334.02583809988573,2.6302738999947906,None,1,decreament,0.6,11,standard,None,100,,,,,,,m,22,238,fr,r,0,raw,2023-04-26_09h45.12.787,oddball,2022.2.5,60.02851349547347,
5,,,,,0,0,0,1,2,0,2,0,12,0,12,0,,,,,,,,,,,,,,,,,334.0423378997948,334.82517689978704,334.82517689978704,335.42452679993585,335.42452679993585,0.6149352001957595,337.43962919991463,2.6300280999857932,None,1,decreament,0.6,11,standard,None,100,,,,,,,m,22,238,fr,r,0,raw,2023-04-26_09h45.12.787,oddball,2022.2.5,60.02851349547347,
5,,,,,0,0,0,1,2,0,2,0,13,0,13,0,,,,,,,,,,,,,,,,,337.4560549999587,338.02244769991376,338.02244769991376,338.622016799869,338.622016799869,0.6153259999118745,340.6368759998586,2.6301750999409705,None,1,decreament,0.6,11,standard,None,100,,,,,,,m,22,238,fr,r,0,raw,2023-04-26_09h45.12.787,oddball,2022.2.5,60.02851349547347,
5,,,,,0,0,0,1,2,0,2,0,14,0,14,0,,,,,,,,,,,,,,,,,340.6535879999865,341.3528296998702,341.3528296998702,341.95245139999315,341.95245139999315,0.6153137001674622,343.96756589994766,2.6304134000092745,j,0,decreament,0.6,11,standard,None,100,0.6929719001054764,,,,,,m,22,238,fr,r,0,raw,2023-04-26_09h45.12.787,oddball,2022.2.5,60.02851349547347,
5,,,,,0,0,0,1,2,0,2,0,15,0,15,0,,,,,,,,,,,,,,,,,343.9841268998571,344.5837379998993,344.5837379998993,345.18317009997554,345.18317009997554,0.6155464998446405,347.198208599817,2.630547699984163,None,1,decreament,0.6,11,standard,None,100,,,,,,,m,22,238,fr,r,0,raw,2023-04-26_09h45.12.787,oddball,2022.2.5,60.02851349547347,
5,,,,,0,0,0,1,2,0,2,0,16,0,16,0,,,,,,,,,,,,,,,,,347.214882100001,347.8976441998966,347.8976441998966,348.36409159982577,348.38055759994313,0.48198110004886985,350.3790324998554,2.4969365000724792,None,0,decreament,0.48,14,oddball,j,80,,,,,,,m,22,238,fr,r,0,raw,2023-04-26_09h45.12.787,oddball,2022.2.5,60.02851349547347,
5,,,,,0,0,0,1,2,0,2,0,17,0,17,0,,,,,,,,,,,,,,,,,350.3955357999075,350.9617611998692,350.9617611998692,351.5612994998228,351.5612994998228,0.6153946002013981,353.57628219993785,2.630369500024244,None,1,decreament,0.6,11,standard,None,100,,,,,,,m,22,238,fr,r,0,raw,2023-04-26_09h45.12.787,oddball,2022.2.5,60.02851349547347,
5,,,,,0,0,0,1,2,0,2,0,18,0,18,0,,,,,,,,,,,,,,,,,353.59286369988695,354.29232069989666,354.29232069989666,354.89185639983043,354.89185639983043,0.6153462999500334,356.90695399977267,2.630422999849543,None,1,decreament,0.6,11,standard,None,100,,,,,,,m,22,238,fr,r,0,raw,2023-04-26_09h45.12.787,oddball,2022.2.5,60.02851349547347,
5,,,,,0,0,0,1,2,0,2,0,19,0,19,0,,,,,,,,,,,,,,,,,356.9235667998437,357.60636969981715,357.60636969981715,358.205770699773,358.205770699773,0.6152167001273483,360.22096919990145,2.6304507001768798,None,1,decreament,0.6,11,standard,None,100,,,,,,,m,22,238,fr,r,0,raw,2023-04-26_09h45.12.787,oddball,2022.2.5,60.02851349547347,
5,,,,,0,0,0,1,2,0,2,0,20,0,20,0,,,,,,,,,,,,,,,,,360.2373791998252,360.870404999936,360.870404999936,361.46977799991146,361.46977799991146,0.6149842001032084,363.4846377999056,2.62982020014897,None,1,decreament,0.6,11,standard,None,100,,,,,,,m,22,238,fr,r,0,raw,2023-04-26_09h45.12.787,oddball,2022.2.5,60.02851349547347,
5,,,,,0,0,0,1,2,0,2,0,21,0,21,0,,,,,,,,,,,,,,,,,363.50148409977555,364.08433169987984,364.08433169987984,364.6840389999561,364.6840389999561,0.6153212999925017,366.6989304998424,2.6302358999382704,None,1,decreament,0.6,11,standard,None,100,,,,,,,m,22,238,fr,r,0,raw,2023-04-26_09h45.12.787,oddball,2022.2.5,60.02851349547347,
5,,,,,0,0,0,1,2,0,2,0,22,0,22,0,,,,,,,,,,,,,,,,,366.7155528999865,367.3315708998125,367.3315708998125,367.9310498998966,367.9310498998966,0.6153448999393731,369.94612809992395,2.630412600003183,None,1,decreament,0.6,11,standard,None,100,,,,,,,m,22,238,fr,r,0,raw,2023-04-26_09h45.12.787,oddball,2022.2.5,60.02851349547347,
5,,,,,0,0,0,1,2,0,2,0,23,0,23,0,,,,,,,,,,,,,,,,,369.9628898999654,370.5456518998835,370.5456518998835,370.77877379977144,370.7953570999671,0.24886589986272156,372.7937422997784,2.2638345998711884,j,1,decreament,0.24,12,oddball,j,40,0.4027060002554208,,,,,,m,22,238,fr,r,0,raw,2023-04-26_09h45.12.787,oddball,2022.2.5,60.02851349547347,
5,,,,,0,0,0,1,2,0,2,0,24,0,24,0,,,,,,,,,,,,,,,,,372.8105943999253,373.4933563999366,373.4933563999366,374.0928366999142,374.0928366999142,0.6153624998405576,376.1076156999916,2.630085399840027,None,1,decreament,0.6,11,standard,None,100,,,,,,,m,22,238,fr,r,0,raw,2023-04-26_09h45.12.787,oddball,2022.2.5,60.02851349547347,
5,,,,,0,0,0,1,2,0,2,0,25,0,25,0,,,,,,,,,,,,,,,,,376.1244340999983,376.74061509990133,376.74061509990133,377.3235102999024,377.3403440997936,0.5990281000267714,379.33848449983634,2.613987000193447,None,1,decreament,0.6,11,standard,None,100,,,,,,,m,22,238,fr,r,0,raw,2023-04-26_09h45.12.787,oddball,2022.2.5,60.02851349547347,
5,,,,,0,0,0,1,2,0,2,0,26,0,26,0,,,,,,,,,,,,,,,,,379.3552986998111,379.9878829999361,379.9878829999361,380.5875570999924,380.5875570999924,0.6157549999188632,382.602749499958,2.630941799841821,None,1,decreament,0.6,11,standard,None,100,,,,,,,m,22,238,fr,r,0,raw,2023-04-26_09h45.12.787,oddball,2022.2.5,60.02851349547347,
5,,,,,0,0,0,1,2,0,2,0,27,0,27,0,,,,,,,,,,,,,,,,,382.6191351998132,383.2852358999662,383.2852358999662,383.8847460998222,383.8847460998222,0.5990351000800729,385.89979179995134,2.61392470006831,None,1,decreament,0.6,11,standard,None,100,,,,,,,m,22,238,fr,r,0,raw,2023-04-26_09h45.12.787,oddball,2022.2.5,60.02851349547347,
5,,,,,0,0,0,1,2,0,2,0,28,0,28,0,,,,,,,,,,,,,,,,,385.89979179995134,386.53255639993586,386.53255639993586,387.13201649999246,387.13201649999246,0.6154190001543611,389.1470531998202,2.6304460000246763,None,1,decreament,0.6,11,standard,None,100,,,,,,,m,22,238,fr,r,0,raw,2023-04-26_09h45.12.787,oddball,2022.2.5,60.02851349547347,
5,,,,,0,0,0,1,2,0,2,0,29,0,29,0,,,,,,,,,,,,,,,,,389.16361969988793,389.79660709993914,389.79660709993914,390.146316899918,390.1627778999973,0.3657398000359535,392.16131929983385,2.380759899970144,j,1,decreament,0.36,13,oddball,j,60,0.3677562002558261,,,,,,m,22,238,fr,r,0,raw,2023-04-26_09h45.12.787,oddball,2022.2.5,60.02851349547347,
5,,,,,0,0,0,1,3,0,3,0,0,0,0,0,,,,,,,,,,,,,,,394.2261305998545,394.2261305998545,400.3712731997948,401.070665899897,401.070665899897,401.6701368999202,401.6701368999202,0.6153094000183046,403.68523259996437,2.630389899946749,None,1,increament,0.6,15,standard,None,100,,392.17787649994716,0.0007928002160042524,,,,m,22,238,fr,r,0,raw,2023-04-26_09h45.12.787,oddball,2022.2.5,60.02851349547347,
5,,,,,0,0,0,1,3,0,3,0,1,0,1,0,,,,,,,,,,,,,,,,,403.7016807999462,404.23469569999725,404.23469569999725,404.8177368999459,404.8341513997875,0.5991070999298245,406.8324816999957,2.6137905998621136,None,1,increament,0.6,15,standard,None,100,,,,,,,m,22,238,fr,r,0,raw,2023-04-26_09h45.12.787,oddball,2022.2.5,60.02851349547347,
5,,,,,0,0,0,1,3,0,3,0,2,0,2,0,,,,,,,,,,,,,,,,,406.8491400999483,407.63191589992493,407.63191589992493,408.2318525998853,408.2318525998853,0.6158380000852048,410.24648169986904,2.6304234000854194,None,1,increament,0.6,15,standard,None,100,,,,,,,m,22,238,fr,r,0,raw,2023-04-26_09h45.12.787,oddball,2022.2.5,60.02851349547347,
5,,,,,0,0,0,1,3,0,3,0,3,0,3,0,,,,,,,,,,,,,,,,,410.26315969997086,410.8625553997699,410.8625553997699,411.46211269986816,411.46211269986816,0.6155071000102907,413.4771562998649,2.630543600069359,None,1,increament,0.6,15,standard,None,100,,,,,,,m,22,238,fr,r,0,raw,2023-04-26_09h45.12.787,oddball,2022.2.5,60.02851349547347,
5,,,,,0,0,0,1,3,0,3,0,4,0,4,0,,,,,,,,,,,,,,,,,413.49357949988917,414.0766098999884,414.0766098999884,414.6761467999313,414.6761467999313,0.6154954999219626,416.6910537998192,2.63039859989658,None,1,increament,0.6,15,standard,None,100,,,,,,,m,22,238,fr,r,0,raw,2023-04-26_09h45.12.787,oddball,2022.2.5,60.02851349547347,
5,,,,,0,0,0,1,3,0,3,0,5,0,5,0,,,,,,,,,,,,,,,,,416.70778319984674,417.4906291998923,417.4906291998923,418.43971939990297,418.45643089991063,0.965147300157696,420.45457349997014,2.979990200139582,j,1,increament,0.96,18,oddball,j,160,0.7943375001195818,,,,,,m,22,238,fr,r,0,raw,2023-04-26_09h45.12.787,oddball,2022.2.5,60.02851349547347,
5,,,,,0,0,0,1,3,0,3,0,6,0,6,0,,,,,,,,,,,,,,,,,420.47133919992484,421.1541979999747,421.1541979999747,421.75395269994624,421.75395269994624,0.6159009002149105,423.7687510999385,2.6307378001511097,None,1,increament,0.6,15,standard,None,100,,,,,,,m,22,238,fr,r,0,raw,2023-04-26_09h45.12.787,oddball,2022.2.5,60.02851349547347,
5,,,,,0,0,0,1,3,0,3,0,7,0,7,0,,,,,,,,,,,,,,,,,423.78519819979556,424.46809219988063,424.46809219988063,425.0676974998787,425.0676974998787,0.6157353001181036,427.08259689994156,2.6306277001276612,None,1,increament,0.6,15,standard,None,100,,,,,,,m,22,238,fr,r,0,raw,2023-04-26_09h45.12.787,oddball,2022.2.5,60.02851349547347,
5,,,,,0,0,0,1,3,0,3,0,8,0,8,0,,,,,,,,,,,,,,,,,427.09913769993,427.6321614999324,427.6321614999324,428.23159479978494,428.23159479978494,0.615403400035575,430.2466504999902,2.6304498000536114,None,1,increament,0.6,15,standard,None,100,,,,,,,m,22,238,fr,r,0,raw,2023-04-26_09h45.12.787,oddball,2022.2.5,60.02851349547347,
5,,,,,0,0,0,1,3,0,3,0,9,0,9,0,,,,,,,,,,,,,,,,,430.26336179999635,430.9628119999543,430.9628119999543,431.56242919992656,431.56242919992656,0.5990303999278694,433.57712119980715,2.6139436999801546,None,1,increament,0.6,15,standard,None,100,,,,,,,m,22,238,fr,r,0,raw,2023-04-26_09h45.12.787,oddball,2022.2.5,60.02851349547347,
5,,,,,0,0,0,1,3,0,3,0,10,0,10,0,,,,,,,,,,,,,,,,,433.57712119980715,434.22660479997285,434.22660479997285,434.82624109997414,434.82624109997414,0.6154511999338865,436.8413085998036,2.630525999935344,None,1,increament,0.6,15,standard,None,100,,,,,,,m,22,238,fr,r,0,raw,2023-04-26_09h45.12.787,oddball,2022.2.5,60.02851349547347,
5,,,,,0,0,0,1,3,0,3,0,11,0,11,0,,,,,,,,,,,,,,,,,436.8579485998489,437.5407397998497,437.5407397998497,438.1402247999795,438.1402247999795,0.6156967000570148,440.15532949985936,2.6308013999368995,None,1,increament,0.6,15,standard,None,100,,,,,,,m,22,238,fr,r,0,raw,2023-04-26_09h45.12.787,oddball,2022.2.5,60.02851349547347,
5,,,,,0,0,0,1,3,0,3,0,12,0,12,0,,,,,,,,,,,,,,,,,440.17187639977783,440.78801399981603,440.78801399981603,441.3873980999924,441.3873980999924,0.6153945000842214,443.40260959998704,2.630605900194496,None,1,increament,0.6,15,standard,None,100,,,,,,,m,22,238,fr,r,0,raw,2023-04-26_09h45.12.787,oddball,2022.2.5,60.02851349547347,
5,,,,,0,0,0,1,3,0,3,0,13,0,13,0,,,,,,,,,,,,,,,,,443.419191399822,444.0853087999858,444.0853087999858,444.68491549999453,444.68491549999453,0.5990959999617189,446.6998365998734,2.6137135999742895,None,1,increament,0.6,15,standard,None,100,,,,,,,m,22,238,fr,r,0,raw,2023-04-26_09h45.12.787,oddball,2022.2.5,60.02851349547347,
5,,,,,0,0,0,1,3,0,3,0,14,0,14,0,,,,,,,,,,,,,,,,,446.6998365998734,447.2827469999902,447.2827469999902,447.8656042998191,447.8822065999266,0.5990567000117153,449.8805164999794,2.6139392000623047,None,1,increament,0.6,15,standard,None,100,,,,,,,m,22,238,fr,r,0,raw,2023-04-26_09h45.12.787,oddball,2022.2.5,60.02851349547347,
5,,,,,0,0,0,1,3,0,3,0,15,0,15,0,,,,,,,,,,,,,,,,,449.8970737999771,450.61342629999854,450.61342629999854,451.2127546998672,451.2127546998672,0.6152687999419868,453.2280651999172,2.630575400078669,None,1,increament,0.6,15,standard,None,100,,,,,,,m,22,238,fr,r,0,raw,2023-04-26_09h45.12.787,oddball,2022.2.5,60.02851349547347,
5,,,,,0,0,0,1,3,0,3,0,16,0,16,0,,,,,,,,,,,,,,,,,453.24443179997616,453.9440042998176,453.9440042998176,454.5433021998033,454.5433021998033,0.6153166999574751,456.5583937999327,2.630396099993959,None,1,increament,0.6,15,standard,None,100,,,,,,,m,22,238,fr,r,0,raw,2023-04-26_09h45.12.787,oddball,2022.2.5,60.02851349547347,
5,,,,,0,0,0,1,3,0,3,0,17,0,17,0,,,,,,,,,,,,,,,,,456.5750080998987,457.25787239987403,457.25787239987403,457.85728119988926,457.85728119988926,0.6153239000122994,459.8723524999805,2.6303849001415074,None,1,increament,0.6,15,standard,None,100,,,,,,,m,22,238,fr,r,0,raw,2023-04-26_09h45.12.787,oddball,2022.2.5,60.02851349547347,
5,,,,,0,0,0,1,3,0,3,0,18,0,18,0,,,,,,,,,,,,,,,,,459.88897049985826,460.6050756999757,460.6050756999757,461.20444199978374,461.20444199978374,0.615373499924317,463.21945589990355,2.630357899935916,None,1,increament,0.6,15,standard,None,100,,,,,,,m,22,238,fr,r,0,raw,2023-04-26_09h45.12.787,oddball,2022.2.5,60.02851349547347,
5,,,,,0,0,0,1,3,0,3,0,19,0,19,0,,,,,,,,,,,,,,,,,463.2362613999285,463.8857458999846,463.8857458999846,464.485125299776,464.485125299776,0.6152463001199067,466.5001324999612,2.6302532001864165,None,1,increament,0.6,15,standard,None,100,,,,,,,m,22,238,fr,r,0,raw,2023-04-26_09h45.12.787,oddball,2022.2.5,60.02851349547347,
5,,,,,0,0,0,1,3,0,3,0,20,0,20,0,,,,,,,,,,,,,,,,,466.51681219995953,467.18313999986276,467.18313999986276,467.76582899992354,467.7825523999054,0.5991026000119746,469.7809176999144,2.614197100047022,None,1,increament,0.6,15,standard,None,100,,,,,,,m,22,238,fr,r,0,raw,2023-04-26_09h45.12.787,oddball,2022.2.5,60.02851349547347,
5,,,,,0,0,0,1,3,0,3,0,21,0,21,0,,,,,,,,,,,,,,,,,469.7974847999867,470.34711149986833,470.34711149986833,470.94659709976986,470.94659709976986,0.6154347001574934,472.96162709989585,2.6304550000932068,None,1,increament,0.6,15,standard,None,100,,,,,,,m,22,238,fr,r,0,raw,2023-04-26_09h45.12.787,oddball,2022.2.5,60.02851349547347,
5,,,,,0,0,0,1,3,0,3,0,22,0,22,0,,,,,,,,,,,,,,,,,472.97827719990164,473.5444922999013,473.5444922999013,474.14399699983187,474.14399699983187,0.6154132999945432,476.15891189989634,2.630271299974993,None,1,increament,0.6,15,standard,None,100,,,,,,,m,22,238,fr,r,0,raw,2023-04-26_09h45.12.787,oddball,2022.2.5,60.02851349547347,
5,,,,,0,0,0,1,3,0,3,0,23,0,23,0,,,,,,,,,,,,,,,,,476.1755705999676,476.8584013998043,476.8584013998043,477.45783489989117,477.45783489989117,0.6152997999452055,479.47297899983823,2.630440699867904,None,1,increament,0.6,15,standard,None,100,,,,,,,m,22,238,fr,r,0,raw,2023-04-26_09h45.12.787,oddball,2022.2.5,60.02851349547347,
5,,,,,0,0,0,1,3,0,3,0,24,0,24,0,,,,,,,,,,,,,,,,,479.48947379994206,480.0724934998434,480.0724934998434,480.6717717999127,480.6717717999127,0.6152813001535833,482.68683029990643,2.6303344001062214,None,1,increament,0.6,15,standard,None,100,,,,,,,m,22,238,fr,r,0,raw,2023-04-26_09h45.12.787,oddball,2022.2.5,60.02851349547347,
5,,,,,0,0,0,1,3,0,3,0,25,0,25,0,,,,,,,,,,,,,,,,,482.70353549998254,483.45283809979446,483.45283809979446,484.1690219999291,484.18566229986027,0.7319350999314338,486.1841160999611,2.747050100006163,None,0,increament,0.72,16,oddball,j,120,,,,,,,m,22,238,fr,r,0,raw,2023-04-26_09h45.12.787,oddball,2022.2.5,60.02851349547347,
5,,,,,0,0,0,1,3,0,3,0,26,0,26,0,,,,,,,,,,,,,,,,,486.2005674999673,486.8835107998457,486.8835107998457,487.48293119994923,487.48293119994923,0.6151092001236975,489.4979109999258,2.6300776000134647,None,1,increament,0.6,15,standard,None,100,,,,,,,m,22,238,fr,r,0,raw,2023-04-26_09h45.12.787,oddball,2022.2.5,60.02851349547347,
5,,,,,0,0,0,1,3,0,3,0,27,0,27,0,,,,,,,,,,,,,,,,,489.51456769998185,490.2306549998466,490.2306549998466,490.8301274999976,490.8301274999976,0.6151795999612659,492.8453690998722,2.63044280000031,None,1,increament,0.6,15,standard,None,100,,,,,,,m,22,238,fr,r,0,raw,2023-04-26_09h45.12.787,oddball,2022.2.5,60.02851349547347,
5,,,,,0,0,0,1,3,0,3,0,28,0,28,0,,,,,,,,,,,,,,,,,492.86192589998245,493.478016999783,493.478016999783,494.0609017999377,494.07761669997126,0.6155647998675704,496.0759725999087,2.630572799826041,None,1,increament,0.6,15,standard,None,100,,,,,,,m,22,238,fr,r,0,raw,2023-04-26_09h45.12.787,oddball,2022.2.5,60.02851349547347,
5,,,,,0,0,0,1,3,0,3,0,29,0,29,0,,,,,,,,,,,,,,,,,496.10931419976987,496.77525359997526,496.77525359997526,497.6080593999941,497.6245600997936,0.8486766999121755,499.62287209997885,2.863482999848202,j,1,increament,0.84,17,oddball,j,140,0.4026428002398461,,,,,,m,22,238,fr,r,0,raw,2023-04-26_09h45.12.787,oddball,2022.2.5,60.02851349547347,
5,,,,,0,0,0,1,4,0,4,0,0,0,0,0,,,,,,,,,,,,,,,516.925477599958,516.925477599958,518.4075574998278,518.9903737998102,518.9903737998102,519.5898998999037,519.5898998999037,0.6152984001673758,521.6048314999789,2.630232400028035,None,1,decreament,0.6,11,standard,None,100,,499.63957699993625,0.0008462001569569111,,,,m,22,238,fr,r,0,raw,2023-04-26_09h45.12.787,oddball,2022.2.5,60.02851349547347,
5,,,,,0,0,0,1,4,0,4,0,1,0,1,0,,,,,,,,,,,,,,,,,521.6215547998436,522.1546035998035,522.1546035998035,522.7540122999344,522.7540122999344,0.6153315999545157,524.7690988997929,2.6304154000245035,None,1,decreament,0.6,11,standard,None,100,,,,,,,m,22,238,fr,r,0,raw,2023-04-26_09h45.12.787,oddball,2022.2.5,60.02851349547347,
5,,,,,0,0,0,1,4,0,4,0,2,0,2,0,,,,,,,,,,,,,,,,,524.78578809998,525.5517009999603,525.5517009999603,526.1512481998652,526.1512481998652,0.6150495999027044,528.1662023998797,2.629984699888155,None,1,decreament,0.6,11,standard,None,100,,,,,,,m,22,238,fr,r,0,raw,2023-04-26_09h45.12.787,oddball,2022.2.5,60.02851349547347,
5,,,,,0,0,0,1,4,0,4,0,3,0,3,0,,,,,,,,,,,,,,,,,528.1830060998909,528.8657140999567,528.8657140999567,529.4652377997991,529.4652377997991,0.6154377001803368,531.4802727999631,2.6304518000688404,None,1,decreament,0.6,11,standard,None,100,,,,,,,m,22,238,fr,r,0,raw,2023-04-26_09h45.12.787,oddball,2022.2.5,60.02851349547347,
5,,,,,0,0,0,1,4,0,4,0,4,0,4,0,,,,,,,,,,,,,,,,,531.4969275998883,532.1296085999347,532.1296085999347,532.7292430999223,532.7292430999223,0.6151136001572013,534.7440682000015,2.629929800052196,None,1,decreament,0.6,11,standard,None,100,,,,,,,m,22,238,fr,r,0,raw,2023-04-26_09h45.12.787,oddball,2022.2.5,60.02851349547347,
5,,,,,0,0,0,1,4,0,4,0,5,0,5,0,,,,,,,,,,,,,,,,,534.7608365998603,535.5270258998498,535.5270258998498,536.1265703998506,536.1265703998506,0.615557299926877,538.1414121999405,2.6303910999558866,None,1,decreament,0.6,11,standard,None,100,,,,,,,m,22,238,fr,r,0,raw,2023-04-26_09h45.12.787,oddball,2022.2.5,60.02851349547347,
5,,,,,0,0,0,1,4,0,4,0,6,0,6,0,,,,,,,,,,,,,,,,,538.1578908998054,538.7909072998445,538.7909072998445,539.3903701999225,539.3903701999225,0.6153639000840485,541.4055301998742,2.630529399961233,None,1,decreament,0.6,11,standard,None,100,,,,,,,m,22,238,fr,r,0,raw,2023-04-26_09h45.12.787,oddball,2022.2.5,60.02851349547347,
5,,,,,0,0,0,1,4,0,4,0,7,0,7,0,,,,,,,,,,,,,,,,,541.4220061998349,542.121553799836,542.121553799836,542.4712980999611,542.4878781998996,0.3656675999518484,544.4861002999824,2.380457599880174,j,1,decreament,0.36,13,oddball,j,60,0.6569012000691146,,,,,,m,22,238,fr,r,0,raw,2023-04-26_09h45.12.787,oddball,2022.2.5,60.02851349547347,
5,,,,,0,0,0,1,4,0,4,0,8,0,8,0,,,,,,,,,,,,,,,,,544.5026882998645,545.0690888999961,545.0690888999961,545.668582299957,545.668582299957,0.6152893998660147,547.6835303998087,2.630214700009674,None,1,decreament,0.6,11,standard,None,100,,,,,,,m,22,238,fr,r,0,raw,2023-04-26_09h45.12.787,oddball,2022.2.5,60.02851349547347,
5,,,,,0,0,0,1,4,0,4,0,9,0,9,0,,,,,,,,,,,,,,,,,547.7002029998694,548.216547299875,548.216547299875,548.8160267998464,548.8160267998464,0.6154005001299083,550.8309433998074,2.6302957001607865,None,1,decreament,0.6,11,standard,None,100,,,,,,,m,22,238,fr,r,0,raw,2023-04-26_09h45.12.787,oddball,2022.2.5,60.02851349547347,
5,,,,,0,0,0,1,4,0,4,0,10,0,10,0,,,,,,,,,,,,,,,,,550.8476100999396,551.5138593998272,551.5138593998272,552.1132876998745,552.1132876998745,0.6154645001515746,554.1282085999846,2.6303834000136703,None,1,decreament,0.6,11,standard,None,100,,,,,,,m,22,238,fr,r,0,raw,2023-04-26_09h45.12.787,oddball,2022.2.5,60.02851349547347,
5,,,,,0,0,0,1,4,0,4,0,11,0,11,0,,,,,,,,,,,,,,,,,554.144787899917,554.8275987999514,554.8275987999514,555.4270176999271,555.4270176999271,0.6150116000790149,557.4421536999289,2.6301520001143217,None,1,decreament,0.6,11,standard,None,100,,,,,,,m,22,238,fr,r,0,raw,2023-04-26_09h45.12.787,oddball,2022.2.5,60.02851349547347,
5,,,,,0,0,0,1,4,0,4,0,12,0,12,0,,,,,,,,,,,,,,,,,557.4588616997935,558.1416036998853,558.1416036998853,558.7412023998331,558.7412023998331,0.6154715998563915,560.7562215998769,2.630484899971634,None,1,decreament,0.6,11,standard,None,100,,,,,,,m,22,238,fr,r,0,raw,2023-04-26_09h45.12.787,oddball,2022.2.5,60.02851349547347,
5,,,,,0,0,0,1,4,0,4,0,13,0,13,0,,,,,,,,,,,,,,,,,560.7728145997971,561.5555792998057,561.5555792998057,561.7885770997964,561.8051695998292,0.24892379995435476,563.8036526998039,2.263995099812746,j,1,decreament,0.24,12,oddball,j,40,0.5436994000338018,,,,,,m,22,238,fr,r,0,raw,2023-04-26_09h45.12.787,oddball,2022.2.5,60.02851349547347,
5,,,,,0,0,0,1,4,0,4,0,14,0,14,0,,,,,,,,,,,,,,,,,563.8202392999083,564.4697637998033,564.4697637998033,565.069167799782,565.069167799782,0.615419500041753,567.0843921999913,2.630654500098899,None,1,decreament,0.6,11,standard,None,100,,,,,,,m,22,238,fr,r,0,raw,2023-04-26_09h45.12.787,oddball,2022.2.5,60.02851349547347,
5,,,,,0,0,0,1,4,0,4,0,15,0,15,0,,,,,,,,,,,,,,,,,567.1009591999464,567.8004248999059,567.8004248999059,568.3997780999634,568.3997780999634,0.6152397999539971,570.4148511998355,2.6303081999067217,None,1,decreament,0.6,11,standard,None,100,,,,,,,m,22,238,fr,r,0,raw,2023-04-26_09h45.12.787,oddball,2022.2.5,60.02851349547347,
5,,,,,0,0,0,1,4,0,4,0,16,0,16,0,,,,,,,,,,,,,,,,,570.4314639999066,571.1641795998439,571.1641795998439,571.7637612998951,571.7637612998951,0.6155504998750985,573.7788364998996,2.6306193999480456,None,1,decreament,0.6,11,standard,None,100,,,,,,,m,22,238,fr,r,0,raw,2023-04-26_09h45.12.787,oddball,2022.2.5,60.02851349547347,
5,,,,,0,0,0,1,4,0,4,0,17,0,17,0,,,,,,,,,,,,,,,,,573.7954471998382,574.4449814998079,574.4449814998079,575.0445277998224,575.0445277998224,0.6156426998786628,577.0595141998492,2.6306079998612404,None,1,decreament,0.6,11,standard,None,100,,,,,,,m,22,238,fr,r,0,raw,2023-04-26_09h45.12.787,oddball,2022.2.5,60.02851349547347,
5,,,,,0,0,0,1,4,0,4,0,18,0,18,0,,,,,,,,,,,,,,,,,577.0760409999639,577.7422120999545,577.7422120999545,578.208905399777,578.2252714999486,0.48254740005359054,580.2235343998764,2.497157100122422,None,0,decreament,0.48,14,oddball,j,80,,,,,,,m,22,238,fr,r,0,raw,2023-04-26_09h45.12.787,oddball,2022.2.5,60.02851349547347,
5,,,,,0,0,0,1,4,0,4,0,19,0,19,0,,,,,,,,,,,,,,,,,580.240124499891,580.8063934999518,580.8063934999518,581.4057632999029,581.4057632999029,0.6153092999011278,583.4209166998044,2.630457399878651,None,1,decreament,0.6,11,standard,None,100,,,,,,,m,22,238,fr,r,0,raw,2023-04-26_09h45.12.787,oddball,2022.2.5,60.02851349547347,
5,,,,,0,0,0,1,4,0,4,0,20,0,20,0,,,,,,,,,,,,,,,,,583.4375446999911,584.1037185997702,584.1037185997702,584.7030313999858,584.7030313999858,0.6154247000813484,586.718101099832,2.63049150002189,None,1,decreament,0.6,11,standard,None,100,,,,,,,m,22,238,fr,r,0,raw,2023-04-26_09h45.12.787,oddball,2022.2.5,60.02851349547347,
5,,,,,0,0,0,1,4,0,4,0,21,0,21,0,,,,,,,,,,,,,,,,,586.7348927999847,587.3676516998094,587.3676516998094,587.9671609997749,587.9671609997749,0.6155842000152916,589.9821677999571,2.630617900053039,None,1,decreament,0.6,11,standard,None,100,,,,,,,m,22,238,fr,r,0,raw,2023-04-26_09h45.12.787,oddball,2022.2.5,60.02851349547347,
5,,,,,0,0,0,1,4,0,4,0,22,0,22,0,,,,,,,,,,,,,,,,,589.9987648997921,590.6148296999745,590.6148296999745,591.2145048999228,591.2145048999228,0.6155163999646902,593.2295448998921,2.630555599927902,None,1,decreament,0.6,11,standard,None,100,,,,,,,m,22,238,fr,r,0,raw,2023-04-26_09h45.12.787,oddball,2022.2.5,60.02851349547347,
5,,,,,0,0,0,1,4,0,4,0,23,0,23,0,,,,,,,,,,,,,,,,,593.2461314999964,593.9454519997817,593.9454519997817,594.5452399998903,594.5452399998903,0.5992211999837309,596.560086999787,2.6137808999046683,None,1,decreament,0.6,11,standard,None,100,,,,,,,m,22,238,fr,r,0,raw,2023-04-26_09h45.12.787,oddball,2022.2.5,60.02851349547347,
5,,,,,0,0,0,1,4,0,4,0,24,0,24,0,,,,,,,,,,,,,,,,,596.560086999787,597.1763588998001,597.1763588998001,597.7759273999836,597.7759273999836,0.6157925999723375,599.790665899869,2.6305285999551415,None,1,decreament,0.6,11,standard,None,100,,,,,,,m,22,238,fr,r,0,raw,2023-04-26_09h45.12.787,oddball,2022.2.5,60.02851349547347,
5,,,,,0,0,0,1,4,0,4,0,25,0,25,0,,,,,,,,,,,,,,,,,599.807422199985,600.3569675998297,600.3569675998297,600.9565531997941,600.9565531997941,0.6154407998546958,602.9715440999717,2.6304399999789894,None,1,decreament,0.6,11,standard,None,100,,,,,,,m,22,238,fr,r,0,raw,2023-04-26_09h45.12.787,oddball,2022.2.5,60.02851349547347,
5,,,,,0,0,0,1,4,0,4,0,26,0,26,0,,,,,,,,,,,,,,,,,602.9881122999359,603.6375838997774,603.6375838997774,604.2370632998645,604.2370632998645,0.6153353000991046,606.2521154999267,2.630391700193286,None,1,decreament,0.6,11,standard,None,100,,,,,,,m,22,238,fr,r,0,raw,2023-04-26_09h45.12.787,oddball,2022.2.5,60.02851349547347,
5,,,,,0,0,0,1,4,0,4,0,27,0,27,0,,,,,,,,,,,,,,,,,606.2690782998689,607.0014944998547,607.0014944998547,607.584387099836,607.6009561999235,0.5990591000299901,609.5996829997748,2.6143680000677705,None,1,decreament,0.6,11,standard,None,100,,,,,,,m,22,238,fr,r,0,raw,2023-04-26_09h45.12.787,oddball,2022.2.5,60.02851349547347,
5,,,,,0,0,0,1,4,0,4,0,28,0,28,0,,,,,,,,,,,,,,,,,609.6160870997701,610.298821099801,610.298821099801,610.8986006998457,610.8986006998457,0.6155337998643517,612.9136502998881,2.630586199928075,j,0,decreament,0.6,11,standard,None,100,0.4926216001622379,,,,,,m,22,238,fr,r,0,raw,2023-04-26_09h45.12.787,oddball,2022.2.5,60.02851349547347,
5,,,,,0,0,0,1,4,0,4,0,29,0,29,0,,,,,,,,,,,,,,,,,612.9298104997724,613.5293916999362,613.5293916999362,614.12916329992,614.12916329992,0.6157054998911917,616.143964599818,2.6304959000553936,None,1,decreament,0.6,11,standard,None,100,,,,,,,m,22,238,fr,r,0,raw,2023-04-26_09h45.12.787,oddball,2022.2.5,60.02851349547347,
5,,,,,0,0,0,1,5,0,5,0,0,0,0,0,,,,,,,,,,,,,,,621.4729532999918,621.4729532999918,627.4347094998229,628.0675724998582,628.0675724998582,628.6669712997973,628.6669712997973,0.59914580010809,630.6820823999587,2.6138083999976516,None,1,increament,0.6,15,standard,None,100,,616.1605873999652,0.0009403999429196119,,,,m,22,238,fr,r,0,raw,2023-04-26_09h45.12.787,oddball,2022.2.5,60.02851349547347,
5,,,,,0,0,0,1,5,0,5,0,1,0,1,0,,,,,,,,,,,,,,,,,630.6820823999587,631.3313864998054,631.3313864998054,631.9143647998571,631.9311192999594,0.6157253999263048,633.929312299937,2.630689899902791,None,1,increament,0.6,15,standard,None,100,,,,,,,m,22,238,fr,r,0,raw,2023-04-26_09h45.12.787,oddball,2022.2.5,60.02851349547347,
5,,,,,0,0,0,1,5,0,5,0,2,0,2,0,,,,,,,,,,,,,,,,,633.962592799915,634.6621034999844,634.6621034999844,635.261463599978,635.261463599978,0.615294799907133,637.2767358999699,2.6305505000054836,None,1,increament,0.6,15,standard,None,100,,,,,,,m,22,238,fr,r,0,raw,2023-04-26_09h45.12.787,oddball,2022.2.5,60.02851349547347,
5,,,,,0,0,0,1,5,0,5,0,3,0,3,0,,,,,,,,,,,,,,,,,637.2934124998283,637.9097920998465,637.9097920998465,638.5089397998527,638.5089397998527,0.6153279999271035,640.5240255999379,2.6304011999163777,None,1,increament,0.6,15,standard,None,100,,,,,,,m,22,238,fr,r,0,raw,2023-04-26_09h45.12.787,oddball,2022.2.5,60.02851349547347,
5,,,,,0,0,0,1,5,0,5,0,4,0,4,0,,,,,,,,,,,,,,,,,640.5405484999064,641.4565673999023,641.4565673999023,642.0558242998086,642.0558242998086,0.6149963000789285,644.0709821998607,2.6301540001295507,None,1,increament,0.6,15,standard,None,100,,,,,,,m,22,238,fr,r,0,raw,2023-04-26_09h45.12.787,oddball,2022.2.5,60.02851349547347,
5,,,,,0,0,0,1,5,0,5,0,5,0,5,0,,,,,,,,,,,,,,,,,644.0875784999225,644.7038165999111,644.7038165999111,645.3032396999188,645.3032396999188,0.6155946999788284,647.318405199796,2.630751800024882,None,1,increament,0.6,15,standard,None,100,,,,,,,m,22,238,fr,r,0,raw,2023-04-26_09h45.12.787,oddball,2022.2.5,60.02851349547347,
5,,,,,0,0,0,1,5,0,5,0,6,0,6,0,,,,,,,,,,,,,,,,,647.3351066999603,647.9179368999321,647.9179368999321,648.5174720999785,648.5174720999785,0.6155350001063198,650.5327391999308,2.6308004001621157,None,1,increament,0.6,15,standard,None,100,,,,,,,m,22,238,fr,r,0,raw,2023-04-26_09h45.12.787,oddball,2022.2.5,60.02851349547347,
5,,,,,0,0,0,1,5,0,5,0,7,0,7,0,,,,,,,,,,,,,,,,,650.5490307998843,651.2153168998193,651.2153168998193,651.9316174997948,651.947769699851,0.7323980000801384,653.9461136998143,2.7468898999504745,j,1,increament,0.72,16,oddball,j,120,0.49466790026053786,,,,,,m,22,238,fr,r,0,raw,2023-04-26_09h45.12.787,oddball,2022.2.5,60.02851349547347,
5,,,,,0,0,0,1,5,0,5,0,8,0,8,0,,,,,,,,,,,,,,,,,653.9629098000005,654.5124670998193,654.5124670998193,655.1120120999403,655.1120120999403,0.6155640999786556,657.1272902998608,2.630820699967444,None,1,increament,0.6,15,standard,None,100,,,,,,,m,22,238,fr,r,0,raw,2023-04-26_09h45.12.787,oddball,2022.2.5,60.02851349547347,
5,,,,,0,0,0,1,5,0,5,0,9,0,9,0,,,,,,,,,,,,,,,,,657.1437436998822,657.8263758998364,657.8263758998364,658.426038999809,658.426038999809,0.6156142000108957,660.4408949997742,2.630475400015712,None,1,increament,0.6,15,standard,None,100,,,,,,,m,22,238,fr,r,0,raw,2023-04-26_09h45.12.787,oddball,2022.2.5,60.02851349547347,
5,,,,,0,0,0,1,5,0,5,0,10,0,10,0,,,,,,,,,,,,,,,,,660.4577053999528,661.0071495999582,661.0071495999582,661.6066897998098,661.6066897998098,0.6154187999200076,663.6217965998221,2.630511799827218,None,1,increament,0.6,15,standard,None,100,,,,,,,m,22,238,fr,r,0,raw,2023-04-26_09h45.12.787,oddball,2022.2.5,60.02851349547347,
5,,,,,0,0,0,1,5,0,5,0,11,0,11,0,,,,,,,,,,,,,,,,,663.6382615999319,664.1712250998244,664.1712250998244,664.7707450999878,664.7707450999878,0.6156681999564171,666.7858967999928,2.630832300055772,None,1,increament,0.6,15,standard,None,100,,,,,,,m,22,238,fr,r,0,raw,2023-04-26_09h45.12.787,oddball,2022.2.5,60.02851349547347,
5,,,,,0,0,0,1,5,0,5,0,12,0,12,0,,,,,,,,,,,,,,,,,666.802374899853,667.5852386998013,667.5852386998013,668.1846075998619,668.1846075998619,0.6156320001464337,670.1998113999143,2.6307908000890166,None,1,increament,0.6,15,standard,None,100,,,,,,,m,22,238,fr,r,0,raw,2023-04-26_09h45.12.787,oddball,2022.2.5,60.02851349547347,
5,,,,,0,0,0,1,5,0,5,0,13,0,13,0,,,,,,,,,,,,,,,,,670.2164462998044,670.9158184998669,670.9158184998669,671.5152605997864,671.5152605997864,0.5990368998609483,673.5301613998599,2.6139786997810006,j,0,increament,0.6,15,standard,None,100,0.7388138002716005,,,,,,m,22,238,fr,r,0,raw,2023-04-26_09h45.12.787,oddball,2022.2.5,60.02851349547347,
5,,,,,0,0,0,1,5,0,5,0,14,0,14,0,,,,,,,,,,,,,,,,,673.5301613998599,674.1796588997822,674.1796588997822,674.7793165999465,674.7793165999465,0.599049000069499,676.7940985998139,2.613849600078538,None,1,increament,0.6,15,standard,None,100,,,,,,,m,22,238,fr,r,0,raw,2023-04-26_09h45.12.787,oddball,2022.2.5,60.02851349547347,
5,,,,,0,0,0,1,5,0,5,0,15,0,15,0,,,,,,,,,,,,,,,,,676.7940985998139,677.4436985999346,677.4436985999346,678.0432213998865,678.0432213998865,0.6151726001407951,680.0582273998298,2.630166199989617,None,1,increament,0.6,15,standard,None,100,,,,,,,m,22,238,fr,r,0,raw,2023-04-26_09h45.12.787,oddball,2022.2.5,60.02851349547347,
5,,,,,0,0,0,1,5,0,5,0,16,0,16,0,,,,,,,,,,,,,,,,,680.0748253997881,680.6910512999166,680.6910512999166,681.2905813998077,681.2905813998077,0.6156319000292569,683.3055507999379,2.6305938998702914,j,0,increament,0.6,15,standard,None,100,0.2619200001936406,,,,,,m,22,238,fr,r,0,raw,2023-04-26_09h45.12.787,oddball,2022.2.5,60.02851349547347,
5,,,,,0,0,0,1,5,0,5,0,17,0,17,0,,,,,,,,,,,,,,,,,683.3221656999085,683.9216858998407,683.9216858998407,684.5211059998255,684.5211059998255,0.6153295999392867,686.5362133998424,2.6304442000109702,None,1,increament,0.6,15,standard,None,100,,,,,,,m,22,238,fr,r,0,raw,2023-04-26_09h45.12.787,oddball,2022.2.5,60.02851349547347,
5,,,,,0,0,0,1,5,0,5,0,18,0,18,0,,,,,,,,,,,,,,,,,686.5529231999535,687.2188842999749,687.2188842999749,688.1681704998482,688.1849143998697,0.965533200185746,690.1831417998765,2.9804907999932766,None,0,increament,0.96,18,oddball,j,160,,,,,,,m,22,238,fr,r,0,raw,2023-04-26_09h45.12.787,oddball,2022.2.5,60.02851349547347,
5,,,,,0,0,0,1,5,0,5,0,19,0,19,0,,,,,,,,,,,,,,,,,690.199832299957,690.7328153999988,690.7328153999988,691.33227909985,691.33227909985,0.6154813000466675,693.3472636998631,2.6304701999761164,None,1,increament,0.6,15,standard,None,100,,,,,,,m,22,238,fr,r,0,raw,2023-04-26_09h45.12.787,oddball,2022.2.5,60.02851349547347,
5,,,,,0,0,0,1,5,0,5,0,20,0,20,0,,,,,,,,,,,,,,,,,693.364053899888,694.0466616998892,694.0466616998892,694.6462648999877,694.6462648999877,0.6153317000716925,696.6612630998716,2.630335299996659,j,0,increament,0.6,15,standard,None,100,0.33295400021597743,,,,,,m,22,238,fr,r,0,raw,2023-04-26_09h45.12.787,oddball,2022.2.5,60.02851349547347,
5,,,,,0,0,0,1,5,0,5,0,21,0,21,0,,,,,,,,,,,,,,,,,696.6781139997765,697.3939589997754,697.3939589997754,697.9934150998015,697.9934150998015,0.6154102999716997,700.0083950997796,2.6303894000593573,None,1,increament,0.6,15,standard,None,100,,,,,,,m,22,238,fr,r,0,raw,2023-04-26_09h45.12.787,oddball,2022.2.5,60.02851349547347,
5,,,,,0,0,0,1,5,0,5,0,22,0,22,0,,,,,,,,,,,,,,,,,700.0250325999223,700.7078774999827,700.7078774999827,701.307361099869,701.307361099869,0.6152834999375045,703.3223984998185,2.6303212998900563,None,1,increament,0.6,15,standard,None,100,,,,,,,m,22,238,fr,r,0,raw,2023-04-26_09h45.12.787,oddball,2022.2.5,60.02851349547347,
5,,,,,0,0,0,1,5,0,5,0,23,0,23,0,,,,,,,,,,,,,,,,,703.3390711999964,703.8553953999653,703.8553953999653,704.6880355998874,704.7045020998921,0.8483663001097739,706.7030121998396,2.8633353000041097,j,1,increament,0.84,17,oddball,j,140,0.4829851002432406,,,,,,m,22,238,fr,r,0,raw,2023-04-26_09h45.12.787,oddball,2022.2.5,60.02851349547347,
5,,,,,0,0,0,1,5,0,5,0,24,0,24,0,,,,,,,,,,,,,,,,,706.7196794999763,707.3358392999507,707.3358392999507,707.93541679997,707.93541679997,0.6155189999844879,709.950342199998,2.6304303999058902,None,1,increament,0.6,15,standard,None,100,,,,,,,m,22,238,fr,r,0,raw,2023-04-26_09h45.12.787,oddball,2022.2.5,60.02851349547347,
5,,,,,0,0,0,1,5,0,5,0,25,0,25,0,,,,,,,,,,,,,,,,,709.9668983998708,710.7331974999979,710.7331974999979,711.3326629998628,711.3326629998628,0.6153504999820143,713.3474174998701,2.630109100136906,None,1,increament,0.6,15,standard,None,100,,,,,,,m,22,238,fr,r,0,raw,2023-04-26_09h45.12.787,oddball,2022.2.5,60.02851349547347,
5,,,,,0,0,0,1,5,0,5,0,26,0,26,0,,,,,,,,,,,,,,,,,713.3642676998861,713.9970025999937,713.9970025999937,714.5964546999894,714.5964546999894,0.6152941000182182,716.6112105997745,2.6299968999810517,None,1,increament,0.6,15,standard,None,100,,,,,,,m,22,238,fr,r,0,raw,2023-04-26_09h45.12.787,oddball,2022.2.5,60.02851349547347,
5,,,,,0,0,0,1,5,0,5,0,27,0,27,0,,,,,,,,,,,,,,,,,716.6280731000006,717.2112496998161,717.2112496998161,717.810514899902,717.810514899902,0.6152852000668645,719.8256210999098,2.630386000033468,None,1,increament,0.6,15,standard,None,100,,,,,,,m,22,238,fr,r,0,raw,2023-04-26_09h45.12.787,oddball,2022.2.5,60.02851349547347,
5,,,,,0,0,0,1,5,0,5,0,28,0,28,0,,,,,,,,,,,,,,,,,719.8420815998688,720.44168729987,720.44168729987,721.0410779998638,721.0410779998638,0.6150601000990719,723.0560393999331,2.630019900156185,None,1,increament,0.6,15,standard,None,100,,,,,,,m,22,238,fr,r,0,raw,2023-04-26_09h45.12.787,oddball,2022.2.5,60.02851349547347,
5,,,,,0,0,0,1,5,0,5,0,29,0,29,0,,,,,,,,,,,,,,,,,723.0731510999613,723.8056602999568,723.8056602999568,724.4050812998321,724.4050812998321,0.6151766001712531,726.4200998998713,2.630176000064239,None,1,increament,0.6,15,standard,None,100,,,,,,,m,22,238,fr,r,0,raw,2023-04-26_09h45.12.787,oddball,2022.2.5,60.02851349547347,
5,,,,,0,0,0,1,6,0,6,0,0,0,0,0,,,,,,,,,,,,,,,740.2586266999133,740.2586266999133,741.6577208999079,742.3404840999283,742.3404840999283,742.9398055998608,742.9398055998608,0.6154783999081701,744.9550234999042,2.6306967998389155,None,1,decreament,0.6,11,standard,None,100,,726.4368460997939,0.0007864998187869787,,,,m,22,238,fr,r,0,raw,2023-04-26_09h45.12.787,oddball,2022.2.5,60.02851349547347,
5,,,,,0,0,0,1,6,0,6,0,1,0,1,0,,,,,,,,,,,,,,,,,744.9715092999395,745.7543017999269,745.7543017999269,746.3537213997915,746.3537213997915,0.6152411000803113,748.3686474999413,2.6301689001265913,None,1,decreament,0.6,11,standard,None,100,,,,,,,m,22,238,fr,r,0,raw,2023-04-26_09h45.12.787,oddball,2022.2.5,60.02851349547347,
5,,,,,0,0,0,1,6,0,6,0,2,0,2,0,,,,,,,,,,,,,,,,,748.3854152997956,749.0182890999131,749.0182890999131,749.6178546999581,749.6178546999581,0.5990221998654306,751.6327641999815,2.613866399973631,None,1,decreament,0.6,11,standard,None,100,,,,,,,m,22,238,fr,r,0,raw,2023-04-26_09h45.12.787,oddball,2022.2.5,60.02851349547347,
5,,,,,0,0,0,1,6,0,6,0,3,0,3,0,,,,,,,,,,,,,,,,,751.6327641999815,752.2154721999541,752.2154721999541,752.8150977999903,752.8150977999903,0.6153218001127243,754.8300099999178,2.6302481000311673,None,1,decreament,0.6,11,standard,None,100,,,,,,,m,22,238,fr,r,0,raw,2023-04-26_09h45.12.787,oddball,2022.2.5,60.02851349547347,
5,,,,,0,0,0,1,6,0,6,0,4,0,4,0,,,,,,,,,,,,,,,,,754.8467272999696,755.4128687998746,755.4128687998746,755.9958524999674,756.0125287999399,0.5990565998945385,758.010957499966,2.614149499917403,None,1,decreament,0.6,11,standard,None,100,,,,,,,m,22,238,fr,r,0,raw,2023-04-26_09h45.12.787,oddball,2022.2.5,60.02851349547347,
5,,,,,0,0,0,1,6,0,6,0,5,0,5,0,,,,,,,,,,,,,,,,,758.0276766999159,758.5942383999936,758.5942383999936,758.82709099981,758.8434089999646,0.2492662000004202,760.8419065999333,2.264066900126636,j,1,decreament,0.24,12,oddball,j,40,0.7449338003061712,,,,,,m,22,238,fr,r,0,raw,2023-04-26_09h45.12.787,oddball,2022.2.5,60.02851349547347,
5,,,,,0,0,0,1,6,0,6,0,6,0,6,0,,,,,,,,,,,,,,,,,760.8586192999501,761.407886199886,761.407886199886,762.0075206998736,762.0075206998736,0.6153721997980028,764.0225457998458,2.630371799925342,None,1,decreament,0.6,11,standard,None,100,,,,,,,m,22,238,fr,r,0,raw,2023-04-26_09h45.12.787,oddball,2022.2.5,60.02851349547347,
5,,,,,0,0,0,1,6,0,6,0,7,0,7,0,,,,,,,,,,,,,,,,,764.0392936998978,764.6554985998664,764.6554985998664,765.2548590998631,765.2548590998631,0.615379499970004,767.2698865998536,2.630394399864599,None,1,decreament,0.6,11,standard,None,100,,,,,,,m,22,238,fr,r,0,raw,2023-04-26_09h45.12.787,oddball,2022.2.5,60.02851349547347,
5,,,,,0,0,0,1,6,0,6,0,8,0,8,0,,,,,,,,,,,,,,,,,767.2864877998363,767.8027713999618,767.8027713999618,768.4022331999149,768.4022331999149,0.615179399959743,770.4174861998763,2.6304382998496294,None,1,decreament,0.6,11,standard,None,100,,,,,,,m,22,238,fr,r,0,raw,2023-04-26_09h45.12.787,oddball,2022.2.5,60.02851349547347,
5,,,,,0,0,0,1,6,0,6,0,9,0,9,0,,,,,,,,,,,,,,,,,770.4339773999527,771.150053099962,771.150053099962,771.7495097999927,771.7495097999927,0.6153246001340449,773.764522299869,2.63032740005292,None,1,decreament,0.6,11,standard,None,100,,,,,,,m,22,238,fr,r,0,raw,2023-04-26_09h45.12.787,oddball,2022.2.5,60.02851349547347,
5,,,,,0,0,0,1,6,0,6,0,10,0,10,0,,,,,,,,,,,,,,,,,773.7813206999563,774.3141731999349,774.3141731999349,774.897083299933,774.9135248998646,0.5993320001289248,776.9119205998722,2.6141473001334816,None,1,decreament,0.6,11,standard,None,100,,,,,,,m,22,238,fr,r,0,raw,2023-04-26_09h45.12.787,oddball,2022.2.5,60.02851349547347,
5,,,,,0,0,0,1,6,0,6,0,11,0,11,0,,,,,,,,,,,,,,,,,776.9286493998952,777.5115286998916,777.5115286998916,778.1109190999996,778.1109190999996,0.5990477001760155,780.1259970997926,2.613691500155255,None,1,decreament,0.6,11,standard,None,100,,,,,,,m,22,238,fr,r,0,raw,2023-04-26_09h45.12.787,oddball,2022.2.5,60.02851349547347,
5,,,,,0,0,0,1,6,0,6,0,12,0,12,0,,,,,,,,,,,,,,,,,780.1259970997926,780.8086787997745,780.8086787997745,781.2750693999697,781.2916873998474,0.48229399998672307,783.2901229998097,2.4973493001889437,None,0,decreament,0.48,14,oddball,j,80,,,,,,,m,22,238,fr,r,0,raw,2023-04-26_09h45.12.787,oddball,2022.2.5,60.02851349547347,
5,,,,,0,0,0,1,6,0,6,0,13,0,13,0,,,,,,,,,,,,,,,,,783.3066307997797,783.9894058997743,783.9894058997743,784.5890120998956,784.5890120998956,0.6155130998231471,786.6039941997733,2.630493699805811,None,1,decreament,0.6,11,standard,None,100,,,,,,,m,22,238,fr,r,0,raw,2023-04-26_09h45.12.787,oddball,2022.2.5,60.02851349547347,
5,,,,,0,0,0,1,6,0,6,0,14,0,14,0,,,,,,,,,,,,,,,,,786.6207048997749,787.4365232998971,787.4365232998971,788.0362106999382,788.0362106999382,0.5990939999464899,790.0512493997812,2.6141514000482857,None,1,decreament,0.6,11,standard,None,100,,,,,,,m,22,238,fr,r,0,raw,2023-04-26_09h45.12.787,oddball,2022.2.5,60.02851349547347,
5,,,,,0,0,0,1,6,0,6,0,15,0,15,0,,,,,,,,,,,,,,,,,790.0512493997812,790.6675126999617,790.6675126999617,791.2668970997911,791.2668970997911,0.6153454000595957,793.2819105999079,2.630361600080505,None,1,decreament,0.6,11,standard,None,100,,,,,,,m,22,238,fr,r,0,raw,2023-04-26_09h45.12.787,oddball,2022.2.5,60.02851349547347,
5,,,,,0,0,0,1,6,0,6,0,16,0,16,0,,,,,,,,,,,,,,,,,793.2985090999864,793.8814706997946,793.8814706997946,794.2311705998145,794.2476897998713,0.3654738001059741,796.246037799865,2.3803344001062214,j,1,decreament,0.36,13,oddball,j,60,0.8894634002353996,,,,,,m,22,238,fr,r,0,raw,2023-04-26_09h45.12.787,oddball,2022.2.5,60.02851349547347,
5,,,,,0,0,0,1,6,0,6,0,17,0,17,0,,,,,,,,,,,,,,,,,796.2626574998721,796.9788484999444,796.9788484999444,797.5783194999676,797.5783194999676,0.6153951000887901,799.5932806998026,2.6303572000470012,None,1,decreament,0.6,11,standard,None,100,,,,,,,m,22,238,fr,r,0,raw,2023-04-26_09h45.12.787,oddball,2022.2.5,60.02851349547347,
5,,,,,0,0,0,1,6,0,6,0,18,0,18,0,,,,,,,,,,,,,,,,,799.6100151999854,800.2593937998172,800.2593937998172,800.858941799961,800.858941799961,0.615565299987793,802.8739516998176,2.63057789998129,None,1,decreament,0.6,11,standard,None,100,,,,,,,m,22,238,fr,r,0,raw,2023-04-26_09h45.12.787,oddball,2022.2.5,60.02851349547347,
5,,,,,0,0,0,1,6,0,6,0,19,0,19,0,,,,,,,,,,,,,,,,,802.8906496998388,803.4235859999899,803.4235859999899,804.0230937998276,804.0230937998276,0.6149192999582738,806.0381930998992,2.6300301998853683,None,1,decreament,0.6,11,standard,None,100,,,,,,,m,22,238,fr,r,0,raw,2023-04-26_09h45.12.787,oddball,2022.2.5,60.02851349547347,
5,,,,,0,0,0,1,6,0,6,0,20,0,20,0,,,,,,,,,,,,,,,,,806.0549128998537,806.7374601999763,806.7374601999763,807.3370604999363,807.3370604999363,0.6155693000182509,809.3519496999215,2.6304474999196827,None,1,decreament,0.6,11,standard,None,100,,,,,,,m,22,238,fr,r,0,raw,2023-04-26_09h45.12.787,oddball,2022.2.5,60.02851349547347,
5,,,,,0,0,0,1,6,0,6,0,21,0,21,0,,,,,,,,,,,,,,,,,809.3687569999602,810.0847239999566,810.0847239999566,810.6842998999637,810.6842998999637,0.6156200999394059,812.6993408999406,2.630662600044161,None,1,decreament,0.6,11,standard,None,100,,,,,,,m,22,238,fr,r,0,raw,2023-04-26_09h45.12.787,oddball,2022.2.5,60.02851349547347,
5,,,,,0,0,0,1,6,0,6,0,22,0,22,0,,,,,,,,,,,,,,,,,812.7160103998613,813.4653225999791,813.4653225999791,814.065044199815,814.065044199815,0.5991911999881268,816.0798476999626,2.6138367000967264,None,1,decreament,0.6,11,standard,None,100,,,,,,,m,22,238,fr,r,0,raw,2023-04-26_09h45.12.787,oddball,2022.2.5,60.02851349547347,
5,,,,,0,0,0,1,6,0,6,0,23,0,23,0,,,,,,,,,,,,,,,,,816.0798476999626,816.8291884998325,816.8291884998325,817.4120499999262,817.4286615999881,0.5993431000970304,819.4270962998271,2.6143908998928964,None,1,decreament,0.6,11,standard,None,100,,,,,,,m,22,238,fr,r,0,raw,2023-04-26_09h45.12.787,oddball,2022.2.5,60.02851349547347,
5,,,,,0,0,0,1,6,0,6,0,24,0,24,0,,,,,,,,,,,,,,,,,819.443876599893,820.17637679982,820.17637679982,820.7759246998467,820.7759246998467,0.6149558001197875,822.7910339999944,2.63005860010162,None,1,decreament,0.6,11,standard,None,100,,,,,,,m,22,238,fr,r,0,raw,2023-04-26_09h45.12.787,oddball,2022.2.5,60.02851349547347,
5,,,,,0,0,0,1,6,0,6,0,25,0,25,0,,,,,,,,,,,,,,,,,822.8074718997814,823.5736679998226,823.5736679998226,824.1735536998603,824.1735536998603,0.615773499943316,826.1883032999467,2.6305631001014262,None,1,decreament,0.6,11,standard,None,100,,,,,,,m,22,238,fr,r,0,raw,2023-04-26_09h45.12.787,oddball,2022.2.5,60.02851349547347,
5,,,,,0,0,0,1,6,0,6,0,26,0,26,0,,,,,,,,,,,,,,,,,826.204779899912,826.737835199805,826.737835199805,827.3372743998189,827.3372743998189,0.6155586999375373,829.352302499814,2.6305681001394987,None,1,decreament,0.6,11,standard,None,100,,,,,,,m,22,238,fr,r,0,raw,2023-04-26_09h45.12.787,oddball,2022.2.5,60.02851349547347,
5,,,,,0,0,0,1,6,0,6,0,27,0,27,0,,,,,,,,,,,,,,,,,829.3688387998845,830.0015218998305,830.0015218998305,830.6012818999588,830.6012818999588,0.5990428000222892,832.6162731999066,2.6135382999200374,j,0,decreament,0.6,11,standard,None,100,0.4835135000757873,,,,,,m,22,238,fr,r,0,raw,2023-04-26_09h45.12.787,oddball,2022.2.5,60.02851349547347,
5,,,,,0,0,0,1,6,0,6,0,28,0,28,0,,,,,,,,,,,,,,,,,832.6162731999066,833.2990769997705,833.2990769997705,833.898493199842,833.898493199842,0.6149291000328958,835.9135280998889,2.6299688001163304,None,1,decreament,0.6,11,standard,None,100,,,,,,,m,22,238,fr,r,0,raw,2023-04-26_09h45.12.787,oddball,2022.2.5,60.02851349547347,
5,,,,,0,0,0,1,6,0,6,0,29,0,29,0,,,,,,,,,,,,,,,,,835.930151599925,836.5799534998368,836.5799534998368,837.1791246999055,837.1791246999055,0.6152058001607656,839.1942029998172,2.6302995001897216,None,1,decreament,0.6,11,standard,None,100,,,,,,,m,22,238,fr,r,0,raw,2023-04-26_09h45.12.787,oddball,2022.2.5,60.02851349547347,
5,,,,,0,0,0,1,7,0,7,0,0,0,0,0,,,,,,,,,,,,,,,841.342313000001,841.342313000001,842.5913055997808,843.3575057999697,843.3575057999697,843.9570800999645,843.9570800999645,0.5990978998597711,845.9718871999066,2.6138790999539196,None,1,increament,0.6,15,standard,None,100,,839.2108367998153,0.0010882997885346413,,,,m,22,238,fr,r,0,raw,2023-04-26_09h45.12.787,oddball,2022.2.5,60.02851349547347,
5,,,,,0,0,0,1,7,0,7,0,1,0,1,0,,,,,,,,,,,,,,,,,845.9718871999066,846.6380158998072,846.6380158998072,847.237598199863,847.237598199863,0.6154343001544476,849.2525696998928,2.630424200091511,None,1,increament,0.6,15,standard,None,100,,,,,,,m,22,238,fr,r,0,raw,2023-04-26_09h45.12.787,oddball,2022.2.5,60.02851349547347,
5,,,,,0,0,0,1,7,0,7,0,2,0,2,0,,,,,,,,,,,,,,,,,849.2692782999948,849.8187841998879,849.8187841998879,850.418231099844,850.418231099844,0.6152935000136495,852.4333015999291,2.630371700040996,None,1,increament,0.6,15,standard,None,100,,,,,,,m,22,238,fr,r,0,raw,2023-04-26_09h45.12.787,oddball,2022.2.5,60.02851349547347,
5,,,,,0,0,0,1,7,0,7,0,3,0,3,0,,,,,,,,,,,,,,,,,852.4500523998868,853.0493747999426,853.0493747999426,853.6489882997703,853.6489882997703,0.6156136998906732,855.6640852999408,2.6307065000291914,None,1,increament,0.6,15,standard,None,100,,,,,,,m,22,238,fr,r,0,raw,2023-04-26_09h45.12.787,oddball,2022.2.5,60.02851349547347,
5,,,,,0,0,0,1,7,0,7,0,4,0,4,0,,,,,,,,,,,,,,,,,855.6806105999276,856.3634637999348,856.3634637999348,856.9629959999584,856.9629959999584,0.6156193998176605,858.9777921999339,2.6304051999468356,None,1,increament,0.6,15,standard,None,100,,,,,,,m,22,238,fr,r,0,raw,2023-04-26_09h45.12.787,oddball,2022.2.5,60.02851349547347,
5,,,,,0,0,0,1,7,0,7,0,5,0,5,0,,,,,,,,,,,,,,,,,858.99445499992,859.5775165997911,859.5775165997911,860.1768396999687,860.1768396999687,0.6152635000180453,862.1919489998836,2.630371799925342,None,1,increament,0.6,15,standard,None,100,,,,,,,m,22,238,fr,r,0,raw,2023-04-26_09h45.12.787,oddball,2022.2.5,60.02851349547347,
5,,,,,0,0,0,1,7,0,7,0,6,0,6,0,,,,,,,,,,,,,,,,,862.2086247999687,862.8913703998551,862.8913703998551,863.4909904999658,863.4909904999658,0.6157283999491483,865.5059236998204,2.6306497999466956,None,1,increament,0.6,15,standard,None,100,,,,,,,m,22,238,fr,r,0,raw,2023-04-26_09h45.12.787,oddball,2022.2.5,60.02851349547347,
5,,,,,0,0,0,1,7,0,7,0,7,0,7,0,,,,,,,,,,,,,,,,,865.5224868999794,866.2717861998826,866.2717861998826,866.8715397999622,866.8715397999622,0.6154545999597758,868.8864437998272,2.6303552000317723,None,1,increament,0.6,15,standard,None,100,,,,,,,m,22,238,fr,r,0,raw,2023-04-26_09h45.12.787,oddball,2022.2.5,60.02851349547347,
5,,,,,0,0,0,1,7,0,7,0,8,0,8,0,,,,,,,,,,,,,,,,,868.9030911999289,869.7356689998414,869.7356689998414,870.3354174999986,870.3354174999986,0.6157515000086278,872.3502296998631,2.6305573999416083,None,1,increament,0.6,15,standard,None,100,,,,,,,m,22,238,fr,r,0,raw,2023-04-26_09h45.12.787,oddball,2022.2.5,60.02851349547347,
5,,,,,0,0,0,1,7,0,7,0,9,0,9,0,,,,,,,,,,,,,,,,,872.366943199886,873.0497257998213,873.0497257998213,873.6492284999695,873.6492284999695,0.6154461000114679,875.6641532999929,2.6303637002129108,None,1,increament,0.6,15,standard,None,100,,,,,,,m,22,238,fr,r,0,raw,2023-04-26_09h45.12.787,oddball,2022.2.5,60.02851349547347,
5,,,,,0,0,0,1,7,0,7,0,10,0,10,0,,,,,,,,,,,,,,,,,875.6808567999396,876.3302595999558,876.3302595999558,876.9300863998942,876.9300863998942,0.6157157998532057,878.9450399999041,2.6306604999117553,None,1,increament,0.6,15,standard,None,100,,,,,,,m,22,238,fr,r,0,raw,2023-04-26_09h45.12.787,oddball,2022.2.5,60.02851349547347,
5,,,,,0,0,0,1,7,0,7,0,11,0,11,0,,,,,,,,,,,,,,,,,878.9614198999479,879.5443898998201,879.5443898998201,880.4936064998619,880.5102775997948,0.965127999894321,882.5086273998022,2.9801294000353664,j,1,increament,0.96,18,oddball,j,160,0.92499990016222,,,,,,m,22,238,fr,r,0,raw,2023-04-26_09h45.12.787,oddball,2022.2.5,60.02851349547347,
5,,,,,0,0,0,1,7,0,7,0,12,0,12,0,,,,,,,,,,,,,,,,,882.525252699852,883.0748718997929,883.0748718997929,883.6743455999531,883.6743455999531,0.6155845001339912,885.6894744997844,2.6307125999592245,None,1,increament,0.6,15,standard,None,100,,,,,,,m,22,238,fr,r,0,raw,2023-04-26_09h45.12.787,oddball,2022.2.5,60.02851349547347,
5,,,,,0,0,0,1,7,0,7,0,13,0,13,0,,,,,,,,,,,,,,,,,885.7061542998999,886.4387191999704,886.4387191999704,887.0382753999438,887.0382753999438,0.6152895998675376,889.0532222997863,2.630230799783021,None,1,increament,0.6,15,standard,None,100,,,,,,,m,22,238,fr,r,0,raw,2023-04-26_09h45.12.787,oddball,2022.2.5,60.02851349547347,
5,,,,,0,0,0,1,7,0,7,0,14,0,14,0,,,,,,,,,,,,,,,,,889.0699954999145,889.6194687997922,889.6194687997922,890.2188942998182,890.2188942998182,0.6153875000309199,892.2340643999632,2.6305511000100523,None,1,increament,0.6,15,standard,None,100,,,,,,,m,22,238,fr,r,0,raw,2023-04-26_09h45.12.787,oddball,2022.2.5,60.02851349547347,
5,,,,,0,0,0,1,7,0,7,0,15,0,15,0,,,,,,,,,,,,,,,,,892.2505129999481,892.8000134998001,892.8000134998001,893.3999464998487,893.3999464998487,0.6157378000207245,895.414662799798,2.630443099886179,None,1,increament,0.6,15,standard,None,100,,,,,,,m,22,238,fr,r,0,raw,2023-04-26_09h45.12.787,oddball,2022.2.5,60.02851349547347,
5,,,,,0,0,0,1,7,0,7,0,16,0,16,0,,,,,,,,,,,,,,,,,895.4313424997963,896.2971410998143,896.2971410998143,896.8968032998964,896.8968032998964,0.615490699885413,898.9118196999189,2.630507000023499,None,1,increament,0.6,15,standard,None,100,,,,,,,m,22,238,fr,r,0,raw,2023-04-26_09h45.12.787,oddball,2022.2.5,60.02851349547347,
5,,,,,0,0,0,1,7,0,7,0,17,0,17,0,,,,,,,,,,,,,,,,,898.9287315998226,899.74452749989,899.74452749989,900.3439457998611,900.3439457998611,0.6152665999252349,902.3589006999973,2.630214700009674,None,1,increament,0.6,15,standard,None,100,,,,,,,m,22,238,fr,r,0,raw,2023-04-26_09h45.12.787,oddball,2022.2.5,60.02851349547347,
5,,,,,0,0,0,1,7,0,7,0,18,0,18,0,,,,,,,,,,,,,,,,,902.375685099978,902.9917850999627,902.9917850999627,903.8245903998613,903.840948099969,0.8487511998973787,905.8392810998484,2.8634329999331385,j,1,increament,0.84,17,oddball,j,140,0.3888762001879513,,,,,,m,22,238,fr,r,0,raw,2023-04-26_09h45.12.787,oddball,2022.2.5,60.02851349547347,
5,,,,,0,0,0,1,7,0,7,0,19,0,19,0,,,,,,,,,,,,,,,,,905.8560704998672,906.7721966998652,906.7721966998652,907.3715389999561,907.3715389999561,0.6152486000210047,909.386521599954,2.630228800000623,None,1,increament,0.6,15,standard,None,100,,,,,,,m,22,238,fr,r,0,raw,2023-04-26_09h45.12.787,oddball,2022.2.5,60.02851349547347,
5,,,,,0,0,0,1,7,0,7,0,20,0,20,0,,,,,,,,,,,,,,,,,909.4031467000023,909.9528163999785,909.9528163999785,910.5522260998841,910.5522260998841,0.615324700018391,912.5673474997748,2.630447000032291,None,1,increament,0.6,15,standard,None,100,,,,,,,m,22,238,fr,r,0,raw,2023-04-26_09h45.12.787,oddball,2022.2.5,60.02851349547347,
5,,,,,0,0,0,1,7,0,7,0,21,0,21,0,,,,,,,,,,,,,,,,,912.58393289987,913.3665459998883,913.3665459998883,913.9494603998028,913.966224399861,0.5990589999128133,915.9646395999007,2.6142346998676658,None,1,increament,0.6,15,standard,None,100,,,,,,,m,22,238,fr,r,0,raw,2023-04-26_09h45.12.787,oddball,2022.2.5,60.02851349547347,
5,,,,,0,0,0,1,7,0,7,0,22,0,22,0,,,,,,,,,,,,,,,,,915.9814578997903,916.5807056999765,916.5807056999765,917.180269099772,917.180269099772,0.6156451001297683,919.1954587998334,2.630815500160679,None,1,increament,0.6,15,standard,None,100,,,,,,,m,22,238,fr,r,0,raw,2023-04-26_09h45.12.787,oddball,2022.2.5,60.02851349547347,
5,,,,,0,0,0,1,7,0,7,0,23,0,23,0,,,,,,,,,,,,,,,,,919.212029799819,919.9278363999911,919.9278363999911,920.5274717998691,920.5274717998691,0.5991571000777185,922.5422900998965,2.613993000006303,None,1,increament,0.6,15,standard,None,100,,,,,,,m,22,238,fr,r,0,raw,2023-04-26_09h45.12.787,oddball,2022.2.5,60.02851349547347,
5,,,,,0,0,0,1,7,0,7,0,24,0,24,0,,,,,,,,,,,,,,,,,922.5422900998965,923.1918165998068,923.1918165998068,923.7912680997979,923.7912680997979,0.6153386998921633,925.8062829999253,2.6303534999024123,None,1,increament,0.6,15,standard,None,100,,,,,,,m,22,238,fr,r,0,raw,2023-04-26_09h45.12.787,oddball,2022.2.5,60.02851349547347,
5,,,,,0,0,0,1,7,0,7,0,25,0,25,0,,,,,,,,,,,,,,,,,925.8232565999497,926.5058268997818,926.5058268997818,927.1053854997735,927.1053854997735,0.6153837000019848,929.1204433999956,2.630444400012493,None,1,increament,0.6,15,standard,None,100,,,,,,,m,22,238,fr,r,0,raw,2023-04-26_09h45.12.787,oddball,2022.2.5,60.02851349547347,
5,,,,,0,0,0,1,7,0,7,0,26,0,26,0,,,,,,,,,,,,,,,,,929.1371847998817,929.8363092998043,929.8363092998043,930.4359457998071,930.4359457998071,0.6154616998974234,932.451086099958,2.6304804999381304,None,1,increament,0.6,15,standard,None,100,,,,,,,m,22,238,fr,r,0,raw,2023-04-26_09h45.12.787,oddball,2022.2.5,60.02851349547347,
5,,,,,0,0,0,1,7,0,7,0,27,0,27,0,,,,,,,,,,,,,,,,,932.4675345998257,933.1170578999445,933.1170578999445,933.7162945999298,933.7162945999298,0.6147226002067327,935.7316363998689,2.6300640001427382,None,1,increament,0.6,15,standard,None,100,,,,,,,m,22,238,fr,r,0,raw,2023-04-26_09h45.12.787,oddball,2022.2.5,60.02851349547347,
5,,,,,0,0,0,1,7,0,7,0,28,0,28,0,,,,,,,,,,,,,,,,,935.7480844999664,936.4479281997774,936.4479281997774,937.1636739999522,937.1803803998046,0.7318106000311673,939.1789780999534,2.7471094999928027,None,0,increament,0.72,16,oddball,j,120,,,,,,,m,22,238,fr,r,0,raw,2023-04-26_09h45.12.787,oddball,2022.2.5,60.02851349547347,
5,,,,,0,0,0,1,7,0,7,0,29,0,29,0,,,,,,,,,,,,,,,,,939.1957788998261,939.8454831999261,939.8454831999261,940.4443144998513,940.4608649997972,0.5990448999218643,942.4593846998177,2.6145060998387635,None,1,increament,0.6,15,standard,None,100,,,,,,,m,22,238,fr,r,0,raw,2023-04-26_09h45.12.787,oddball,2022.2.5,60.02851349547347,
5,,,,,0,0,0,1,8,0,8,0,0,0,0,0,,,,,,,,,,,,,,,950.3694899999537,950.3694899999537,955.1324623997789,955.8483892998192,955.8483892998192,956.4480801997706,956.4480801997706,0.6157031999900937,958.462751199957,2.630347599973902,None,1,decreament,0.6,11,standard,None,100,,942.4593846998177,0.0006200000643730164,,,,m,22,238,fr,r,0,raw,2023-04-26_09h45.12.787,oddball,2022.2.5,60.02851349547347,
5,,,,,0,0,0,1,8,0,8,0,1,0,1,0,,,,,,,,,,,,,,,,,958.4793367998209,959.0457147997804,959.0457147997804,959.6450917997863,959.6450917997863,0.6153957000933588,961.6603858999442,2.630686200223863,None,1,decreament,0.6,11,standard,None,100,,,,,,,m,22,238,fr,r,0,raw,2023-04-26_09h45.12.787,oddball,2022.2.5,60.02851349547347,
5,,,,,0,0,0,1,8,0,8,0,2,0,2,0,,,,,,,,,,,,,,,,,961.6769290999509,962.2266631999519,962.2266631999519,962.8262756997719,962.8262756997719,0.6159099999349564,964.840893499786,2.630511699942872,None,1,decreament,0.6,11,standard,None,100,,,,,,,m,22,238,fr,r,0,raw,2023-04-26_09h45.12.787,oddball,2022.2.5,60.02851349547347,
5,,,,,0,0,0,1,8,0,8,0,3,0,3,0,,,,,,,,,,,,,,,,,964.8581334999762,965.6238245998975,965.6238245998975,966.2067740999628,966.2231852998957,0.5991353001445532,968.2216515999753,2.6140122001525015,None,1,decreament,0.6,11,standard,None,100,,,,,,,m,22,238,fr,r,0,raw,2023-04-26_09h45.12.787,oddball,2022.2.5,60.02851349547347,
5,,,,,0,0,0,1,8,0,8,0,4,0,4,0,,,,,,,,,,,,,,,,,968.2381690999027,968.7710714999121,968.7710714999121,969.3705244997982,969.3705244997982,0.6147219999693334,971.3855397999287,2.6297359000891447,None,1,decreament,0.6,11,standard,None,100,,,,,,,m,22,238,fr,r,0,raw,2023-04-26_09h45.12.787,oddball,2022.2.5,60.02851349547347,
5,,,,,0,0,0,1,8,0,8,0,5,0,5,0,,,,,,,,,,,,,,,,,971.4022244999651,972.0349675999023,972.0349675999023,972.6345210999716,972.6345210999716,0.6153639000840485,974.64951379993,2.6303568999283016,None,1,decreament,0.6,11,standard,None,100,,,,,,,m,22,238,fr,r,0,raw,2023-04-26_09h45.12.787,oddball,2022.2.5,60.02851349547347,
5,,,,,0,0,0,1,8,0,8,0,6,0,6,0,,,,,,,,,,,,,,,,,974.6661400999874,975.465616799891,975.465616799891,976.0654181998689,976.0654181998689,0.6157533000223339,978.0800543997902,2.6303715999238193,None,1,decreament,0.6,11,standard,None,100,,,,,,,m,22,238,fr,r,0,raw,2023-04-26_09h45.12.787,oddball,2022.2.5,60.02851349547347,
5,,,,,0,0,0,1,8,0,8,0,7,0,7,0,,,,,,,,,,,,,,,,,978.0968805998564,978.7295035999268,978.7295035999268,979.3291523999069,979.3291523999069,0.615248000016436,981.3443560998421,2.6304481998085976,None,1,decreament,0.6,11,standard,None,100,,,,,,,m,22,238,fr,r,0,raw,2023-04-26_09h45.12.787,oddball,2022.2.5,60.02851349547347,
5,,,,,0,0,0,1,8,0,8,0,8,0,8,0,,,,,,,,,,,,,,,,,981.3607177999802,981.9938006999437,981.9938006999437,982.3433201999869,982.3601734999102,0.36598180001601577,984.3582328998018,2.380897599970922,j,1,decreament,0.36,13,oddball,j,60,0.5301072001457214,,,,,,m,22,238,fr,r,0,raw,2023-04-26_09h45.12.787,oddball,2022.2.5,60.02851349547347,
5,,,,,0,0,0,1,8,0,8,0,9,0,9,0,,,,,,,,,,,,,,,,,984.3751620999537,984.9409340999555,984.9409340999555,985.5405060998164,985.5405060998164,0.6156044998206198,987.5562492997851,2.6312716000247747,None,1,decreament,0.6,11,standard,None,100,,,,,,,m,22,238,fr,r,0,raw,2023-04-26_09h45.12.787,oddball,2022.2.5,60.02851349547347,
5,,,,,0,0,0,1,8,0,8,0,10,0,10,0,,,,,,,,,,,,,,,,,987.5722244998906,988.3884141999297,988.3884141999297,988.9881050998811,988.9881050998811,0.6155395000241697,991.0027989998925,2.6301996000111103,None,1,decreament,0.6,11,standard,None,100,,,,,,,m,22,238,fr,r,0,raw,2023-04-26_09h45.12.787,oddball,2022.2.5,60.02851349547347,
5,,,,,0,0,0,1,8,0,8,0,11,0,11,0,,,,,,,,,,,,,,,,,991.019427199848,991.6355613998603,991.6355613998603,992.2355141998269,992.2355141998269,0.6152737999800593,994.2505546999164,2.6303165999706835,None,1,decreament,0.6,11,standard,None,100,,,,,,,m,22,238,fr,r,0,raw,2023-04-26_09h45.12.787,oddball,2022.2.5,60.02851349547347,
5,,,,,0,0,0,1,8,0,8,0,12,0,12,0,,,,,,,,,,,,,,,,,994.2667977998499,994.8497018998023,994.8497018998023,995.4491405999288,995.4491405999288,0.6155612000729889,997.4640493998304,2.630456899991259,None,1,decreament,0.6,11,standard,None,100,,,,,,,m,22,238,fr,r,0,raw,2023-04-26_09h45.12.787,oddball,2022.2.5,60.02851349547347,
5,,,,,0,0,0,1,8,0,8,0,13,0,13,0,,,,,,,,,,,,,,,,,997.4808881999925,998.1802357998677,998.1802357998677,998.7798012997955,998.7798012997955,0.615728999953717,1000.794744499959,2.6306857999879867,None,1,decreament,0.6,11,standard,None,100,,,,,,,m,22,238,fr,r,0,raw,2023-04-26_09h45.12.787,oddball,2022.2.5,60.02851349547347,
5,,,,,0,0,0,1,8,0,8,0,14,0,14,0,,,,,,,,,,,,,,,,,1000.811401899904,1001.3942599999718,1001.3942599999718,1001.9939177997876,1001.9939177997876,0.6153138999361545,1004.009048699867,2.630452699959278,None,1,decreament,0.6,11,standard,None,100,,,,,,,m,22,238,fr,r,0,raw,2023-04-26_09h45.12.787,oddball,2022.2.5,60.02851349547347,
5,,,,,0,0,0,1,8,0,8,0,15,0,15,0,,,,,,,,,,,,,,,,,1004.0254943999462,1004.7079438997898,1004.7079438997898,1005.174406999955,1005.1910466998816,0.48224740009754896,1007.1895679999143,2.4974072000477463,None,0,decreament,0.48,14,oddball,j,80,,,,,,,m,22,238,fr,r,0,raw,2023-04-26_09h45.12.787,oddball,2022.2.5,60.02851349547347,
5,,,,,0,0,0,1,8,0,8,0,16,0,16,0,,,,,,,,,,,,,,,,,1007.2060789999086,1008.0056812998373,1008.0056812998373,1008.6052683999296,1008.6052683999296,0.6149504999630153,1010.6200072998181,2.6296884000767022,None,1,decreament,0.6,11,standard,None,100,,,,,,,m,22,238,fr,r,0,raw,2023-04-26_09h45.12.787,oddball,2022.2.5,60.02851349547347,
5,,,,,0,0,0,1,8,0,8,0,17,0,17,0,,,,,,,,,,,,,,,,,1010.6365514998324,1011.2864392998163,1011.2864392998163,1011.8858020999469,1011.8858020999469,0.6153714000247419,1013.9005937997717,2.6301527998875827,None,1,decreament,0.6,11,standard,None,100,,,,,,,m,22,238,fr,r,0,raw,2023-04-26_09h45.12.787,oddball,2022.2.5,60.02851349547347,
5,,,,,0,0,0,1,8,0,8,0,18,0,18,0,,,,,,,,,,,,,,,,,1013.9178881999105,1014.6667869999073,1014.6667869999073,1015.266124199843,1015.266124199843,0.615314899943769,1017.2813962998334,2.630584199912846,j,0,decreament,0.6,11,standard,None,100,1.2588482000865042,,,,,,m,22,238,fr,r,0,raw,2023-04-26_09h45.12.787,oddball,2022.2.5,60.02851349547347,
5,,,,,0,0,0,1,8,0,8,0,19,0,19,0,,,,,,,,,,,,,,,,,1017.2978125999216,1017.9474909999408,1017.9474909999408,1018.5472864999902,1018.5472864999902,0.599463100079447,1020.5619460998569,2.6138873000163585,None,1,decreament,0.6,11,standard,None,100,,,,,,,m,22,238,fr,r,0,raw,2023-04-26_09h45.12.787,oddball,2022.2.5,60.02851349547347,
5,,,,,0,0,0,1,8,0,8,0,20,0,20,0,,,,,,,,,,,,,,,,,1020.5619460998569,1021.2615384999663,1021.2615384999663,1021.8606781999115,1021.8606781999115,0.5991252001840621,1023.875807599863,2.6141192000359297,None,1,decreament,0.6,11,standard,None,100,,,,,,,m,22,238,fr,r,0,raw,2023-04-26_09h45.12.787,oddball,2022.2.5,60.02851349547347,
5,,,,,0,0,0,1,8,0,8,0,21,0,21,0,,,,,,,,,,,,,,,,,1023.875807599863,1024.5588554998394,1024.5588554998394,1025.1413959998172,1025.1584116998129,0.6159008999820799,1027.1568528998177,2.630622599972412,None,1,decreament,0.6,11,standard,None,100,,,,,,,m,22,238,fr,r,0,raw,2023-04-26_09h45.12.787,oddball,2022.2.5,60.02851349547347,
5,,,,,0,0,0,1,8,0,8,0,22,0,22,0,,,,,,,,,,,,,,,,,1027.1898626999464,1027.9557364999782,1027.9557364999782,1028.5553655999247,1028.5553655999247,0.5990468999370933,1030.5702412999235,2.613902200013399,None,1,decreament,0.6,11,standard,None,100,,,,,,,m,22,238,fr,r,0,raw,2023-04-26_09h45.12.787,oddball,2022.2.5,60.02851349547347,
5,,,,,0,0,0,1,8,0,8,0,23,0,23,0,,,,,,,,,,,,,,,,,1030.5702412999235,1031.1864951997995,1031.1864951997995,1031.7861370998435,1031.7861370998435,0.615278699900955,1033.8011108997744,2.630236499942839,None,1,decreament,0.6,11,standard,None,100,,,,,,,m,22,238,fr,r,0,raw,2023-04-26_09h45.12.787,oddball,2022.2.5,60.02851349547347,
5,,,,,0,0,0,1,8,0,8,0,24,0,24,0,,,,,,,,,,,,,,,,,1033.8180169998668,1034.5836850998458,1034.5836850998458,1034.8166829999536,1034.8333144998178,0.24878519983030856,1036.8319163999986,2.2640305999666452,j,1,decreament,0.24,12,oddball,j,40,0.4385827004443854,,,,,,m,22,238,fr,r,0,raw,2023-04-26_09h45.12.787,oddball,2022.2.5,60.02851349547347,
5,,,,,0,0,0,1,8,0,8,0,25,0,25,0,,,,,,,,,,,,,,,,,1036.8484471999109,1037.364927599905,1037.364927599905,1037.9641226998065,1037.9641226998065,0.6149031999520957,1039.9791621998884,2.6299527999944985,None,1,decreament,0.6,11,standard,None,100,,,,,,,m,22,238,fr,r,0,raw,2023-04-26_09h45.12.787,oddball,2022.2.5,60.02851349547347,
5,,,,,0,0,0,1,8,0,8,0,26,0,26,0,,,,,,,,,,,,,,,,,1039.995824499987,1040.5786774998996,1040.5786774998996,1041.1783024999313,1041.1783024999313,0.6151866000145674,1043.1934440999757,2.6303089999128133,None,1,decreament,0.6,11,standard,None,100,,,,,,,m,22,238,fr,r,0,raw,2023-04-26_09h45.12.787,oddball,2022.2.5,60.02851349547347,
5,,,,,0,0,0,1,8,0,8,0,27,0,27,0,,,,,,,,,,,,,,,,,1043.20995199983,1043.7763107998762,1043.7763107998762,1044.3756550999824,1044.3756550999824,0.6153851998969913,1046.3906566998921,2.63036400009878,None,1,decreament,0.6,11,standard,None,100,,,,,,,m,22,238,fr,r,0,raw,2023-04-26_09h45.12.787,oddball,2022.2.5,60.02851349547347,
5,,,,,0,0,0,1,8,0,8,0,28,0,28,0,,,,,,,,,,,,,,,,,1046.4076301997993,1046.9568799999543,1046.9568799999543,1047.5567023998592,1047.5567023998592,0.6159368997905403,1049.5716871998738,2.630879399832338,None,1,decreament,0.6,11,standard,None,100,,,,,,,m,22,238,fr,r,0,raw,2023-04-26_09h45.12.787,oddball,2022.2.5,60.02851349547347,
5,,,,,0,0,0,1,8,0,8,0,29,0,29,0,,,,,,,,,,,,,,,,,1049.5879680998623,1050.33750039991,1050.33750039991,1050.9205042999238,1050.9367944998667,0.5992544998880476,1052.9352828999981,2.6140101000200957,None,1,decreament,0.6,11,standard,None,100,,,,,,,m,22,238,fr,r,0,raw,2023-04-26_09h45.12.787,oddball,2022.2.5,60.02851349547347,
5,,,,,0,0,0,1,9,0,9,0,0,0,0,0,,,,,,,,,,,,,,,1059.2466109998059,1059.2466109998059,1062.7104579999577,1063.3768103998154,1063.3768103998154,1063.959632499842,1063.9762098998763,0.5990456999279559,1065.9745664999355,2.6139438999816775,None,1,increament,0.6,15,standard,None,100,,1052.9519030998927,0.0006977999582886696,,,,m,22,238,fr,r,0,raw,2023-04-26_09h45.12.787,oddball,2022.2.5,60.02851349547347,
5,,,,,0,0,0,1,9,0,9,0,1,0,1,0,,,,,,,,,,,,,,,,,1065.991335599916,1066.6572961998172,1066.6572961998172,1067.2568197997753,1067.2568197997753,0.6153406999073923,1069.271848499775,2.630357899935916,None,1,increament,0.6,15,standard,None,100,,,,,,,m,22,238,fr,r,0,raw,2023-04-26_09h45.12.787,oddball,2022.2.5,60.02851349547347,
5,,,,,0,0,0,1,9,0,9,0,2,0,2,0,,,,,,,,,,,,,,,,,1069.2886079999153,1069.9046301997732,1069.9046301997732,1070.5043160999194,1070.5043160999194,0.615466499933973,1072.5191927999258,2.630351699888706,None,1,increament,0.6,15,standard,None,100,,,,,,,m,22,238,fr,r,0,raw,2023-04-26_09h45.12.787,oddball,2022.2.5,60.02851349547347,
5,,,,,0,0,0,1,9,0,9,0,3,0,3,0,,,,,,,,,,,,,,,,,1072.5361943999305,1073.185424399795,1073.185424399795,1073.7850041999482,1073.7850041999482,0.6150003999937326,1075.8001934997737,2.6301768000703305,None,1,increament,0.6,15,standard,None,100,,,,,,,m,22,238,fr,r,0,raw,2023-04-26_09h45.12.787,oddball,2022.2.5,60.02851349547347,
5,,,,,0,0,0,1,9,0,9,0,4,0,4,0,,,,,,,,,,,,,,,,,1075.8164003998972,1076.4826308998745,1076.4826308998745,1077.0821902998723,1077.0821902998723,0.5993943999055773,1079.0970561997965,2.6140232998877764,None,1,increament,0.6,15,standard,None,100,,,,,,,m,22,238,fr,r,0,raw,2023-04-26_09h45.12.787,oddball,2022.2.5,60.02851349547347,
5,,,,,0,0,0,1,9,0,9,0,5,0,5,0,,,,,,,,,,,,,,,,,1079.0970561997965,1079.6634584998246,1079.6634584998246,1080.262878399808,1080.262878399808,0.5990697001107037,1082.277947399998,2.613821000093594,None,1,increament,0.6,15,standard,None,100,,,,,,,m,22,238,fr,r,0,raw,2023-04-26_09h45.12.787,oddball,2022.2.5,60.02851349547347,
5,,,,,0,0,0,1,9,0,9,0,6,0,6,0,,,,,,,,,,,,,,,,,1082.277947399998,1082.8775162999518,1082.8775162999518,1083.477017099969,1083.477017099969,0.6155880999285728,1085.4918715998065,2.6304355000611395,None,1,increament,0.6,15,standard,None,100,,,,,,,m,22,238,fr,r,0,raw,2023-04-26_09h45.12.787,oddball,2022.2.5,60.02851349547347,
5,,,,,0,0,0,1,9,0,9,0,7,0,7,0,,,,,,,,,,,,,,,,,1085.5085445998702,1086.0413581999019,1086.0413581999019,1086.6409310000017,1086.6409310000017,0.5990257998928428,1088.6560783998575,2.613957299850881,None,1,increament,0.6,15,standard,None,100,,,,,,,m,22,238,fr,r,0,raw,2023-04-26_09h45.12.787,oddball,2022.2.5,60.02851349547347,
5,,,,,0,0,0,1,9,0,9,0,8,0,8,0,,,,,,,,,,,,,,,,,1088.6560783998575,1089.2888114999514,1089.2888114999514,1089.8882827998605,1089.8882827998605,0.6151715000160038,1091.9032974999864,2.6301907999441028,None,1,increament,0.6,15,standard,None,100,,,,,,,m,22,238,fr,r,0,raw,2023-04-26_09h45.12.787,oddball,2022.2.5,60.02851349547347,
5,,,,,0,0,0,1,9,0,9,0,9,0,9,0,,,,,,,,,,,,,,,,,1091.9200019999407,1092.6026976997964,1092.6026976997964,1093.2019866998307,1093.2019866998307,0.6152162000071257,1095.2173361999448,2.630566499894485,None,1,increament,0.6,15,standard,None,100,,,,,,,m,22,238,fr,r,0,raw,2023-04-26_09h45.12.787,oddball,2022.2.5,60.02851349547347,
5,,,,,0,0,0,1,9,0,9,0,10,0,10,0,,,,,,,,,,,,,,,,,1095.2338103998918,1095.9667696999386,1095.9667696999386,1096.7992816998158,1096.8160787997767,0.8484130001161247,1098.8144618999213,2.86360720009543,j,1,increament,0.84,17,oddball,j,140,0.29599770018830895,,,,,,m,22,238,fr,r,0,raw,2023-04-26_09h45.12.787,oddball,2022.2.5,60.02851349547347,
5,,,,,0,0,0,1,9,0,9,0,11,0,11,0,,,,,,,,,,,,,,,,,1098.8314755999018,1099.3640693998896,1099.3640693998896,1099.9466392998584,1099.9635662999935,0.6155891001690179,1101.9621836999431,2.63032120000571,None,1,increament,0.6,15,standard,None,100,,,,,,,m,22,238,fr,r,0,raw,2023-04-26_09h45.12.787,oddball,2022.2.5,60.02851349547347,
5,,,,,0,0,0,1,9,0,9,0,12,0,12,0,,,,,,,,,,,,,,,,,1101.9950507998,1102.7943532997742,1102.7943532997742,1103.3939635998104,1103.3939635998104,0.6155195999890566,1105.4090156999882,2.6305466000922024,None,1,increament,0.6,15,standard,None,100,,,,,,,m,22,238,fr,r,0,raw,2023-04-26_09h45.12.787,oddball,2022.2.5,60.02851349547347,
5,,,,,0,0,0,1,9,0,9,0,13,0,13,0,,,,,,,,,,,,,,,,,1105.4255199998152,1106.091756499838,1106.091756499838,1106.6910534999333,1106.6910534999333,0.6155114998109639,1108.7061715999153,2.6306352999527007,None,1,increament,0.6,15,standard,None,100,,,,,,,m,22,238,fr,r,0,raw,2023-04-26_09h45.12.787,oddball,2022.2.5,60.02851349547347,
5,,,,,0,0,0,1,9,0,9,0,14,0,14,0,,,,,,,,,,,,,,,,,1108.7227367998566,1109.3890957999974,1109.3890957999974,1109.988479499938,1109.988479499938,0.5990194999612868,1112.003259099787,2.613508899929002,None,1,increament,0.6,15,standard,None,100,,,,,,,m,22,238,fr,r,0,raw,2023-04-26_09h45.12.787,oddball,2022.2.5,60.02851349547347,
5,,,,,0,0,0,1,9,0,9,0,15,0,15,0,,,,,,,,,,,,,,,,,1112.003259099787,1112.6363358998206,1112.6363358998206,1113.2356320999097,1113.2356320999097,0.6154145998880267,1115.2508909997996,2.6306656999513507,None,1,increament,0.6,15,standard,None,100,,,,,,,m,22,238,fr,r,0,raw,2023-04-26_09h45.12.787,oddball,2022.2.5,60.02851349547347,
5,,,,,0,0,0,1,9,0,9,0,16,0,16,0,,,,,,,,,,,,,,,,,1115.26726959995,1116.0004756997805,1116.0004756997805,1116.5996614999603,1116.5996614999603,0.5992179000750184,1118.614727199776,2.6138479001820087,None,1,increament,0.6,15,standard,None,100,,,,,,,m,22,238,fr,r,0,raw,2023-04-26_09h45.12.787,oddball,2022.2.5,60.02851349547347,
5,,,,,0,0,0,1,9,0,9,0,17,0,17,0,,,,,,,,,,,,,,,,,1118.614727199776,1119.264126199996,1119.264126199996,1120.2134665998165,1120.2299567998853,0.9653475999366492,1122.2284194999374,2.980312599800527,j,1,increament,0.96,18,oddball,j,160,0.3811860003042966,,,,,,m,22,238,fr,r,0,raw,2023-04-26_09h45.12.787,oddball,2022.2.5,60.02851349547347,
5,,,,,0,0,0,1,9,0,9,0,18,0,18,0,,,,,,,,,,,,,,,,,1122.2453017998487,1122.827775399899,1122.827775399899,1123.4273506999016,1123.4273506999016,0.6153366998769343,1125.4428885998204,2.630891399923712,None,1,increament,0.6,15,standard,None,100,,,,,,,m,22,238,fr,r,0,raw,2023-04-26_09h45.12.787,oddball,2022.2.5,60.02851349547347,
5,,,,,0,0,0,1,9,0,9,0,19,0,19,0,,,,,,,,,,,,,,,,,1125.4589595999569,1126.1918293999042,1126.1918293999042,1126.774658499984,1126.7914083998185,0.5991471998859197,1128.7896774997935,2.6141707999631763,None,1,increament,0.6,15,standard,None,100,,,,,,,m,22,238,fr,r,0,raw,2023-04-26_09h45.12.787,oddball,2022.2.5,60.02851349547347,
5,,,,,0,0,0,1,9,0,9,0,20,0,20,0,,,,,,,,,,,,,,,,,1128.806431699777,1129.4391564999241,1129.4391564999241,1130.038524699863,1130.038524699863,0.5990183998364955,1132.0538082998246,2.6140225999988616,None,1,increament,0.6,15,standard,None,100,,,,,,,m,22,238,fr,r,0,raw,2023-04-26_09h45.12.787,oddball,2022.2.5,60.02851349547347,
5,,,,,0,0,0,1,9,0,9,0,21,0,21,0,,,,,,,,,,,,,,,,,1132.0538082998246,1132.6531124999747,1132.6531124999747,1133.2527806998696,1133.2527806998696,0.6151898000389338,1135.2676741997711,2.6300842000637203,None,1,increament,0.6,15,standard,None,100,,,,,,,m,22,238,fr,r,0,raw,2023-04-26_09h45.12.787,oddball,2022.2.5,60.02851349547347,
5,,,,,0,0,0,1,9,0,9,0,22,0,22,0,,,,,,,,,,,,,,,,,1135.284396499861,1135.8339914998505,1135.8339914998505,1136.4334863999393,1136.4334863999393,0.615374700166285,1138.4484243998304,2.630294900154695,None,1,increament,0.6,15,standard,None,100,,,,,,,m,22,238,fr,r,0,raw,2023-04-26_09h45.12.787,oddball,2022.2.5,60.02851349547347,
5,,,,,0,0,0,1,9,0,9,0,23,0,23,0,,,,,,,,,,,,,,,,,1138.4649776997976,1139.097829699982,1139.097829699982,1139.6974872997962,1139.6974872997962,0.6156392998527735,1141.7125653999392,2.630719899898395,None,1,increament,0.6,15,standard,None,100,,,,,,,m,22,238,fr,r,0,raw,2023-04-26_09h45.12.787,oddball,2022.2.5,60.02851349547347,
5,,,,,0,0,0,1,9,0,9,0,24,0,24,0,,,,,,,,,,,,,,,,,1141.7290556998923,1142.3453135997988,1142.3453135997988,1142.9448489998467,1142.9448489998467,0.6156358998268843,1144.9596844997723,2.6304461997933686,None,1,increament,0.6,15,standard,None,100,,,,,,,m,22,238,fr,r,0,raw,2023-04-26_09h45.12.787,oddball,2022.2.5,60.02851349547347,
5,,,,,0,0,0,1,9,0,9,0,25,0,25,0,,,,,,,,,,,,,,,,,1144.9763287999667,1145.6425385999028,1145.6425385999028,1146.2418987997808,1146.2418987997808,0.615094400011003,1148.2570689998101,2.630273799877614,None,1,increament,0.6,15,standard,None,100,,,,,,,m,22,238,fr,r,0,raw,2023-04-26_09h45.12.787,oddball,2022.2.5,60.02851349547347,
5,,,,,0,0,0,1,9,0,9,0,26,0,26,0,,,,,,,,,,,,,,,,,1148.2737487999257,1149.0230407998897,1149.0230407998897,1149.6225689998828,1149.6225689998828,0.6155883001629263,1151.637656699866,2.630654600216076,None,1,increament,0.6,15,standard,None,100,,,,,,,m,22,238,fr,r,0,raw,2023-04-26_09h45.12.787,oddball,2022.2.5,60.02851349547347,
5,,,,,0,0,0,1,9,0,9,0,27,0,27,0,,,,,,,,,,,,,,,,,1151.6542570998427,1152.4201937997714,1152.4201937997714,1153.1363382998388,1153.1530718998984,0.7319231000728905,1155.1513943998143,2.746999900089577,j,1,increament,0.72,16,oddball,j,120,0.9502361002378166,,,,,,m,22,238,fr,r,0,raw,2023-04-26_09h45.12.787,oddball,2022.2.5,60.02851349547347,
5,,,,,0,0,0,1,9,0,9,0,28,0,28,0,,,,,,,,,,,,,,,,,1155.1679827999324,1155.7676391999703,1155.7676391999703,1156.3505999997724,1156.3671588997822,0.5994086000137031,1158.3655648999847,2.614337099948898,None,1,increament,0.6,15,standard,None,100,,,,,,,m,22,238,fr,r,0,raw,2023-04-26_09h45.12.787,oddball,2022.2.5,60.02851349547347,
5,,,,,0,0,0,1,9,0,9,0,29,0,29,0,,,,,,,,,,,,,,,,,1158.3820787000004,1159.098222099943,1159.098222099943,1159.6976693999022,1159.6976693999022,0.6154437998775393,1161.7132089999504,2.631010399898514,None,1,increament,0.6,15,standard,None,100,,,,,,,m,22,238,fr,r,0,raw,2023-04-26_09h45.12.787,oddball,2022.2.5,60.02851349547347,
10,,,,,0,1,1,2,0,0,0,0,0,0,0,0,,,,,,,,,,,,,,,1343.296816199785,1343.296816199785,1344.9122676998377,1345.478413199773,1345.478413199773,1346.0780817999039,1346.0780817999039,0.6156091000884771,1348.092931599822,2.630453099962324,None,1,decreament,0.6,21,standard,None,100,,1341.7480358998291,0.0008574000094085932,1161.7334197999444,1341.7480358998291,,m,22,238,fr,r,0,raw,2023-04-26_09h45.12.787,oddball,2022.2.5,60.02851349547347,
10,,,,,0,1,1,2,0,0,0,0,1,0,1,0,,,,,,,,,,,,,,,,,1348.109648999991,1348.6925048998091,1348.6925048998091,1349.291944899829,1349.291944899829,0.6155005998443812,1351.3070195999462,2.6305664000101388,None,1,decreament,0.6,21,standard,None,100,,,,,,,m,22,238,fr,r,0,raw,2023-04-26_09h45.12.787,oddball,2022.2.5,60.02851349547347,
