grating_freq,blocks_prac.thisRepN,blocks_prac.thisTrialN,blocks_prac.thisN,blocks_prac.thisIndex,blocks.thisRepN,blocks.thisTrialN,blocks.thisN,blocks.thisIndex,repeat_freq.thisRepN,repeat_freq.thisTrialN,repeat_freq.thisN,repeat_freq.thisIndex,trials.thisRepN,trials.thisTrialN,trials.thisN,trials.thisIndex,break_loop.thisRepN,break_loop.thisTrialN,break_loop.thisN,break_loop.thisIndex,rest_loop.thisRepN,rest_loop.thisTrialN,rest_loop.thisN,rest_loop.thisIndex,instruct_prac_text.started,instruct_prac_resp.started,b_instruct_text_2_.started,b_instruct_resp_2_.started,prac_done_text.started,prac_done_resp.started,instruct_text.started,instruct_resp.started,fixation.started,fixation.stopped,grating.started,blank.started,grating.stopped,resp.started,blank.stopped,resp.stopped,resp.keys,resp.corr,direction,duration,trigger,stim_type,corr_ans,scaling,resp.rt,rest_text.started,rest_resp.started,text_2.started,text_2.stopped,thx_txt.started,gender,age,participant,language,main_hand,nBlock_prac,file_suffix,date,expName,psychopyVersion,frameRate,
5,,,,,0,0,0,1,0,0,0,0,0,0,0,0,,,,,,,,,24.609979400000157,24.609979400000157,62.27307470000005,62.27307470000005,71.24918680000019,71.24918680000019,99.64812780000011,99.64812780000011,104.82144860000017,105.37096740000015,105.37096740000015,105.95389139999997,105.97042730000021,0.6155217000000448,107.96873770000002,2.630355900000268,None,1,increament,0.6,15,standard,None,100,,,,,,,f,28,240,fr,r,0,prac,2023-05-15_09h11.36.018,oddball,2022.2.5,60.04383199734296,
5,,,,,0,0,0,1,0,0,0,0,1,0,1,0,,,,,,,,,,,,,,,,,107.98559949999981,108.60179449999987,108.60179449999987,109.20120150000002,109.20120150000002,0.5990248000002794,111.21623259999978,2.6139924000003703,None,1,increament,0.6,15,standard,None,100,,,,,,,f,28,240,fr,r,0,prac,2023-05-15_09h11.36.018,oddball,2022.2.5,60.04383199734296,
5,,,,,0,0,0,1,0,0,0,0,2,0,2,0,,,,,,,,,,,,,,,,,111.21623259999978,111.93232089999992,111.93232089999992,112.53180299999985,112.53180299999985,0.6154555000002802,114.5467305000002,2.6303705000000264,None,1,increament,0.6,15,standard,None,100,,,,,,,f,28,240,fr,r,0,prac,2023-05-15_09h11.36.018,oddball,2022.2.5,60.04383199734296,
5,,,,,0,0,0,1,0,0,0,0,3,0,3,0,,,,,,,,,,,,,,,,,114.56330190000017,115.29618979999987,115.29618979999987,115.89551459999984,115.89551459999984,0.615304400000241,117.91051620000007,2.6302945000002182,None,1,increament,0.6,15,standard,None,100,,,,,,,f,28,240,fr,r,0,prac,2023-05-15_09h11.36.018,oddball,2022.2.5,60.04383199734296,
5,,,,,0,0,0,1,0,0,0,0,4,0,4,0,,,,,,,,,,,,,,,,,117.9273720000001,118.66003009999986,118.66003009999986,119.25940600000013,119.25940600000013,0.5990630000001147,121.27448529999992,2.6140158000002884,None,1,increament,0.6,15,standard,None,100,,,,,,,f,28,240,fr,r,0,prac,2023-05-15_09h11.36.018,oddball,2022.2.5,60.04383199734296,
5,,,,,0,0,0,1,0,0,0,0,5,0,5,0,,,,,,,,,,,,,,,,,121.27448529999992,121.94081069999993,121.94081069999993,122.5401726,122.5401726,0.615317999999661,124.55538650000017,2.6305380999997396,None,1,increament,0.6,15,standard,None,100,,,,,,,f,28,240,fr,r,0,prac,2023-05-15_09h11.36.018,oddball,2022.2.5,60.04383199734296,
5,,,,,0,0,0,1,0,0,0,0,6,0,6,0,,,,,,,,,,,,,,,,,124.57204860000002,125.18794459999981,125.18794459999981,125.78764760000013,125.78764760000013,0.6156859999996414,127.80255429999988,2.6305748999998286,None,1,increament,0.6,15,standard,None,100,,,,,,,f,28,240,fr,r,0,prac,2023-05-15_09h11.36.018,oddball,2022.2.5,60.04383199734296,
5,,,,,0,0,0,1,0,0,0,0,7,0,7,0,,,,,,,,,,,,,,,,,127.81925469999987,128.5020241000002,128.5020241000002,129.10149009999986,129.10149009999986,0.5991712999998526,131.11657779999996,2.6138200000000325,None,1,increament,0.6,15,standard,None,100,,,,,,,f,28,240,fr,r,0,prac,2023-05-15_09h11.36.018,oddball,2022.2.5,60.04383199734296,
5,,,,,0,0,0,1,0,0,0,0,8,0,8,0,,,,,,,,,,,,,,,,,131.11657779999996,131.8159037999999,131.8159037999999,132.41536129999986,132.41536129999986,0.6154041999998299,134.43035469999995,2.6303877000000284,None,1,increament,0.6,15,standard,None,100,,,,,,,f,28,240,fr,r,0,prac,2023-05-15_09h11.36.018,oddball,2022.2.5,60.04383199734296,
5,,,,,0,0,0,1,0,0,0,0,9,0,9,0,,,,,,,,,,,,,,,,,134.4471781000002,135.16305160000002,135.16305160000002,135.7626409999998,135.7626409999998,0.6155631000001449,137.77752359999977,2.630415200000243,None,1,increament,0.6,15,standard,None,100,,,,,,,f,28,240,fr,r,0,prac,2023-05-15_09h11.36.018,oddball,2022.2.5,60.04383199734296,
5,,,,,0,0,0,1,0,0,0,0,10,0,10,0,,,,,,,,,,,,,,,,,137.79421730000013,138.4102644999998,138.4102644999998,139.00992029999998,139.00992029999998,0.6154449999999088,141.02491580000014,2.6304669000001013,None,1,increament,0.6,15,standard,None,100,,,,,,,f,28,240,fr,r,0,prac,2023-05-15_09h11.36.018,oddball,2022.2.5,60.04383199734296,
5,,,,,0,0,0,1,0,0,0,0,11,0,11,0,,,,,,,,,,,,,,,,,141.04144959999985,141.7077731999998,141.7077731999998,142.30721219999987,142.30721219999987,0.6155457999998362,144.32220000000007,2.6305324999998447,None,1,increament,0.6,15,standard,None,100,,,,,,,f,28,240,fr,r,0,prac,2023-05-15_09h11.36.018,oddball,2022.2.5,60.04383199734296,
5,,,,,0,0,0,1,0,0,0,0,12,0,12,0,,,,,,,,,,,,,,,,,144.3387759000002,145.0217978999999,145.0217978999999,145.85415509999984,145.87093989999994,0.8483530000003157,147.8693085,2.8634931000001416,j,1,increament,0.84,17,oddball,j,140,1.166998500000318,,,,,,f,28,240,fr,r,0,prac,2023-05-15_09h11.36.018,oddball,2022.2.5,60.04383199734296,
5,,,,,0,0,0,1,0,0,0,0,13,0,13,0,,,,,,,,,,,,,,,,,147.88576740000008,148.50218889999996,148.50218889999996,149.1017179999999,149.1017179999999,0.6155598999998801,151.11669979999988,2.630517499999769,None,1,increament,0.6,15,standard,None,100,,,,,,,f,28,240,fr,r,0,prac,2023-05-15_09h11.36.018,oddball,2022.2.5,60.04383199734296,
5,,,,,0,0,0,1,0,0,0,0,14,0,14,0,,,,,,,,,,,,,,,,,151.13322049999988,151.78259470000012,151.78259470000012,152.3821455000002,152.3821455000002,0.6154108999999153,154.39709249999987,2.630363899999793,None,1,increament,0.6,15,standard,None,100,,,,,,,f,28,240,fr,r,0,prac,2023-05-15_09h11.36.018,oddball,2022.2.5,60.04383199734296,
5,,,,,0,0,0,1,0,0,0,0,15,0,15,0,,,,,,,,,,,,,,,,,154.41390050000018,154.99673859999984,154.99673859999984,155.59635389999994,155.59635389999994,0.6157749000003605,157.6114093000001,2.6308303000000706,None,1,increament,0.6,15,standard,None,100,,,,,,,f,28,240,fr,r,0,prac,2023-05-15_09h11.36.018,oddball,2022.2.5,60.04383199734296,
5,,,,,0,0,0,1,0,0,0,0,16,0,16,0,,,,,,,,,,,,,,,,,157.6278572000001,158.52711219999992,158.52711219999992,159.12667659999988,159.12667659999988,0.6155478999999104,161.14158689999977,2.63044280000031,None,1,increament,0.6,15,standard,None,100,,,,,,,f,28,240,fr,r,0,prac,2023-05-15_09h11.36.018,oddball,2022.2.5,60.04383199734296,
5,,,,,0,0,0,1,0,0,0,0,17,0,17,0,,,,,,,,,,,,,,,,,161.15820500000018,161.69126830000005,161.69126830000005,162.29067329999998,162.29067329999998,0.5990262000000257,164.30604099999982,2.6142939999999726,None,1,increament,0.6,15,standard,None,100,,,,,,,f,28,240,fr,r,0,prac,2023-05-15_09h11.36.018,oddball,2022.2.5,60.04383199734296,
5,,,,,0,0,0,1,0,0,0,0,18,0,18,0,,,,,,,,,,,,,,,,,164.30604099999982,164.8886647999998,164.8886647999998,165.4881694999999,165.4881694999999,0.6154273000001922,167.50309070000003,2.630328300000201,None,1,increament,0.6,15,standard,None,100,,,,,,,f,28,240,fr,r,0,prac,2023-05-15_09h11.36.018,oddball,2022.2.5,60.04383199734296,
5,,,,,0,0,0,1,0,0,0,0,19,0,19,0,,,,,,,,,,,,,,,,,167.51964390000012,168.21911210000007,168.21911210000007,168.8185954999999,168.8185954999999,0.615354600000046,170.83361560000003,2.63037149999991,None,1,increament,0.6,15,standard,None,100,,,,,,,f,28,240,fr,r,0,prac,2023-05-15_09h11.36.018,oddball,2022.2.5,60.04383199734296,
5,,,,,0,0,0,1,0,0,0,0,20,0,20,0,,,,,,,,,,,,,,,,,170.85034640000003,171.46632009999985,171.46632009999985,172.06593190000012,172.06593190000012,0.6154145000000426,174.0808677,2.630324499999915,None,1,increament,0.6,15,standard,None,100,,,,,,,f,28,240,fr,r,0,prac,2023-05-15_09h11.36.018,oddball,2022.2.5,60.04383199734296,
5,,,,,0,0,0,1,0,0,0,0,21,0,21,0,,,,,,,,,,,,,,,,,174.0976581,174.79721370000016,174.79721370000016,175.3965803000001,175.3965803000001,0.6154398000003312,177.41143680000005,2.6302654000000985,None,1,increament,0.6,15,standard,None,100,,,,,,,f,28,240,fr,r,0,prac,2023-05-15_09h11.36.018,oddball,2022.2.5,60.04383199734296,
5,,,,,0,0,0,1,0,0,0,0,22,0,22,0,,,,,,,,,,,,,,,,,177.42805839999983,177.9445225999998,177.9445225999998,178.54406629999994,178.54406629999994,0.6156268999998247,180.5588889999999,2.6305053999999473,None,1,increament,0.6,15,standard,None,100,,,,,,,f,28,240,fr,r,0,prac,2023-05-15_09h11.36.018,oddball,2022.2.5,60.04383199734296,
5,,,,,0,0,0,1,0,0,0,0,23,0,23,0,,,,,,,,,,,,,,,,,180.5756252000001,181.1750519000002,181.1750519000002,181.89131050000015,181.9077559000002,0.7322402000004331,183.90612650000003,2.7470608000003267,None,0,increament,0.72,16,oddball,j,120,,,,,,,f,28,240,fr,r,0,prac,2023-05-15_09h11.36.018,oddball,2022.2.5,60.04383199734296,
5,,,,,0,0,0,1,0,0,0,0,24,0,24,0,,,,,,,,,,,,,,,,,183.92295259999992,184.5723241999999,184.5723241999999,185.1718160999999,185.1718160999999,0.6152143999997861,187.1868854999998,2.6302820000000793,None,1,increament,0.6,15,standard,None,100,,,,,,,f,28,240,fr,r,0,prac,2023-05-15_09h11.36.018,oddball,2022.2.5,60.04383199734296,
5,,,,,0,0,0,1,0,0,0,0,25,0,25,0,,,,,,,,,,,,,,,,,187.20352920000005,187.8528468999998,187.8528468999998,188.45238370000015,188.45238370000015,0.5990477000000283,190.46739389999993,2.6137109999999666,None,1,increament,0.6,15,standard,None,100,,,,,,,f,28,240,fr,r,0,prac,2023-05-15_09h11.36.018,oddball,2022.2.5,60.04383199734296,
5,,,,,0,0,0,1,0,0,0,0,26,0,26,0,,,,,,,,,,,,,,,,,190.46739389999993,190.9836381,190.9836381,191.5832661999998,191.5832661999998,0.6156728999999359,193.59811249999984,2.630488499999956,None,1,increament,0.6,15,standard,None,100,,,,,,,f,28,240,fr,r,0,prac,2023-05-15_09h11.36.018,oddball,2022.2.5,60.04383199734296,
5,,,,,0,0,0,1,0,0,0,0,27,0,27,0,,,,,,,,,,,,,,,,,193.61480440000014,194.2144598,194.2144598,195.1635452999999,195.18021510000017,0.9654657000000952,197.17865549999988,2.9805512000002636,j,1,increament,0.96,18,oddball,j,160,0.8429772999998022,,,,,,f,28,240,fr,r,0,prac,2023-05-15_09h11.36.018,oddball,2022.2.5,60.04383199734296,
5,,,,,0,0,0,1,0,0,0,0,28,0,28,0,,,,,,,,,,,,,,,,,197.19525509999994,197.77816789999997,197.77816789999997,198.37763029999996,198.37763029999996,0.6155247000001509,200.3924533999998,2.630331600000318,None,1,increament,0.6,15,standard,None,100,,,,,,,f,28,240,fr,r,0,prac,2023-05-15_09h11.36.018,oddball,2022.2.5,60.04383199734296,
5,,,,,0,0,0,1,0,0,0,0,29,0,29,0,,,,,,,,,,,,,,,,,200.4092187000001,200.99204670000017,200.99204670000017,201.59159309999995,201.59159309999995,0.6155785000000833,203.60658980000017,2.630581300000358,None,1,increament,0.6,15,standard,None,100,,,,,,,f,28,240,fr,r,0,prac,2023-05-15_09h11.36.018,oddball,2022.2.5,60.04383199734296,
5,,,,,0,0,0,1,1,0,1,0,0,0,0,0,,,,,,,,,,,,,,,213.8481486999999,213.8481486999999,219.16052880000007,219.9931915000002,219.9931915000002,220.59258180000006,220.59258180000006,0.6154011000003266,222.60748920000015,2.630307300000368,None,1,decreament,0.6,11,standard,None,100,,203.62332879999985,0.0008118999999169318,,,,f,28,240,fr,r,0,prac,2023-05-15_09h11.36.018,oddball,2022.2.5,60.04383199734296,
5,,,,,0,0,0,1,1,0,1,0,1,0,1,0,,,,,,,,,,,,,,,,,222.62419529999988,223.4571817000001,223.4571817000001,224.0563403000001,224.0563403000001,0.6157376999999542,226.07122010000012,2.6306248999999298,None,1,decreament,0.6,11,standard,None,100,,,,,,,f,28,240,fr,r,0,prac,2023-05-15_09h11.36.018,oddball,2022.2.5,60.04383199734296,
5,,,,,0,0,0,1,1,0,1,0,2,0,2,0,,,,,,,,,,,,,,,,,226.08841600000005,226.7875055999998,226.7875055999998,227.38715520000005,227.38715520000005,0.6156268000004275,229.40195349999976,2.6304001000003154,None,1,decreament,0.6,11,standard,None,100,,,,,,,f,28,240,fr,r,0,prac,2023-05-15_09h11.36.018,oddball,2022.2.5,60.04383199734296,
5,,,,,0,0,0,1,1,0,1,0,3,0,3,0,,,,,,,,,,,,,,,,,229.4187662999998,230.0015454999998,230.0015454999998,230.6010222,230.6010222,0.6154857999999876,232.61601689999998,2.630479700000251,None,1,decreament,0.6,11,standard,None,100,,,,,,,f,28,240,fr,r,0,prac,2023-05-15_09h11.36.018,oddball,2022.2.5,60.04383199734296,
5,,,,,0,0,0,1,1,0,1,0,4,0,4,0,,,,,,,,,,,,,,,,,232.63253140000006,233.1821484000002,233.1821484000002,233.78160960000014,233.78160960000014,0.5990037000001394,235.79675719999977,2.6138772999997855,None,1,decreament,0.6,11,standard,None,100,,,,,,,f,28,240,fr,r,0,prac,2023-05-15_09h11.36.018,oddball,2022.2.5,60.04383199734296,
5,,,,,0,0,0,1,1,0,1,0,5,0,5,0,,,,,,,,,,,,,,,,,235.79675719999977,236.4128056999998,236.4128056999998,236.64604139999983,236.6626139,0.24917000000004919,238.66089809999994,2.2640223999997033,j,1,decreament,0.24,12,oddball,j,40,0.9198510000005626,,,,,,f,28,240,fr,r,0,prac,2023-05-15_09h11.36.018,oddball,2022.2.5,60.04383199734296,
5,,,,,0,0,0,1,1,0,1,0,6,0,6,0,,,,,,,,,,,,,,,,,238.6775987000001,239.36035279999987,239.36035279999987,239.9600418,239.9600418,0.6156331000001956,241.97490100000005,2.630495299999893,None,1,decreament,0.6,11,standard,None,100,,,,,,,f,28,240,fr,r,0,prac,2023-05-15_09h11.36.018,oddball,2022.2.5,60.04383199734296,
5,,,,,0,0,0,1,1,0,1,0,7,0,7,0,,,,,,,,,,,,,,,,,241.9918935999999,242.84083180000016,242.84083180000016,243.44041960000004,243.44041960000004,0.6155824000002212,245.45516259999977,2.630316600000242,None,1,decreament,0.6,11,standard,None,100,,,,,,,f,28,240,fr,r,0,prac,2023-05-15_09h11.36.018,oddball,2022.2.5,60.04383199734296,
5,,,,,0,0,0,1,1,0,1,0,8,0,8,0,,,,,,,,,,,,,,,,,245.47189909999997,246.2381746000001,246.2381746000001,246.83753419999994,246.83753419999994,0.599033099999815,248.8524078999999,2.6139529000001858,None,1,decreament,0.6,11,standard,None,100,,,,,,,f,28,240,fr,r,0,prac,2023-05-15_09h11.36.018,oddball,2022.2.5,60.04383199734296,
5,,,,,0,0,0,1,1,0,1,0,9,0,9,0,,,,,,,,,,,,,,,,,248.8524078999999,249.48532870000008,249.48532870000008,250.08501530000012,250.08501530000012,0.6154190000002018,252.09985060000008,2.630263200000172,None,1,decreament,0.6,11,standard,None,100,,,,,,,f,28,240,fr,r,0,prac,2023-05-15_09h11.36.018,oddball,2022.2.5,60.04383199734296,
5,,,,,0,0,0,1,1,0,1,0,10,0,10,0,,,,,,,,,,,,,,,,,252.11659610000015,252.8492455999999,252.8492455999999,253.448672,253.448672,0.615450399999645,255.4638788000002,2.6306665999995857,None,1,decreament,0.6,11,standard,None,100,,,,,,,f,28,240,fr,r,0,prac,2023-05-15_09h11.36.018,oddball,2022.2.5,60.04383199734296,
5,,,,,0,0,0,1,1,0,1,0,11,0,11,0,,,,,,,,,,,,,,,,,255.48062029999983,256.1965190000001,256.1965190000001,256.79593620000014,256.79593620000014,0.5990176000000247,258.8108573999998,2.613997500000096,None,1,decreament,0.6,11,standard,None,100,,,,,,,f,28,240,fr,r,0,prac,2023-05-15_09h11.36.018,oddball,2022.2.5,60.04383199734296,
5,,,,,0,0,0,1,1,0,1,0,12,0,12,0,,,,,,,,,,,,,,,,,258.8108573999998,259.5770802000002,259.5770802000002,260.1765067000001,260.1765067000001,0.5990636999999879,262.1914188999999,2.613919600000372,j,0,decreament,0.6,11,standard,None,100,1.7621788999999808,,,,,,f,28,240,fr,r,0,prac,2023-05-15_09h11.36.018,oddball,2022.2.5,60.04383199734296,
5,,,,,0,0,0,1,1,0,1,0,13,0,13,0,,,,,,,,,,,,,,,,,262.1914188999999,262.7576872999998,262.7576872999998,263.3573323999999,263.3573323999999,0.6155016999996406,265.3721479000001,2.6303195000000414,None,1,decreament,0.6,11,standard,None,100,,,,,,,f,28,240,fr,r,0,prac,2023-05-15_09h11.36.018,oddball,2022.2.5,60.04383199734296,
5,,,,,0,0,0,1,1,0,1,0,14,0,14,0,,,,,,,,,,,,,,,,,265.38893740000003,266.1883051,266.1883051,266.78779269999995,266.78779269999995,0.61545950000027,268.8027278999998,2.6303633000002264,None,1,decreament,0.6,11,standard,None,100,,,,,,,f,28,240,fr,r,0,prac,2023-05-15_09h11.36.018,oddball,2022.2.5,60.04383199734296,
5,,,,,0,0,0,1,1,0,1,0,15,0,15,0,,,,,,,,,,,,,,,,,268.81950229999984,269.51884800000016,269.51884800000016,270.11837449999985,270.11837449999985,0.5990106000003834,272.13338209999984,2.6141139000001203,None,1,decreament,0.6,11,standard,None,100,,,,,,,f,28,240,fr,r,0,prac,2023-05-15_09h11.36.018,oddball,2022.2.5,60.04383199734296,
5,,,,,0,0,0,1,1,0,1,0,16,0,16,0,,,,,,,,,,,,,,,,,272.13338209999984,272.6662403999999,272.6662403999999,273.1325949000002,273.1490617999998,0.4823319000001902,275.14754660000017,2.4973009999998794,j,1,decreament,0.48,14,oddball,j,80,1.2031003000001874,,,,,,f,28,240,fr,r,0,prac,2023-05-15_09h11.36.018,oddball,2022.2.5,60.04383199734296,
5,,,,,0,0,0,1,1,0,1,0,17,0,17,0,,,,,,,,,,,,,,,,,275.1641601000001,275.91361700000016,275.91361700000016,276.5131369999999,276.5131369999999,0.6154768000001241,278.5282450999998,2.630586400000084,None,1,decreament,0.6,11,standard,None,100,,,,,,,f,28,240,fr,r,0,prac,2023-05-15_09h11.36.018,oddball,2022.2.5,60.04383199734296,
5,,,,,0,0,0,1,1,0,1,0,18,0,18,0,,,,,,,,,,,,,,,,,278.5450440999998,279.1609118000001,279.1609118000001,279.7604717999998,279.7604717999998,0.5990502999998171,281.7752518000002,2.61403990000008,None,1,decreament,0.6,11,standard,None,100,,,,,,,f,28,240,fr,r,0,prac,2023-05-15_09h11.36.018,oddball,2022.2.5,60.04383199734296,
5,,,,,0,0,0,1,1,0,1,0,19,0,19,0,,,,,,,,,,,,,,,,,281.7752518000002,282.5248351,282.5248351,283.1241441000002,283.1241441000002,0.6153212999997777,285.13921870000013,2.6304056999997556,None,1,decreament,0.6,11,standard,None,100,,,,,,,f,28,240,fr,r,0,prac,2023-05-15_09h11.36.018,oddball,2022.2.5,60.04383199734296,
5,,,,,0,0,0,1,1,0,1,0,20,0,20,0,,,,,,,,,,,,,,,,,285.15628100000004,285.75552289999996,285.75552289999996,286.35503149999977,286.35503149999977,0.5990080000001399,288.36994219999997,2.6139782000000196,None,1,decreament,0.6,11,standard,None,100,,,,,,,f,28,240,fr,r,0,prac,2023-05-15_09h11.36.018,oddball,2022.2.5,60.04383199734296,
5,,,,,0,0,0,1,1,0,1,0,21,0,21,0,,,,,,,,,,,,,,,,,288.36994219999997,289.1027128999999,289.1027128999999,289.7022588,289.7022588,0.6153950000002624,291.71697349999977,2.630095700000311,None,1,decreament,0.6,11,standard,None,100,,,,,,,f,28,240,fr,r,0,prac,2023-05-15_09h11.36.018,oddball,2022.2.5,60.04383199734296,
5,,,,,0,0,0,1,1,0,1,0,22,0,22,0,,,,,,,,,,,,,,,,,291.73392379999996,292.3500723000002,292.3500723000002,292.94955560000017,292.94955560000017,0.6155515999998897,294.9645618999998,2.630565099999785,None,1,decreament,0.6,11,standard,None,100,,,,,,,f,28,240,fr,r,0,prac,2023-05-15_09h11.36.018,oddball,2022.2.5,60.04383199734296,
5,,,,,0,0,0,1,1,0,1,0,23,0,23,0,,,,,,,,,,,,,,,,,294.9811896000001,295.7805453000001,295.7805453000001,296.38015459999997,296.38015459999997,0.6156255000000783,298.395176,2.630626200000279,None,1,decreament,0.6,11,standard,None,100,,,,,,,f,28,240,fr,r,0,prac,2023-05-15_09h11.36.018,oddball,2022.2.5,60.04383199734296,
5,,,,,0,0,0,1,1,0,1,0,24,0,24,0,,,,,,,,,,,,,,,,,298.41160249999984,299.31087290000005,299.31087290000005,299.9102984000001,299.9102984000001,0.615084300000035,301.92536629999995,2.6301527000000533,None,1,decreament,0.6,11,standard,None,100,,,,,,,f,28,240,fr,r,0,prac,2023-05-15_09h11.36.018,oddball,2022.2.5,60.04383199734296,
5,,,,,0,0,0,1,1,0,1,0,25,0,25,0,,,,,,,,,,,,,,,,,301.9422816000001,302.62484889999996,302.62484889999996,302.9745337999998,302.9912402,0.3656220999996549,304.9895072999998,2.380596399999831,j,1,decreament,0.36,13,oddball,j,60,0.764299000000392,,,,,,f,28,240,fr,r,0,prac,2023-05-15_09h11.36.018,oddball,2022.2.5,60.04383199734296,
5,,,,,0,0,0,1,1,0,1,0,26,0,26,0,,,,,,,,,,,,,,,,,305.00631509999994,305.6889388999998,305.6889388999998,306.2886287000001,306.2886287000001,0.6157542000000831,308.3033968999998,2.630514399999811,None,1,decreament,0.6,11,standard,None,100,,,,,,,f,28,240,fr,r,0,prac,2023-05-15_09h11.36.018,oddball,2022.2.5,60.04383199734296,
5,,,,,0,0,0,1,1,0,1,0,27,0,27,0,,,,,,,,,,,,,,,,,308.3202071999999,309.0863562999998,309.0863562999998,309.68587979999984,309.68587979999984,0.6156654000001254,311.70074320000003,2.6305676000001768,None,1,decreament,0.6,11,standard,None,100,,,,,,,f,28,240,fr,r,0,prac,2023-05-15_09h11.36.018,oddball,2022.2.5,60.04383199734296,
5,,,,,0,0,0,1,1,0,1,0,28,0,28,0,,,,,,,,,,,,,,,,,311.7175222999999,312.38361269999996,312.38361269999996,312.9830191000001,312.9830191000001,0.615641400000186,314.99796100000003,2.6305724000003465,None,1,decreament,0.6,11,standard,None,100,,,,,,,f,28,240,fr,r,0,prac,2023-05-15_09h11.36.018,oddball,2022.2.5,60.04383199734296,
5,,,,,0,0,0,1,1,0,1,0,29,0,29,0,,,,,,,,,,,,,,,,,315.0145634999999,315.6808796,315.6808796,316.2801316,316.2801316,0.5990657999996074,318.29527310000003,2.6139290999999503,None,1,decreament,0.6,11,standard,None,100,,,,,,,f,28,240,fr,r,0,prac,2023-05-15_09h11.36.018,oddball,2022.2.5,60.04383199734296,
5,,,,,0,0,0,1,2,0,2,0,0,0,0,0,,,,,,,,,,,,,,,339.56116380000003,339.56116380000003,344.4569621999999,345.12318300000015,345.12318300000015,345.72253150000006,345.72253150000006,0.6153323000003184,347.7375981,2.630382400000144,None,1,increament,0.6,15,standard,None,100,,318.29527310000003,0.0009168999999928928,,,,f,28,240,fr,r,0,prac,2023-05-15_09h11.36.018,oddball,2022.2.5,60.04383199734296,
5,,,,,0,0,0,1,2,0,2,0,1,0,1,0,,,,,,,,,,,,,,,,,347.7543227000001,348.4536785,348.4536785,349.0532146999999,349.0532146999999,0.6155736000000616,351.0681181,2.630470399999922,None,1,increament,0.6,15,standard,None,100,,,,,,,f,28,240,fr,r,0,prac,2023-05-15_09h11.36.018,oddball,2022.2.5,60.04383199734296,
5,,,,,0,0,0,1,2,0,2,0,2,0,2,0,,,,,,,,,,,,,,,,,351.08472759999995,351.6676947000001,351.6676947000001,352.2505965999999,352.2671796999998,0.6154945000002954,354.26541540000017,2.6305836999999883,None,1,increament,0.6,15,standard,None,100,,,,,,,f,28,240,fr,r,0,prac,2023-05-15_09h11.36.018,oddball,2022.2.5,60.04383199734296,
5,,,,,0,0,0,1,2,0,2,0,3,0,3,0,,,,,,,,,,,,,,,,,354.29902730000003,354.98157409999976,354.98157409999976,355.56443260000015,355.5811184999998,0.5990765000001375,357.57964029999994,2.6142823999998654,None,1,increament,0.6,15,standard,None,100,,,,,,,f,28,240,fr,r,0,prac,2023-05-15_09h11.36.018,oddball,2022.2.5,60.04383199734296,
5,,,,,0,0,0,1,2,0,2,0,4,0,4,0,,,,,,,,,,,,,,,,,357.5961422999999,358.3120963000001,358.3120963000001,358.9117434,358.9117434,0.6154220999997051,360.9267765999998,2.630446899999697,None,1,increament,0.6,15,standard,None,100,,,,,,,f,28,240,fr,r,0,prac,2023-05-15_09h11.36.018,oddball,2022.2.5,60.04383199734296,
5,,,,,0,0,0,1,2,0,2,0,5,0,5,0,,,,,,,,,,,,,,,,,360.9434332000001,361.67612710000003,361.67612710000003,362.2757539999998,362.2757539999998,0.6153193999998621,364.2905839,2.63010740000027,None,1,increament,0.6,15,standard,None,100,,,,,,,f,28,240,fr,r,0,prac,2023-05-15_09h11.36.018,oddball,2022.2.5,60.04383199734296,
5,,,,,0,0,0,1,2,0,2,0,6,0,6,0,,,,,,,,,,,,,,,,,364.3071884000001,365.1566260999998,365.1566260999998,365.9897113000002,366.0057619999998,0.8492065999998886,368.0042871999999,2.863769499999762,None,0,increament,0.84,17,oddball,j,140,,,,,,,f,28,240,fr,r,0,prac,2023-05-15_09h11.36.018,oddball,2022.2.5,60.04383199734296,
5,,,,,0,0,0,1,2,0,2,0,7,0,7,0,,,,,,,,,,,,,,,,,368.0211725999998,368.7036152999999,368.7036152999999,369.30320200000006,369.30320200000006,0.6155631999999969,371.3181206999998,2.6304631999996673,None,1,increament,0.6,15,standard,None,100,,,,,,,f,28,240,fr,r,0,prac,2023-05-15_09h11.36.018,oddball,2022.2.5,60.04383199734296,
5,,,,,0,0,0,1,2,0,2,0,8,0,8,0,,,,,,,,,,,,,,,,,371.3347309999999,371.8509081000002,371.8509081000002,372.45050949999995,372.45050949999995,0.6153647000001001,374.46558099999993,2.630461000000196,None,1,increament,0.6,15,standard,None,100,,,,,,,f,28,240,fr,r,0,prac,2023-05-15_09h11.36.018,oddball,2022.2.5,60.04383199734296,
5,,,,,0,0,0,1,2,0,2,0,9,0,9,0,,,,,,,,,,,,,,,,,374.48227689999976,375.13174930000014,375.13174930000014,375.7311844999999,375.7311844999999,0.6153119999999035,377.7460765000001,2.630204500000218,None,1,increament,0.6,15,standard,None,100,,,,,,,f,28,240,fr,r,0,prac,2023-05-15_09h11.36.018,oddball,2022.2.5,60.04383199734296,
5,,,,,0,0,0,1,2,0,2,0,10,0,10,0,,,,,,,,,,,,,,,,,377.76269349999984,378.37898889999997,378.37898889999997,379.0950533,379.11173899999994,0.7320006999998441,381.1105244999999,2.747478699999647,None,0,increament,0.72,16,oddball,j,120,,,,,,,f,28,240,fr,r,0,prac,2023-05-15_09h11.36.018,oddball,2022.2.5,60.04383199734296,
5,,,,,0,0,0,1,2,0,2,0,11,0,11,0,,,,,,,,,,,,,,,,,381.12666390000004,381.74286699999993,381.74286699999993,382.3423054,382.3423054,0.6155225000002247,384.3572872999998,2.630502299999989,None,1,increament,0.6,15,standard,None,100,,,,,,,f,28,240,fr,r,0,prac,2023-05-15_09h11.36.018,oddball,2022.2.5,60.04383199734296,
5,,,,,0,0,0,1,2,0,2,0,12,0,12,0,,,,,,,,,,,,,,,,,384.3740299000001,385.0900938,385.0900938,385.6896846999998,385.6896846999998,0.6153595000000678,387.7046181999999,2.630280800000037,None,1,increament,0.6,15,standard,None,100,,,,,,,f,28,240,fr,r,0,prac,2023-05-15_09h11.36.018,oddball,2022.2.5,60.04383199734296,
5,,,,,0,0,0,1,2,0,2,0,13,0,13,0,,,,,,,,,,,,,,,,,387.7213198999998,388.2708072999999,388.2708072999999,388.87028310000005,388.87028310000005,0.6155634000001555,390.8853565999998,2.6306752999998935,None,1,increament,0.6,15,standard,None,100,,,,,,,f,28,240,fr,r,0,prac,2023-05-15_09h11.36.018,oddball,2022.2.5,60.04383199734296,
5,,,,,0,0,0,1,2,0,2,0,14,0,14,0,,,,,,,,,,,,,,,,,390.9019070999998,391.5014768000001,391.5014768000001,392.1009849000002,392.1009849000002,0.6153113999998823,394.11601710000014,2.6303256000001056,None,1,increament,0.6,15,standard,None,100,,,,,,,f,28,240,fr,r,0,prac,2023-05-15_09h11.36.018,oddball,2022.2.5,60.04383199734296,
5,,,,,0,0,0,1,2,0,2,0,15,0,15,0,,,,,,,,,,,,,,,,,394.13256550000006,394.91568129999996,394.91568129999996,395.5147280000001,395.5147280000001,0.5990852999998424,397.52993000000015,2.6139898999999787,None,1,increament,0.6,15,standard,None,100,,,,,,,f,28,240,fr,r,0,prac,2023-05-15_09h11.36.018,oddball,2022.2.5,60.04383199734296,
5,,,,,0,0,0,1,2,0,2,0,16,0,16,0,,,,,,,,,,,,,,,,,397.52993000000015,398.1292745999999,398.1292745999999,398.72879939999984,398.72879939999984,0.6152224000002207,400.74386430000004,2.6302637000003415,None,1,increament,0.6,15,standard,None,100,,,,,,,f,28,240,fr,r,0,prac,2023-05-15_09h11.36.018,oddball,2022.2.5,60.04383199734296,
5,,,,,0,0,0,1,2,0,2,0,17,0,17,0,,,,,,,,,,,,,,,,,400.7605472,401.326642,401.326642,401.92618859999993,401.92618859999993,0.5991321999999855,403.9412464000002,2.613992600000074,None,1,increament,0.6,15,standard,None,100,,,,,,,f,28,240,fr,r,0,prac,2023-05-15_09h11.36.018,oddball,2022.2.5,60.04383199734296,
5,,,,,0,0,0,1,2,0,2,0,18,0,18,0,,,,,,,,,,,,,,,,,403.9412464000002,404.59054749999996,404.59054749999996,405.19021699999985,405.19021699999985,0.5990169000001515,407.2052970999998,2.6138151000000107,j,0,increament,0.6,15,standard,None,100,0.7744542000000365,,,,,,f,28,240,fr,r,0,prac,2023-05-15_09h11.36.018,oddball,2022.2.5,60.04383199734296,
5,,,,,0,0,0,1,2,0,2,0,19,0,19,0,,,,,,,,,,,,,,,,,407.2052970999998,407.8546276000002,407.8546276000002,408.45414660000006,408.45414660000006,0.6156364000003123,410.4691453999999,2.6306494000000384,None,1,increament,0.6,15,standard,None,100,,,,,,,f,28,240,fr,r,0,prac,2023-05-15_09h11.36.018,oddball,2022.2.5,60.04383199734296,
5,,,,,0,0,0,1,2,0,2,0,20,0,20,0,,,,,,,,,,,,,,,,,410.48583599999984,411.1353294999999,411.1353294999999,411.73496680000017,411.73496680000017,0.6154922999999144,413.75005950000013,2.630608200000097,None,1,increament,0.6,15,standard,None,100,,,,,,,f,28,240,fr,r,0,prac,2023-05-15_09h11.36.018,oddball,2022.2.5,60.04383199734296,
5,,,,,0,0,0,1,2,0,2,0,21,0,21,0,,,,,,,,,,,,,,,,,413.76628660000006,414.4990845000002,414.4990845000002,415.0988674,415.0988674,0.6156607999996595,417.1137555999999,2.6305531999996674,None,1,increament,0.6,15,standard,None,100,,,,,,,f,28,240,fr,r,0,prac,2023-05-15_09h11.36.018,oddball,2022.2.5,60.04383199734296,
5,,,,,0,0,0,1,2,0,2,0,22,0,22,0,,,,,,,,,,,,,,,,,417.13029460000007,417.6799686999998,417.6799686999998,418.2627001000001,418.27937239999983,0.5990488000002188,420.2777824,2.6141191000001527,None,1,increament,0.6,15,standard,None,100,,,,,,,f,28,240,fr,r,0,prac,2023-05-15_09h11.36.018,oddball,2022.2.5,60.04383199734296,
5,,,,,0,0,0,1,2,0,2,0,23,0,23,0,,,,,,,,,,,,,,,,,420.2944419999999,420.97702759999993,420.97702759999993,421.5599376,421.57668109999986,0.599044000000049,423.5749116000002,2.6140317999997933,None,1,increament,0.6,15,standard,None,100,,,,,,,f,28,240,fr,r,0,prac,2023-05-15_09h11.36.018,oddball,2022.2.5,60.04383199734296,
5,,,,,0,0,0,1,2,0,2,0,24,0,24,0,,,,,,,,,,,,,,,,,423.591586,424.19121189999987,424.19121189999987,424.7906739,424.7906739,0.6155092999997578,426.8056059999999,2.6304026999996495,None,1,increament,0.6,15,standard,None,100,,,,,,,f,28,240,fr,r,0,prac,2023-05-15_09h11.36.018,oddball,2022.2.5,60.04383199734296,
5,,,,,0,0,0,1,2,0,2,0,25,0,25,0,,,,,,,,,,,,,,,,,426.8225972,427.48882950000007,427.48882950000007,428.0879223000002,428.0879223000002,0.6153954999999769,430.1028873999999,2.6303588999999192,j,0,increament,0.6,15,standard,None,100,1.0125386000004255,,,,,,f,28,240,fr,r,0,prac,2023-05-15_09h11.36.018,oddball,2022.2.5,60.04383199734296,
5,,,,,0,0,0,1,2,0,2,0,26,0,26,0,,,,,,,,,,,,,,,,,430.119588,430.7026569999998,430.7026569999998,431.3019347999998,431.3019347999998,0.615461200000027,433.31697780000013,2.630492000000231,None,1,increament,0.6,15,standard,None,100,,,,,,,f,28,240,fr,r,0,prac,2023-05-15_09h11.36.018,oddball,2022.2.5,60.04383199734296,
5,,,,,0,0,0,1,2,0,2,0,27,0,27,0,,,,,,,,,,,,,,,,,433.3335910999999,433.9664111000002,433.9664111000002,434.5658773,434.5658773,0.6154765999999654,436.5809244000002,2.6305278999998336,None,1,increament,0.6,15,standard,None,100,,,,,,,f,28,240,fr,r,0,prac,2023-05-15_09h11.36.018,oddball,2022.2.5,60.04383199734296,
5,,,,,0,0,0,1,2,0,2,0,28,0,28,0,,,,,,,,,,,,,,,,,436.59745010000006,437.14711499999976,437.14711499999976,437.74647589999995,437.74647589999995,0.6151131999999961,439.7617516999999,2.630395199999839,None,1,increament,0.6,15,standard,None,100,,,,,,,f,28,240,fr,r,0,prac,2023-05-15_09h11.36.018,oddball,2022.2.5,60.04383199734296,
5,,,,,0,0,0,1,2,0,2,0,29,0,29,0,,,,,,,,,,,,,,,,,439.7784101000002,440.47784150000007,440.47784150000007,441.42695719999983,441.44369879999977,0.9654088000002048,443.4418698999998,2.9802357000003212,j,1,increament,0.96,18,oddball,j,160,1.4635958999997456,,,,,,f,28,240,fr,r,0,prac,2023-05-15_09h11.36.018,oddball,2022.2.5,60.04383199734296,
5,,,,,0,0,0,1,3,0,3,0,0,0,0,0,,,,,,,,,,,,,,,470.0698966,470.0698966,473.71695629999977,474.38309560000016,474.38309560000016,474.9826158999999,474.9826158999999,0.6156028000000333,476.9975657,2.6305413000000044,None,1,decreament,0.6,11,standard,None,100,,443.45861109999987,0.0006233000003703637,,,,f,28,240,fr,r,0,prac,2023-05-15_09h11.36.018,oddball,2022.2.5,60.04383199734296,
5,,,,,0,0,0,1,3,0,3,0,1,0,1,0,,,,,,,,,,,,,,,,,477.0141294,477.76353370000015,477.76353370000015,478.36308229999986,478.36308229999986,0.6153696999999738,480.3781712,2.630446299999676,None,1,decreament,0.6,11,standard,None,100,,,,,,,f,28,240,fr,r,0,prac,2023-05-15_09h11.36.018,oddball,2022.2.5,60.04383199734296,
5,,,,,0,0,0,1,3,0,3,0,2,0,2,0,,,,,,,,,,,,,,,,,480.39472990000013,480.9944770000002,480.9944770000002,481.5937082999999,481.5937082999999,0.6151933999999528,483.60889510000015,2.630390299999817,None,1,decreament,0.6,11,standard,None,100,,,,,,,f,28,240,fr,r,0,prac,2023-05-15_09h11.36.018,oddball,2022.2.5,60.04383199734296,
5,,,,,0,0,0,1,3,0,3,0,3,0,3,0,,,,,,,,,,,,,,,,,483.6256035000001,484.2748606,484.2748606,484.8576833000002,484.8744179999999,0.5990004000000226,486.87279690000014,2.614099399999759,None,1,decreament,0.6,11,standard,None,100,,,,,,,f,28,240,fr,r,0,prac,2023-05-15_09h11.36.018,oddball,2022.2.5,60.04383199734296,
5,,,,,0,0,0,1,3,0,3,0,4,0,4,0,,,,,,,,,,,,,,,,,486.8894263000002,487.5889373,487.5889373,488.1883840999999,488.1883840999999,0.6149698000003809,490.20336129999987,2.6299400000002606,None,1,decreament,0.6,11,standard,None,100,,,,,,,f,28,240,fr,r,0,prac,2023-05-15_09h11.36.018,oddball,2022.2.5,60.04383199734296,
5,,,,,0,0,0,1,3,0,3,0,5,0,5,0,,,,,,,,,,,,,,,,,490.2198285999998,490.8695714999999,490.8695714999999,491.4689137999999,491.4689137999999,0.6155377000000044,493.48399800000016,2.6306000000004133,None,1,decreament,0.6,11,standard,None,100,,,,,,,f,28,240,fr,r,0,prac,2023-05-15_09h11.36.018,oddball,2022.2.5,60.04383199734296,
5,,,,,0,0,0,1,3,0,3,0,6,0,6,0,,,,,,,,,,,,,,,,,493.50059439999995,494.0167689,494.0167689,494.5998389000001,494.6166099000002,0.5991560999996182,496.6146554000002,2.613956999999573,j,0,decreament,0.6,11,standard,None,100,0.8824657000000116,,,,,,f,28,240,fr,r,0,prac,2023-05-15_09h11.36.018,oddball,2022.2.5,60.04383199734296,
5,,,,,0,0,0,1,3,0,3,0,7,0,7,0,,,,,,,,,,,,,,,,,496.6315638000001,497.3143313999999,497.3143313999999,497.9134734999998,497.9134734999998,0.6153117000003476,499.92866700000013,2.6307510999999977,None,1,decreament,0.6,11,standard,None,100,,,,,,,f,28,240,fr,r,0,prac,2023-05-15_09h11.36.018,oddball,2022.2.5,60.04383199734296,
5,,,,,0,0,0,1,3,0,3,0,8,0,8,0,,,,,,,,,,,,,,,,,499.94532979999985,500.57825790000015,500.57825790000015,501.1778684000001,501.1778684000001,0.6154716999999437,503.1926177,2.630203299999721,None,1,decreament,0.6,11,standard,None,100,,,,,,,f,28,240,fr,r,0,prac,2023-05-15_09h11.36.018,oddball,2022.2.5,60.04383199734296,
5,,,,,0,0,0,1,3,0,3,0,9,0,9,0,,,,,,,,,,,,,,,,,503.20939929999986,504.0085577,504.0085577,504.6082298000001,504.6082298000001,0.6155744999996386,506.6231036999998,2.630435899999611,None,1,decreament,0.6,11,standard,None,100,,,,,,,f,28,240,fr,r,0,prac,2023-05-15_09h11.36.018,oddball,2022.2.5,60.04383199734296,
5,,,,,0,0,0,1,3,0,3,0,10,0,10,0,,,,,,,,,,,,,,,,,506.6396515000001,507.37260639999977,507.37260639999977,507.97192749999977,507.97192749999977,0.6152672999996867,509.98707490000015,2.6304073999999673,j,0,decreament,0.6,11,standard,None,100,1.3138837000005879,,,,,,f,28,240,fr,r,0,prac,2023-05-15_09h11.36.018,oddball,2022.2.5,60.04383199734296,
5,,,,,0,0,0,1,3,0,3,0,11,0,11,0,,,,,,,,,,,,,,,,,510.0035232,510.66987560000007,510.66987560000007,511.26938169999994,511.26938169999994,0.6156458999998904,513.2842363,2.6304903000000195,None,1,decreament,0.6,11,standard,None,100,,,,,,,f,28,240,fr,r,0,prac,2023-05-15_09h11.36.018,oddball,2022.2.5,60.04383199734296,
5,,,,,0,0,0,1,3,0,3,0,12,0,12,0,,,,,,,,,,,,,,,,,513.3009999999999,513.9836842,513.9836842,514.5831603000001,514.5831603000001,0.6154893999996602,516.5981722000001,2.6304974999998194,None,1,decreament,0.6,11,standard,None,100,,,,,,,f,28,240,fr,r,0,prac,2023-05-15_09h11.36.018,oddball,2022.2.5,60.04383199734296,
5,,,,,0,0,0,1,3,0,3,0,13,0,13,0,,,,,,,,,,,,,,,,,516.6149058999999,517.1478594,517.1478594,517.7473396,517.7473396,0.5990378999999848,519.7623397000002,2.613882300000114,None,1,decreament,0.6,11,standard,None,100,,,,,,,f,28,240,fr,r,0,prac,2023-05-15_09h11.36.018,oddball,2022.2.5,60.04383199734296,
5,,,,,0,0,0,1,3,0,3,0,14,0,14,0,,,,,,,,,,,,,,,,,519.7623397000002,520.4783345000001,520.4783345000001,521.0779641999998,521.0779641999998,0.6157012000003306,523.0928635,2.6305483000001004,None,1,decreament,0.6,11,standard,None,100,,,,,,,f,28,240,fr,r,0,prac,2023-05-15_09h11.36.018,oddball,2022.2.5,60.04383199734296,
5,,,,,0,0,0,1,3,0,3,0,15,0,15,0,,,,,,,,,,,,,,,,,523.1095110000001,523.7922128,523.7922128,524.1420403000002,524.158602,0.36609120000002804,526.1571006999998,2.381161699999666,j,1,decreament,0.36,13,oddball,j,60,0.8894652000003589,,,,,,f,28,240,fr,r,0,prac,2023-05-15_09h11.36.018,oddball,2022.2.5,60.04383199734296,
5,,,,,0,0,0,1,3,0,3,0,16,0,16,0,,,,,,,,,,,,,,,,,526.1738461999998,526.9230858999999,526.9230858999999,527.5225267999999,527.5225267999999,0.6151323999997658,529.5375290000002,2.6300790999998753,None,1,decreament,0.6,11,standard,None,100,,,,,,,f,28,240,fr,r,0,prac,2023-05-15_09h11.36.018,oddball,2022.2.5,60.04383199734296,
5,,,,,0,0,0,1,3,0,3,0,17,0,17,0,,,,,,,,,,,,,,,,,529.5544104999999,530.2370388999998,530.2370388999998,530.8363629999999,530.8363629999999,0.6152126999995744,532.8514854999999,2.6303414999997585,None,1,decreament,0.6,11,standard,None,100,,,,,,,f,28,240,fr,r,0,prac,2023-05-15_09h11.36.018,oddball,2022.2.5,60.04383199734296,
5,,,,,0,0,0,1,3,0,3,0,18,0,18,0,,,,,,,,,,,,,,,,,532.8678906,533.5841991000002,533.5841991000002,534.1670978000002,534.1835934000001,0.5991589000000204,536.1819083999999,2.6139539000000696,None,1,decreament,0.6,11,standard,None,100,,,,,,,f,28,240,fr,r,0,prac,2023-05-15_09h11.36.018,oddball,2022.2.5,60.04383199734296,
5,,,,,0,0,0,1,3,0,3,0,19,0,19,0,,,,,,,,,,,,,,,,,536.1986556000002,536.7981794000002,536.7981794000002,537.3977140000002,537.3977140000002,0.6153713999997308,539.4126187000002,2.6302802000000156,None,1,decreament,0.6,11,standard,None,100,,,,,,,f,28,240,fr,r,0,prac,2023-05-15_09h11.36.018,oddball,2022.2.5,60.04383199734296,
5,,,,,0,0,0,1,3,0,3,0,20,0,20,0,,,,,,,,,,,,,,,,,539.4294156000001,540.1621604000002,540.1621604000002,540.7615329999999,540.7615329999999,0.6153584999997292,542.7766247999998,2.630443799999739,None,1,decreament,0.6,11,standard,None,100,,,,,,,f,28,240,fr,r,0,prac,2023-05-15_09h11.36.018,oddball,2022.2.5,60.04383199734296,
5,,,,,0,0,0,1,3,0,3,0,21,0,21,0,,,,,,,,,,,,,,,,,542.7932814000001,543.4593040999998,543.4593040999998,544.0587498999998,544.0587498999998,0.6153696000001219,546.0739696999999,2.630563400000028,None,1,decreament,0.6,11,standard,None,100,,,,,,,f,28,240,fr,r,0,prac,2023-05-15_09h11.36.018,oddball,2022.2.5,60.04383199734296,
5,,,,,0,0,0,1,3,0,3,0,22,0,22,0,,,,,,,,,,,,,,,,,546.0906234999998,546.6734348,546.6734348,547.2562459000001,547.2730895999998,0.5990679999999884,549.2711985000001,2.6140454000001228,None,1,decreament,0.6,11,standard,None,100,,,,,,,f,28,240,fr,r,0,prac,2023-05-15_09h11.36.018,oddball,2022.2.5,60.04383199734296,
5,,,,,0,0,0,1,3,0,3,0,23,0,23,0,,,,,,,,,,,,,,,,,549.2879204000001,549.9707208999998,549.9707208999998,550.5702547000001,550.5702547000001,0.6155288999998447,552.5851557000001,2.630437499999971,None,1,decreament,0.6,11,standard,None,100,,,,,,,f,28,240,fr,r,0,prac,2023-05-15_09h11.36.018,oddball,2022.2.5,60.04383199734296,
5,,,,,0,0,0,1,3,0,3,0,24,0,24,0,,,,,,,,,,,,,,,,,552.6018067999998,553.2512194000001,553.2512194000001,553.7175327,553.7341585999998,0.481903500000044,555.7326742,2.4970539999999346,j,1,decreament,0.48,14,oddball,j,80,0.7464022000003752,,,,,,f,28,240,fr,r,0,prac,2023-05-15_09h11.36.018,oddball,2022.2.5,60.04383199734296,
5,,,,,0,0,0,1,3,0,3,0,25,0,25,0,,,,,,,,,,,,,,,,,555.7492348000001,556.3155931000001,556.3155931000001,556.9150009,556.9150009,0.6156630999998924,558.9299821,2.6306384999998045,None,1,decreament,0.6,11,standard,None,100,,,,,,,f,28,240,fr,r,0,prac,2023-05-15_09h11.36.018,oddball,2022.2.5,60.04383199734296,
5,,,,,0,0,0,1,3,0,3,0,26,0,26,0,,,,,,,,,,,,,,,,,558.9465873999998,559.5461157,559.5461157,560.1454610000001,560.1454610000001,0.6153104999998504,562.1606614000002,2.6305140999998002,None,1,decreament,0.6,11,standard,None,100,,,,,,,f,28,240,fr,r,0,prac,2023-05-15_09h11.36.018,oddball,2022.2.5,60.04383199734296,
5,,,,,0,0,0,1,3,0,3,0,27,0,27,0,,,,,,,,,,,,,,,,,562.1772077,562.7934071,562.7934071,563.3930482999999,563.3930482999999,0.6157407999999123,565.4080008000001,2.6306887000000643,j,0,decreament,0.6,11,standard,None,100,0.9675477000000683,,,,,,f,28,240,fr,r,0,prac,2023-05-15_09h11.36.018,oddball,2022.2.5,60.04383199734296,
5,,,,,0,0,0,1,3,0,3,0,28,0,28,0,,,,,,,,,,,,,,,,,565.4245928,566.1240770999998,566.1240770999998,566.3571406000001,566.3738173000002,0.24911410000004253,568.3722223,2.2641906000003473,j,1,decreament,0.24,12,oddball,j,40,1.0321288000004643,,,,,,f,28,240,fr,r,0,prac,2023-05-15_09h11.36.018,oddball,2022.2.5,60.04383199734296,
5,,,,,0,0,0,1,3,0,3,0,29,0,29,0,,,,,,,,,,,,,,,,,568.3887740999999,569.0880962000001,569.0880962000001,569.6711313000001,569.6875559,0.5991256000002068,571.6860243000001,2.6140402000000904,None,1,decreament,0.6,11,standard,None,100,,,,,,,f,28,240,fr,r,0,prac,2023-05-15_09h11.36.018,oddball,2022.2.5,60.04383199734296,
5,,,,,0,0,0,1,4,0,4,0,0,0,0,0,,,,,,,,,,,,,,,595.7496756999999,595.7496756999999,598.5139411,599.1133374000001,599.1133374000001,599.7128868999998,599.7128868999998,0.6155229000000872,601.7279096000002,2.630537600000025,None,1,increament,0.6,15,standard,None,100,,571.7026970000002,0.0007512000001952401,,,,f,28,240,fr,r,0,prac,2023-05-15_09h11.36.018,oddball,2022.2.5,60.04383199734296,
5,,,,,0,0,0,1,4,0,4,0,1,0,1,0,,,,,,,,,,,,,,,,,601.7446131000002,602.3940535000002,602.3940535000002,602.9936002,602.9936002,0.6154594999998153,605.0087779,2.630663899999945,None,1,increament,0.6,15,standard,None,100,,,,,,,f,28,240,fr,r,0,prac,2023-05-15_09h11.36.018,oddball,2022.2.5,60.04383199734296,
5,,,,,0,0,0,1,4,0,4,0,2,0,2,0,,,,,,,,,,,,,,,,,605.0251475,605.5916194000001,605.5916194000001,606.1908714000001,606.1908714000001,0.6153070999998818,608.2058799000001,2.630306699999892,None,1,increament,0.6,15,standard,None,100,,,,,,,f,28,240,fr,r,0,prac,2023-05-15_09h11.36.018,oddball,2022.2.5,60.04383199734296,
5,,,,,0,0,0,1,4,0,4,0,3,0,3,0,,,,,,,,,,,,,,,,,608.2224863000001,608.8221431000002,608.8221431000002,609.4049891,609.4216123000001,0.5991449000002831,611.4199472,2.614100800000415,None,1,increament,0.6,15,standard,None,100,,,,,,,f,28,240,fr,r,0,prac,2023-05-15_09h11.36.018,oddball,2022.2.5,60.04383199734296,
5,,,,,0,0,0,1,4,0,4,0,4,0,4,0,,,,,,,,,,,,,,,,,611.4369763,612.1691197,612.1691197,612.7520921999999,612.7688902,0.599029999999857,614.7671128000002,2.6140519000000495,None,1,increament,0.6,15,standard,None,100,,,,,,,f,28,240,fr,r,0,prac,2023-05-15_09h11.36.018,oddball,2022.2.5,60.04383199734296,
5,,,,,0,0,0,1,4,0,4,0,5,0,5,0,,,,,,,,,,,,,,,,,614.7840139,615.4167376999999,615.4167376999999,616.0160525000001,616.0160525000001,0.6151691000000028,618.0311916,2.6303282999997464,None,1,increament,0.6,15,standard,None,100,,,,,,,f,28,240,fr,r,0,prac,2023-05-15_09h11.36.018,oddball,2022.2.5,60.04383199734296,
5,,,,,0,0,0,1,4,0,4,0,6,0,6,0,,,,,,,,,,,,,,,,,618.0478967999998,618.6808136,618.6808136,619.2801251000001,619.2801251000001,0.615306099999998,621.2951699,2.630352099999982,None,1,increament,0.6,15,standard,None,100,,,,,,,f,28,240,fr,r,0,prac,2023-05-15_09h11.36.018,oddball,2022.2.5,60.04383199734296,
5,,,,,0,0,0,1,4,0,4,0,7,0,7,0,,,,,,,,,,,,,,,,,621.3119105999999,621.9779101999998,621.9779101999998,622.5607988000002,622.5775478999999,0.599031599999762,624.5757146000001,2.613945199999762,None,1,increament,0.6,15,standard,None,100,,,,,,,f,28,240,fr,r,0,prac,2023-05-15_09h11.36.018,oddball,2022.2.5,60.04383199734296,
5,,,,,0,0,0,1,4,0,4,0,8,0,8,0,,,,,,,,,,,,,,,,,624.5924605999999,625.3252094,625.3252094,625.9245851000001,625.9245851000001,0.6154897999999775,627.9398004,2.6306930999999167,None,1,increament,0.6,15,standard,None,100,,,,,,,f,28,240,fr,r,0,prac,2023-05-15_09h11.36.018,oddball,2022.2.5,60.04383199734296,
5,,,,,0,0,0,1,4,0,4,0,9,0,9,0,,,,,,,,,,,,,,,,,627.9566951000002,628.5725600000001,628.5725600000001,629.1721039999998,629.1721039999998,0.6153853000000709,631.1868352000001,2.6301017999999203,None,1,increament,0.6,15,standard,None,100,,,,,,,f,28,240,fr,r,0,prac,2023-05-15_09h11.36.018,oddball,2022.2.5,60.04383199734296,
5,,,,,0,0,0,1,4,0,4,0,10,0,10,0,,,,,,,,,,,,,,,,,631.2035510000001,632.0029957000002,632.0029957000002,632.6025018999999,632.6025018999999,0.6156087999997908,634.6174781999998,2.6305835999996816,None,1,increament,0.6,15,standard,None,100,,,,,,,f,28,240,fr,r,0,prac,2023-05-15_09h11.36.018,oddball,2022.2.5,60.04383199734296,
5,,,,,0,0,0,1,4,0,4,0,11,0,11,0,,,,,,,,,,,,,,,,,634.6342141999999,635.3170209999998,635.3170209999998,635.9163712,635.9163712,0.5990296999998463,637.9315047,2.6141787000001386,None,1,increament,0.6,15,standard,None,100,,,,,,,f,28,240,fr,r,0,prac,2023-05-15_09h11.36.018,oddball,2022.2.5,60.04383199734296,
5,,,,,0,0,0,1,4,0,4,0,12,0,12,0,,,,,,,,,,,,,,,,,637.9315047,638.5143340999998,638.5143340999998,639.1136016,639.1136016,0.6154607999997097,641.1287769,2.630621499999961,None,1,increament,0.6,15,standard,None,100,,,,,,,f,28,240,fr,r,0,prac,2023-05-15_09h11.36.018,oddball,2022.2.5,60.04383199734296,
5,,,,,0,0,0,1,4,0,4,0,13,0,13,0,,,,,,,,,,,,,,,,,641.1452696000001,641.7948735999998,641.7948735999998,642.7441617,642.7608823,0.9652538000000277,644.7590697999999,2.9801524999998037,j,1,increament,0.96,18,oddball,j,160,1.0617526999999427,,,,,,f,28,240,fr,r,0,prac,2023-05-15_09h11.36.018,oddball,2022.2.5,60.04383199734296,
5,,,,,0,0,0,1,4,0,4,0,14,0,14,0,,,,,,,,,,,,,,,,,644.7755366000001,645.5752469999998,645.5752469999998,646.1579455000001,646.1746170000001,0.599172599999747,648.1728099000002,2.613996000000043,None,1,increament,0.6,15,standard,None,100,,,,,,,f,28,240,fr,r,0,prac,2023-05-15_09h11.36.018,oddball,2022.2.5,60.04383199734296,
5,,,,,0,0,0,1,4,0,4,0,15,0,15,0,,,,,,,,,,,,,,,,,648.1894510000002,648.8723107000001,648.8723107000001,649.4719111999998,649.4719111999998,0.6156844999995883,651.4868953,2.630674799999724,None,1,increament,0.6,15,standard,None,100,,,,,,,f,28,240,fr,r,0,prac,2023-05-15_09h11.36.018,oddball,2022.2.5,60.04383199734296,
5,,,,,0,0,0,1,4,0,4,0,16,0,16,0,,,,,,,,,,,,,,,,,651.5035149999999,652.1196633999998,652.1196633999998,652.7192277999998,652.7192277999998,0.6153629000000365,654.7342408,2.6303788999998687,None,1,increament,0.6,15,standard,None,100,,,,,,,f,28,240,fr,r,0,prac,2023-05-15_09h11.36.018,oddball,2022.2.5,60.04383199734296,
5,,,,,0,0,0,1,4,0,4,0,17,0,17,0,,,,,,,,,,,,,,,,,654.7508902999998,655.2669833,655.2669833,655.8664757000001,655.8664757000001,0.615347699999802,657.8815349000001,2.6303970999997546,None,1,increament,0.6,15,standard,None,100,,,,,,,f,28,240,fr,r,0,prac,2023-05-15_09h11.36.018,oddball,2022.2.5,60.04383199734296,
5,,,,,0,0,0,1,4,0,4,0,18,0,18,0,,,,,,,,,,,,,,,,,657.8984093999998,658.4644908999999,658.4644908999999,659.0638683000002,659.0638683000002,0.6154227000001811,661.0788790000001,2.6304457000001094,None,1,increament,0.6,15,standard,None,100,,,,,,,f,28,240,fr,r,0,prac,2023-05-15_09h11.36.018,oddball,2022.2.5,60.04383199734296,
5,,,,,0,0,0,1,4,0,4,0,19,0,19,0,,,,,,,,,,,,,,,,,661.0956276000002,661.7118531000001,661.7118531000001,662.3112913,662.3112913,0.615287200000239,664.3262928999998,2.6303117000002203,None,1,increament,0.6,15,standard,None,100,,,,,,,f,28,240,fr,r,0,prac,2023-05-15_09h11.36.018,oddball,2022.2.5,60.04383199734296,
5,,,,,0,0,0,1,4,0,4,0,20,0,20,0,,,,,,,,,,,,,,,,,664.3429080999999,665.3421613,665.3421613,665.9418236000001,665.9418236000001,0.6159265000001142,667.9566794000002,2.630783600000086,None,1,increament,0.6,15,standard,None,100,,,,,,,f,28,240,fr,r,0,prac,2023-05-15_09h11.36.018,oddball,2022.2.5,60.04383199734296,
5,,,,,0,0,0,1,4,0,4,0,21,0,21,0,,,,,,,,,,,,,,,,,667.9732210000002,668.6229447999999,668.6229447999999,669.4553642999999,669.4720843999999,0.8484262000001763,671.4703703999999,2.863416099999995,None,0,increament,0.84,17,oddball,j,140,,,,,,,f,28,240,fr,r,0,prac,2023-05-15_09h11.36.018,oddball,2022.2.5,60.04383199734296,
5,,,,,0,0,0,1,4,0,4,0,22,0,22,0,,,,,,,,,,,,,,,,,671.4870578,672.2865099,672.2865099,672.8859072999999,672.8859072999999,0.6155181999997694,674.9008973999998,2.6306250999996337,None,1,increament,0.6,15,standard,None,100,,,,,,,f,28,240,fr,r,0,prac,2023-05-15_09h11.36.018,oddball,2022.2.5,60.04383199734296,
5,,,,,0,0,0,1,4,0,4,0,23,0,23,0,,,,,,,,,,,,,,,,,674.9174369000002,675.5504206,675.5504206,676.1501309999999,676.1501309999999,0.5991625999999997,678.1647876000002,2.6138850000002094,None,1,increament,0.6,15,standard,None,100,,,,,,,f,28,240,fr,r,0,prac,2023-05-15_09h11.36.018,oddball,2022.2.5,60.04383199734296,
5,,,,,0,0,0,1,4,0,4,0,24,0,24,0,,,,,,,,,,,,,,,,,678.1647876000002,678.7643624000002,678.7643624000002,679.3639422000001,679.3639422000001,0.6155989999997473,681.3787698000001,2.6304363999997804,None,1,increament,0.6,15,standard,None,100,,,,,,,f,28,240,fr,r,0,prac,2023-05-15_09h11.36.018,oddball,2022.2.5,60.04383199734296,
5,,,,,0,0,0,1,4,0,4,0,25,0,25,0,,,,,,,,,,,,,,,,,681.3954966000001,682.0949006999999,682.0949006999999,682.6944294,682.6944294,0.6155055999997785,684.7096658,2.6307183999997505,None,1,increament,0.6,15,standard,None,100,,,,,,,f,28,240,fr,r,0,prac,2023-05-15_09h11.36.018,oddball,2022.2.5,60.04383199734296,
5,,,,,0,0,0,1,4,0,4,0,26,0,26,0,,,,,,,,,,,,,,,,,684.7262378999999,685.4588594000002,685.4588594000002,686.0417879000001,686.0584745000001,0.5990618999999242,688.0567581,2.61415100000022,None,1,increament,0.6,15,standard,None,100,,,,,,,f,28,240,fr,r,0,prac,2023-05-15_09h11.36.018,oddball,2022.2.5,60.04383199734296,
5,,,,,0,0,0,1,4,0,4,0,27,0,27,0,,,,,,,,,,,,,,,,,688.0734775999999,688.7894581,688.7894581,689.3887851,689.3887851,0.6152824000000692,691.4039026999999,2.6303881000003457,None,1,increament,0.6,15,standard,None,100,,,,,,,f,28,240,fr,r,0,prac,2023-05-15_09h11.36.018,oddball,2022.2.5,60.04383199734296,
5,,,,,0,0,0,1,4,0,4,0,28,0,28,0,,,,,,,,,,,,,,,,,691.4207747999999,692.0534440000001,692.0534440000001,692.7696675000002,692.7860835000001,0.7324100999999246,694.7843366000002,2.7469858999997996,None,0,increament,0.72,16,oddball,j,120,,,,,,,f,28,240,fr,r,0,prac,2023-05-15_09h11.36.018,oddball,2022.2.5,60.04383199734296,
5,,,,,0,0,0,1,4,0,4,0,29,0,29,0,,,,,,,,,,,,,,,,,694.8010420999999,695.4005858999999,695.4005858999999,696.0001189,696.0001189,0.5990428000000065,698.0151486999998,2.613988900000095,None,1,increament,0.6,15,standard,None,100,,,,,,,f,28,240,fr,r,0,prac,2023-05-15_09h11.36.018,oddball,2022.2.5,60.04383199734296,
5,,,,,0,0,0,1,5,0,5,0,0,0,0,0,,,,,,,,,,,,,,,715.4173104000001,715.4173104000001,720.9128455999999,721.5956872000002,721.5956872000002,722.1951933,722.1951933,0.6156125000002248,724.2100777999999,2.6304896999999983,None,1,decreament,0.6,11,standard,None,100,,698.0151486999998,0.000820199999907345,,,,f,28,240,fr,r,0,prac,2023-05-15_09h11.36.018,oddball,2022.2.5,60.04383199734296,
5,,,,,0,0,0,1,5,0,5,0,1,0,1,0,,,,,,,,,,,,,,,,,724.2268353,724.8762710000001,724.8762710000001,725.4758440999999,725.4758440999999,0.6156879000000117,727.4907767999998,2.630607200000213,None,1,decreament,0.6,11,standard,None,100,,,,,,,f,28,240,fr,r,0,prac,2023-05-15_09h11.36.018,oddball,2022.2.5,60.04383199734296,
5,,,,,0,0,0,1,5,0,5,0,2,0,2,0,,,,,,,,,,,,,,,,,727.5073799000002,728.1903296999999,728.1903296999999,728.7897638,728.7897638,0.6154014999997344,730.8047579999998,2.630425800000012,None,1,decreament,0.6,11,standard,None,100,,,,,,,f,28,240,fr,r,0,prac,2023-05-15_09h11.36.018,oddball,2022.2.5,60.04383199734296,
5,,,,,0,0,0,1,5,0,5,0,3,0,3,0,,,,,,,,,,,,,,,,,730.8212660999998,731.4543183999999,731.4543183999999,732.0536437000001,732.0536437000001,0.5991832000004251,734.0687085999998,2.6138138000001163,None,1,decreament,0.6,11,standard,None,100,,,,,,,f,28,240,fr,r,0,prac,2023-05-15_09h11.36.018,oddball,2022.2.5,60.04383199734296,
5,,,,,0,0,0,1,5,0,5,0,4,0,4,0,,,,,,,,,,,,,,,,,734.0687085999998,734.7848773000001,734.7848773000001,735.3842255999998,735.3842255999998,0.6153964000000087,737.3992363000002,2.630460700000185,None,1,decreament,0.6,11,standard,None,100,,,,,,,f,28,240,fr,r,0,prac,2023-05-15_09h11.36.018,oddball,2022.2.5,60.04383199734296,
5,,,,,0,0,0,1,5,0,5,0,5,0,5,0,,,,,,,,,,,,,,,,,737.4159192000002,738.1654201000001,738.1654201000001,738.7647993,738.7647993,0.6156238000003214,740.7798879000002,2.630689000000075,None,1,decreament,0.6,11,standard,None,100,,,,,,,f,28,240,fr,r,0,prac,2023-05-15_09h11.36.018,oddball,2022.2.5,60.04383199734296,
5,,,,,0,0,0,1,5,0,5,0,6,0,6,0,,,,,,,,,,,,,,,,,740.7964255000002,741.4627077,741.4627077,742.0620549,742.0620549,0.599040099999911,744.0769989999999,2.613993599999958,None,1,decreament,0.6,11,standard,None,100,,,,,,,f,28,240,fr,r,0,prac,2023-05-15_09h11.36.018,oddball,2022.2.5,60.04383199734296,
5,,,,,0,0,0,1,5,0,5,0,7,0,7,0,,,,,,,,,,,,,,,,,744.0769989999999,744.7099140999999,744.7099140999999,745.3095365999998,745.3095365999998,0.6153690999999526,747.3244685,2.6303059000001667,j,0,decreament,0.6,11,standard,None,100,0.9969355000002906,,,,,,f,28,240,fr,r,0,prac,2023-05-15_09h11.36.018,oddball,2022.2.5,60.04383199734296,
5,,,,,0,0,0,1,5,0,5,0,8,0,8,0,,,,,,,,,,,,,,,,,747.3410935000002,747.9905297,747.9905297,748.5900753000001,748.5900753000001,0.6155855000001793,750.6050833999998,2.630568900000071,None,1,decreament,0.6,11,standard,None,100,,,,,,,f,28,240,fr,r,0,prac,2023-05-15_09h11.36.018,oddball,2022.2.5,60.04383199734296,
5,,,,,0,0,0,1,5,0,5,0,9,0,9,0,,,,,,,,,,,,,,,,,750.6216889000002,751.2547126999998,751.2547126999998,751.4874805999998,751.5042447000001,0.2492354000000887,753.5026635999998,2.26443560000007,j,1,decreament,0.24,12,oddball,j,40,0.9311765000002197,,,,,,f,28,240,fr,r,0,prac,2023-05-15_09h11.36.018,oddball,2022.2.5,60.04383199734296,
5,,,,,0,0,0,1,5,0,5,0,10,0,10,0,,,,,,,,,,,,,,,,,753.5193094000001,754.1687523999999,754.1687523999999,754.7684361000001,754.7684361000001,0.6157453999999234,756.7831879,2.6304808999998386,None,1,decreament,0.6,11,standard,None,100,,,,,,,f,28,240,fr,r,0,prac,2023-05-15_09h11.36.018,oddball,2022.2.5,60.04383199734296,
5,,,,,0,0,0,1,5,0,5,0,11,0,11,0,,,,,,,,,,,,,,,,,756.7998376999999,757.3827972999998,757.3827972999998,757.9823883999998,757.9823883999998,0.6156849999997576,759.9972416999999,2.6305296999998973,None,1,decreament,0.6,11,standard,None,100,,,,,,,f,28,240,fr,r,0,prac,2023-05-15_09h11.36.018,oddball,2022.2.5,60.04383199734296,
5,,,,,0,0,0,1,5,0,5,0,12,0,12,0,,,,,,,,,,,,,,,,,760.0140354,760.7135238999999,760.7135238999999,761.3128714,761.3128714,0.6152912000002289,763.3279045999998,2.630313500000284,None,1,decreament,0.6,11,standard,None,100,,,,,,,f,28,240,fr,r,0,prac,2023-05-15_09h11.36.018,oddball,2022.2.5,60.04383199734296,
5,,,,,0,0,0,1,5,0,5,0,13,0,13,0,,,,,,,,,,,,,,,,,763.3444150999999,763.9107699000001,763.9107699000001,764.5102142999999,764.5102142999999,0.6154477000000043,766.5252135999999,2.6304371999999603,None,1,decreament,0.6,11,standard,None,100,,,,,,,f,28,240,fr,r,0,prac,2023-05-15_09h11.36.018,oddball,2022.2.5,60.04383199734296,
5,,,,,0,0,0,1,5,0,5,0,14,0,14,0,,,,,,,,,,,,,,,,,766.5418555000001,767.3413516999999,767.3413516999999,767.9239621000002,767.9407760999998,0.6156938999997692,769.9391912000001,2.6306024999998954,None,1,decreament,0.6,11,standard,None,100,,,,,,,f,28,240,fr,r,0,prac,2023-05-15_09h11.36.018,oddball,2022.2.5,60.04383199734296,
5,,,,,0,0,0,1,5,0,5,0,15,0,15,0,,,,,,,,,,,,,,,,,769.9723586,770.5718530999998,770.5718530999998,771.1548951999998,771.1712928000002,0.5990327999998044,773.1698028999999,2.613917300000139,None,1,decreament,0.6,11,standard,None,100,,,,,,,f,28,240,fr,r,0,prac,2023-05-15_09h11.36.018,oddball,2022.2.5,60.04383199734296,
5,,,,,0,0,0,1,5,0,5,0,16,0,16,0,,,,,,,,,,,,,,,,,773.1864426000002,773.9524394,773.9524394,774.5519866999998,774.5519866999998,0.6157053000001724,776.5669446000002,2.6306515000001127,None,1,decreament,0.6,11,standard,None,100,,,,,,,f,28,240,fr,r,0,prac,2023-05-15_09h11.36.018,oddball,2022.2.5,60.04383199734296,
5,,,,,0,0,0,1,5,0,5,0,17,0,17,0,,,,,,,,,,,,,,,,,776.5839523,777.2163716,777.2163716,777.8159209,777.8159209,0.6151922999997623,779.8310925999999,2.6303663999997298,None,1,decreament,0.6,11,standard,None,100,,,,,,,f,28,240,fr,r,0,prac,2023-05-15_09h11.36.018,oddball,2022.2.5,60.04383199734296,
5,,,,,0,0,0,1,5,0,5,0,18,0,18,0,,,,,,,,,,,,,,,,,779.8476031999999,780.5803446,780.5803446,781.0467494,781.0632724000002,0.48247440000022834,783.0616356999999,2.497353000000203,None,0,decreament,0.48,14,oddball,j,80,,,,,,,f,28,240,fr,r,0,prac,2023-05-15_09h11.36.018,oddball,2022.2.5,60.04383199734296,
5,,,,,0,0,0,1,5,0,5,0,19,0,19,0,,,,,,,,,,,,,,,,,783.0783379,783.6278124999999,783.6278124999999,784.2106177999999,784.2273832000001,0.599085500000001,786.2257811999998,2.6142423000001145,None,1,decreament,0.6,11,standard,None,100,,,,,,,f,28,240,fr,r,0,prac,2023-05-15_09h11.36.018,oddball,2022.2.5,60.04383199734296,
5,,,,,0,0,0,1,5,0,5,0,20,0,20,0,,,,,,,,,,,,,,,,,786.2423178999998,786.8418403999999,786.8418403999999,787.4413493000002,787.4413493000002,0.5990882999999485,789.4563260999998,2.6138202999995883,None,1,decreament,0.6,11,standard,None,100,,,,,,,f,28,240,fr,r,0,prac,2023-05-15_09h11.36.018,oddball,2022.2.5,60.04383199734296,
5,,,,,0,0,0,1,5,0,5,0,21,0,21,0,,,,,,,,,,,,,,,,,789.4563260999998,790.0891870999999,790.0891870999999,790.6886252999998,790.6886252999998,0.6155954999999267,792.7036864000002,2.6306479999998373,None,1,decreament,0.6,11,standard,None,100,,,,,,,f,28,240,fr,r,0,prac,2023-05-15_09h11.36.018,oddball,2022.2.5,60.04383199734296,
5,,,,,0,0,0,1,5,0,5,0,22,0,22,0,,,,,,,,,,,,,,,,,792.7202327999998,793.4198255000001,793.4198255000001,794.0191175,794.0191175,0.6153659999999945,796.0343309,2.6305898000000525,j,0,decreament,0.6,11,standard,None,100,0.7459744000002502,,,,,,f,28,240,fr,r,0,prac,2023-05-15_09h11.36.018,oddball,2022.2.5,60.04383199734296,
5,,,,,0,0,0,1,5,0,5,0,23,0,23,0,,,,,,,,,,,,,,,,,796.0508902000001,796.7002510000002,796.7002510000002,797.2998342000001,797.2998342000001,0.5991533000001255,799.3147066000001,2.613894900000105,None,1,decreament,0.6,11,standard,None,100,,,,,,,f,28,240,fr,r,0,prac,2023-05-15_09h11.36.018,oddball,2022.2.5,60.04383199734296,
5,,,,,0,0,0,1,5,0,5,0,24,0,24,0,,,,,,,,,,,,,,,,,799.3147066000001,800.0309711,800.0309711,800.6303853,800.6303853,0.6151551999996627,802.6455510999999,2.630287799999678,None,1,decreament,0.6,11,standard,None,100,,,,,,,f,28,240,fr,r,0,prac,2023-05-15_09h11.36.018,oddball,2022.2.5,60.04383199734296,
5,,,,,0,0,0,1,5,0,5,0,25,0,25,0,,,,,,,,,,,,,,,,,802.6620735000001,803.2116080999999,803.2116080999999,803.5613423,803.5779785999998,0.3655810999998721,805.5762943999998,2.3805271000001085,j,1,decreament,0.36,13,oddball,j,60,0.8311299000001782,,,,,,f,28,240,fr,r,0,prac,2023-05-15_09h11.36.018,oddball,2022.2.5,60.04383199734296,
5,,,,,0,0,0,1,5,0,5,0,26,0,26,0,,,,,,,,,,,,,,,,,805.5931486,806.4090716999999,806.4090716999999,806.9918075,807.0084658999999,0.5991893999998865,809.0068738,2.614264800000001,None,1,decreament,0.6,11,standard,None,100,,,,,,,f,28,240,fr,r,0,prac,2023-05-15_09h11.36.018,oddball,2022.2.5,60.04383199734296,
5,,,,,0,0,0,1,5,0,5,0,27,0,27,0,,,,,,,,,,,,,,,,,809.0235364999999,809.7730618999999,809.7730618999999,810.3726020999998,810.3726020999998,0.6156780999999683,812.3873091,2.630380099999911,None,1,decreament,0.6,11,standard,None,100,,,,,,,f,28,240,fr,r,0,prac,2023-05-15_09h11.36.018,oddball,2022.2.5,60.04383199734296,
5,,,,,0,0,0,1,5,0,5,0,28,0,28,0,,,,,,,,,,,,,,,,,812.4040129999998,813.0536434999999,813.0536434999999,813.6362285,813.6531318000002,0.6161047999999028,815.6514120000002,2.6307372999999643,None,1,decreament,0.6,11,standard,None,100,,,,,,,f,28,240,fr,r,0,prac,2023-05-15_09h11.36.018,oddball,2022.2.5,60.04383199734296,
5,,,,,0,0,0,1,5,0,5,0,29,0,29,0,,,,,,,,,,,,,,,,,815.6846519000001,816.4340327999998,816.4340327999998,817.0335383000001,817.0335383000001,0.6155216000001928,819.0485997000001,2.630586400000084,None,1,decreament,0.6,11,standard,None,100,,,,,,,f,28,240,fr,r,0,prac,2023-05-15_09h11.36.018,oddball,2022.2.5,60.04383199734296,
5,,,,,0,0,0,1,6,0,6,0,0,0,0,0,,,,,,,,,,,,,,,841.4631675,841.4631675,843.2620142000001,843.8114931,843.8114931,844.4108273000002,844.4108273000002,0.5991304999997737,846.4258958999999,2.6141124999999192,None,1,increament,0.6,15,standard,None,100,,819.0652191999998,0.0007440999997925246,,,,f,28,240,fr,r,0,prac,2023-05-15_09h11.36.018,oddball,2022.2.5,60.04383199734296,
5,,,,,0,0,0,1,6,0,6,0,1,0,1,0,,,,,,,,,,,,,,,,,846.4258958999999,847.0255572000001,847.0255572000001,847.6248429000002,847.6248429000002,0.6153535000003103,849.6398782000001,2.6303640000000996,None,1,increament,0.6,15,standard,None,100,,,,,,,f,28,240,fr,r,0,prac,2023-05-15_09h11.36.018,oddball,2022.2.5,60.04383199734296,
5,,,,,0,0,0,1,6,0,6,0,2,0,2,0,,,,,,,,,,,,,,,,,849.6562905000001,850.3060286999998,850.3060286999998,850.8890227000002,850.9057592999998,0.5991340999999011,852.9038945000002,2.6140111999998226,None,1,increament,0.6,15,standard,None,100,,,,,,,f,28,240,fr,r,0,prac,2023-05-15_09h11.36.018,oddball,2022.2.5,60.04383199734296,
5,,,,,0,0,0,1,6,0,6,0,3,0,3,0,,,,,,,,,,,,,,,,,852.920595,853.5031352999999,853.5031352999999,854.1026892999998,854.1026892999998,0.6152553000001717,856.1182816,2.6308828000001085,None,1,increament,0.6,15,standard,None,100,,,,,,,f,28,240,fr,r,0,prac,2023-05-15_09h11.36.018,oddball,2022.2.5,60.04383199734296,
5,,,,,0,0,0,1,6,0,6,0,4,0,4,0,,,,,,,,,,,,,,,,,856.1344052999998,856.8339560999998,856.8339560999998,857.4335314999998,857.4335314999998,0.5994316999999683,859.4483612999998,2.6142079999999623,None,1,increament,0.6,15,standard,None,100,,,,,,,f,28,240,fr,r,0,prac,2023-05-15_09h11.36.018,oddball,2022.2.5,60.04383199734296,
5,,,,,0,0,0,1,6,0,6,0,5,0,5,0,,,,,,,,,,,,,,,,,859.4483612999998,860.0313462999998,860.0313462999998,860.7472278999999,860.7642775999998,0.7321515000003274,862.7626297000002,2.7475711000001866,j,1,increament,0.72,16,oddball,j,120,1.3175914999997076,,,,,,f,28,240,fr,r,0,prac,2023-05-15_09h11.36.018,oddball,2022.2.5,60.04383199734296,
5,,,,,0,0,0,1,6,0,6,0,6,0,6,0,,,,,,,,,,,,,,,,,862.7792218999998,863.4784278000002,863.4784278000002,864.0780986999998,864.0780986999998,0.6156419000003552,866.0932545000001,2.6307888999999705,None,1,increament,0.6,15,standard,None,100,,,,,,,f,28,240,fr,r,0,prac,2023-05-15_09h11.36.018,oddball,2022.2.5,60.04383199734296,
5,,,,,0,0,0,1,6,0,6,0,7,0,7,0,,,,,,,,,,,,,,,,,866.1097712000001,866.7092097,866.7092097,867.2922887999998,867.3087215,0.5993853999998464,869.3073131000001,2.6144036000000597,None,1,increament,0.6,15,standard,None,100,,,,,,,f,28,240,fr,r,0,prac,2023-05-15_09h11.36.018,oddball,2022.2.5,60.04383199734296,
5,,,,,0,0,0,1,6,0,6,0,8,0,8,0,,,,,,,,,,,,,,,,,869.3237248999999,869.9900090000001,869.9900090000001,870.5895274,870.5895274,0.6155359999997927,872.6041992,2.6302010999997947,None,1,increament,0.6,15,standard,None,100,,,,,,,f,28,240,fr,r,0,prac,2023-05-15_09h11.36.018,oddball,2022.2.5,60.04383199734296,
5,,,,,0,0,0,1,6,0,6,0,9,0,9,0,,,,,,,,,,,,,,,,,872.6212326999998,873.2205534999998,873.2205534999998,873.8202572,873.8202572,0.6157465000001139,875.8349929000001,2.63044439999976,None,1,increament,0.6,15,standard,None,100,,,,,,,f,28,240,fr,r,0,prac,2023-05-15_09h11.36.018,oddball,2022.2.5,60.04383199734296,
5,,,,,0,0,0,1,6,0,6,0,10,0,10,0,,,,,,,,,,,,,,,,,875.8521285000002,876.5343675999998,876.5343675999998,877.1340316999999,877.1340316999999,0.6155871999999363,879.1488229000001,2.6303689999999733,None,1,increament,0.6,15,standard,None,100,,,,,,,f,28,240,fr,r,0,prac,2023-05-15_09h11.36.018,oddball,2022.2.5,60.04383199734296,
5,,,,,0,0,0,1,6,0,6,0,11,0,11,0,,,,,,,,,,,,,,,,,879.1656579999999,879.7153245999998,879.7153245999998,880.3149331999998,880.3149331999998,0.5992177000002812,882.3296934999998,2.6139052000003176,None,1,increament,0.6,15,standard,None,100,,,,,,,f,28,240,fr,r,0,prac,2023-05-15_09h11.36.018,oddball,2022.2.5,60.04383199734296,
5,,,,,0,0,0,1,6,0,6,0,12,0,12,0,,,,,,,,,,,,,,,,,882.3296934999998,882.8630401,882.8630401,883.4620289,883.4620289,0.5990725999999995,885.4769698,2.6141877000000022,None,1,increament,0.6,15,standard,None,100,,,,,,,f,28,240,fr,r,0,prac,2023-05-15_09h11.36.018,oddball,2022.2.5,60.04383199734296,
5,,,,,0,0,0,1,6,0,6,0,13,0,13,0,,,,,,,,,,,,,,,,,885.4769698,886.1264934999999,886.1264934999999,886.72615,886.72615,0.6156679000000622,888.7411790000001,2.6309345999998186,None,1,increament,0.6,15,standard,None,100,,,,,,,f,28,240,fr,r,0,prac,2023-05-15_09h11.36.018,oddball,2022.2.5,60.04383199734296,
5,,,,,0,0,0,1,6,0,6,0,14,0,14,0,,,,,,,,,,,,,,,,,888.7576211999999,889.4571666000002,889.4571666000002,890.0567805000001,890.0567805000001,0.5990409999999429,892.0716904999999,2.614004600000044,None,1,increament,0.6,15,standard,None,100,,,,,,,f,28,240,fr,r,0,prac,2023-05-15_09h11.36.018,oddball,2022.2.5,60.04383199734296,
5,,,,,0,0,0,1,6,0,6,0,15,0,15,0,,,,,,,,,,,,,,,,,892.0716904999999,892.8376260999999,892.8376260999999,893.4204444000002,893.4370454999998,0.6155576999999539,895.4355823999999,2.6307478000003357,None,1,increament,0.6,15,standard,None,100,,,,,,,f,28,240,fr,r,0,prac,2023-05-15_09h11.36.018,oddball,2022.2.5,60.04383199734296,
5,,,,,0,0,0,1,6,0,6,0,16,0,16,0,,,,,,,,,,,,,,,,,895.4687748000001,895.9851033,895.9851033,896.584535,896.584535,0.6155714999999873,898.5996319999999,2.630698200000097,None,1,increament,0.6,15,standard,None,100,,,,,,,f,28,240,fr,r,0,prac,2023-05-15_09h11.36.018,oddball,2022.2.5,60.04383199734296,
5,,,,,0,0,0,1,6,0,6,0,17,0,17,0,,,,,,,,,,,,,,,,,898.6161053000001,899.2491515000002,899.2491515000002,899.8485925,899.8485925,0.6154994000003171,901.8635245,2.630422300000191,None,1,increament,0.6,15,standard,None,100,,,,,,,f,28,240,fr,r,0,prac,2023-05-15_09h11.36.018,oddball,2022.2.5,60.04383199734296,
5,,,,,0,0,0,1,6,0,6,0,18,0,18,0,,,,,,,,,,,,,,,,,901.8800934000001,902.5461922,902.5461922,903.1458367999999,903.1458367999999,0.6153386000000864,905.1606802000001,2.6301674999999705,None,1,increament,0.6,15,standard,None,100,,,,,,,f,28,240,fr,r,0,prac,2023-05-15_09h11.36.018,oddball,2022.2.5,60.04383199734296,
5,,,,,0,0,0,1,6,0,6,0,19,0,19,0,,,,,,,,,,,,,,,,,905.1775702999998,905.7771388000001,905.7771388000001,906.3764780000001,906.3764780000001,0.6156240999998772,908.3915099999999,2.6306180000001405,None,1,increament,0.6,15,standard,None,100,,,,,,,f,28,240,fr,r,0,prac,2023-05-15_09h11.36.018,oddball,2022.2.5,60.04383199734296,
5,,,,,0,0,0,1,6,0,6,0,20,0,20,0,,,,,,,,,,,,,,,,,908.4085009999999,908.9576299999999,908.9576299999999,909.5570852999999,909.5570852999999,0.6154982000002747,911.5721413000001,2.6305553000001964,None,1,increament,0.6,15,standard,None,100,,,,,,,f,28,240,fr,r,0,prac,2023-05-15_09h11.36.018,oddball,2022.2.5,60.04383199734296,
5,,,,,0,0,0,1,6,0,6,0,21,0,21,0,,,,,,,,,,,,,,,,,911.5886922,912.2715302000001,912.2715302000001,913.1042686999999,913.1207896000001,0.8486760000000686,915.1193752999998,2.8638138000001163,j,1,increament,0.84,17,oddball,j,140,1.1631999999999607,,,,,,f,28,240,fr,r,0,prac,2023-05-15_09h11.36.018,oddball,2022.2.5,60.04383199734296,
5,,,,,0,0,0,1,6,0,6,0,22,0,22,0,,,,,,,,,,,,,,,,,915.1359286000002,915.8019092,915.8019092,916.4014975999999,916.4014975999999,0.6154703999995945,918.4165139000002,2.6304839999997967,None,1,increament,0.6,15,standard,None,100,,,,,,,f,28,240,fr,r,0,prac,2023-05-15_09h11.36.018,oddball,2022.2.5,60.04383199734296,
5,,,,,0,0,0,1,6,0,6,0,23,0,23,0,,,,,,,,,,,,,,,,,918.4334110999998,918.949384,918.949384,919.5489127999999,919.5489127999999,0.6155025999996724,921.5639341000001,2.630502299999989,None,1,increament,0.6,15,standard,None,100,,,,,,,f,28,240,fr,r,0,prac,2023-05-15_09h11.36.018,oddball,2022.2.5,60.04383199734296,
5,,,,,0,0,0,1,6,0,6,0,24,0,24,0,,,,,,,,,,,,,,,,,921.5805912000001,922.2635427999999,922.2635427999999,922.8628554000002,922.8628554000002,0.5991248000000269,924.8780265999999,2.613916700000118,None,1,increament,0.6,15,standard,None,100,,,,,,,f,28,240,fr,r,0,prac,2023-05-15_09h11.36.018,oddball,2022.2.5,60.04383199734296,
5,,,,,0,0,0,1,6,0,6,0,25,0,25,0,,,,,,,,,,,,,,,,,924.8780265999999,925.5108633999998,925.5108633999998,926.4599373000001,926.4765636000002,0.9651481000000786,928.4749932999998,2.9802189000001817,j,1,increament,0.96,18,oddball,j,160,1.584054500000093,,,,,,f,28,240,fr,r,0,prac,2023-05-15_09h11.36.018,oddball,2022.2.5,60.04383199734296,
5,,,,,0,0,0,1,6,0,6,0,26,0,26,0,,,,,,,,,,,,,,,,,928.4915071,929.0743696999998,929.0743696999998,929.6740666000001,929.6740666000001,0.6155070999998316,931.6889760999998,2.6304119000001265,None,1,increament,0.6,15,standard,None,100,,,,,,,f,28,240,fr,r,0,prac,2023-05-15_09h11.36.018,oddball,2022.2.5,60.04383199734296,
5,,,,,0,0,0,1,6,0,6,0,27,0,27,0,,,,,,,,,,,,,,,,,931.7054927999998,932.2384428,932.2384428,932.8212560000002,932.8380348000001,0.6157034000002568,934.8362756000001,2.630595400000402,None,1,increament,0.6,15,standard,None,100,,,,,,,f,28,240,fr,r,0,prac,2023-05-15_09h11.36.018,oddball,2022.2.5,60.04383199734296,
5,,,,,0,0,0,1,6,0,6,0,28,0,28,0,,,,,,,,,,,,,,,,,934.8696458999998,935.5191450000002,935.5191450000002,936.1186446000002,936.1186446000002,0.6155927999998312,938.1334453,2.6303792999997313,None,1,increament,0.6,15,standard,None,100,,,,,,,f,28,240,fr,r,0,prac,2023-05-15_09h11.36.018,oddball,2022.2.5,60.04383199734296,
5,,,,,0,0,0,1,6,0,6,0,29,0,29,0,,,,,,,,,,,,,,,,,938.150404,938.9663208000002,938.9663208000002,939.5658007000002,939.5658007000002,0.615425999999843,941.5807848999998,2.6304199999999582,None,1,increament,0.6,15,standard,None,100,,,,,,,f,28,240,fr,r,0,prac,2023-05-15_09h11.36.018,oddball,2022.2.5,60.04383199734296,
5,,,,,0,0,0,1,7,0,7,0,0,0,0,0,,,,,,,,,,,,,,,968.2421507999998,968.2421507999998,971.9723124000002,972.6218140999999,972.6218140999999,973.2212954000001,973.2212954000001,0.5990289999999732,975.2363168000002,2.613934800000152,None,1,decreament,0.6,11,standard,None,100,,941.5974187000002,0.0008404999998674612,,,,f,28,240,fr,r,0,prac,2023-05-15_09h11.36.018,oddball,2022.2.5,60.04383199734296,
5,,,,,0,0,0,1,7,0,7,0,1,0,1,0,,,,,,,,,,,,,,,,,975.2363168000002,975.8858902000002,975.8858902000002,976.4853097,976.4853097,0.5992126000001008,978.5002107,2.6140095000000656,None,1,decreament,0.6,11,standard,None,100,,,,,,,f,28,240,fr,r,0,prac,2023-05-15_09h11.36.018,oddball,2022.2.5,60.04383199734296,
5,,,,,0,0,0,1,7,0,7,0,2,0,2,0,,,,,,,,,,,,,,,,,978.5002107,979.2664776000001,979.2664776000001,979.8658553,979.8658553,0.6156166000000667,981.8809642000001,2.6307142999999087,None,1,decreament,0.6,11,standard,None,100,,,,,,,f,28,240,fr,r,0,prac,2023-05-15_09h11.36.018,oddball,2022.2.5,60.04383199734296,
5,,,,,0,0,0,1,7,0,7,0,3,0,3,0,,,,,,,,,,,,,,,,,981.8975715000001,982.596951,982.596951,983.1798055999998,983.1963526,0.5990631999998186,985.1945003000001,2.6137369999996736,None,1,decreament,0.6,11,standard,None,100,,,,,,,f,28,240,fr,r,0,prac,2023-05-15_09h11.36.018,oddball,2022.2.5,60.04383199734296,
5,,,,,0,0,0,1,7,0,7,0,4,0,4,0,,,,,,,,,,,,,,,,,985.2113614999998,985.9109524,985.9109524,986.5104489999999,986.5104489999999,0.6154303000002983,988.5253198999999,2.6303078000000824,None,1,decreament,0.6,11,standard,None,100,,,,,,,f,28,240,fr,r,0,prac,2023-05-15_09h11.36.018,oddball,2022.2.5,60.04383199734296,
5,,,,,0,0,0,1,7,0,7,0,5,0,5,0,,,,,,,,,,,,,,,,,988.5419790999999,989.1582008,989.1582008,989.7410101,989.7576749,0.6155957999999373,991.7560112000001,2.630652700000155,None,1,decreament,0.6,11,standard,None,100,,,,,,,f,28,240,fr,r,0,prac,2023-05-15_09h11.36.018,oddball,2022.2.5,60.04383199734296,
5,,,,,0,0,0,1,7,0,7,0,6,0,6,0,,,,,,,,,,,,,,,,,991.7892009000002,992.4720014999998,992.4720014999998,993.0717730000001,993.0717730000001,0.6156384000000799,995.0865905,2.6304485999999088,None,1,decreament,0.6,11,standard,None,100,,,,,,,f,28,240,fr,r,0,prac,2023-05-15_09h11.36.018,oddball,2022.2.5,60.04383199734296,
5,,,,,0,0,0,1,7,0,7,0,7,0,7,0,,,,,,,,,,,,,,,,,995.1031791999999,995.7858818999998,995.7858818999998,996.3854749000002,996.3854749000002,0.615368799999942,998.4004826999999,2.630340300000171,None,1,decreament,0.6,11,standard,None,100,,,,,,,f,28,240,fr,r,0,prac,2023-05-15_09h11.36.018,oddball,2022.2.5,60.04383199734296,
5,,,,,0,0,0,1,7,0,7,0,8,0,8,0,,,,,,,,,,,,,,,,,998.4172079,999.0168555999999,999.0168555999999,999.6163424000001,999.6163424000001,0.6157151000002159,1001.6310723000001,2.6304352000001927,None,1,decreament,0.6,11,standard,None,100,,,,,,,f,28,240,fr,r,0,prac,2023-05-15_09h11.36.018,oddball,2022.2.5,60.04383199734296,
5,,,,,0,0,0,1,7,0,7,0,9,0,9,0,,,,,,,,,,,,,,,,,1001.6478794999998,1002.4805025999999,1002.4805025999999,1003.0798398000002,1003.0798398000002,0.6153160000003481,1005.0950444,2.630547700000079,None,1,decreament,0.6,11,standard,None,100,,,,,,,f,28,240,fr,r,0,prac,2023-05-15_09h11.36.018,oddball,2022.2.5,60.04383199734296,
5,,,,,0,0,0,1,7,0,7,0,10,0,10,0,,,,,,,,,,,,,,,,,1005.1117301999998,1005.8111468000002,1005.8111468000002,1006.4105064,1006.4105064,0.6155511000001752,1008.4253841999998,2.630419200000233,None,1,decreament,0.6,11,standard,None,100,,,,,,,f,28,240,fr,r,0,prac,2023-05-15_09h11.36.018,oddball,2022.2.5,60.04383199734296,
5,,,,,0,0,0,1,7,0,7,0,11,0,11,0,,,,,,,,,,,,,,,,,1008.4421530999998,1009.0417317000001,1009.0417317000001,1009.6246359000002,1009.6410984999998,0.5991242999998576,1011.6395677,2.6140426000001753,j,0,decreament,0.6,11,standard,None,100,0.8670417000002999,,,,,,f,28,240,fr,r,0,prac,2023-05-15_09h11.36.018,oddball,2022.2.5,60.04383199734296,
5,,,,,0,0,0,1,7,0,7,0,12,0,12,0,,,,,,,,,,,,,,,,,1011.6562880000001,1012.3224762999998,1012.3224762999998,1012.9219502999999,1012.9219502999999,0.6156651999999667,1014.9368199,2.6305405000002793,None,1,decreament,0.6,11,standard,None,100,,,,,,,f,28,240,fr,r,0,prac,2023-05-15_09h11.36.018,oddball,2022.2.5,60.04383199734296,
5,,,,,0,0,0,1,7,0,7,0,13,0,13,0,,,,,,,,,,,,,,,,,1014.9535277999998,1015.4863316000001,1015.4863316000001,1016.0859624,1016.0859624,0.6154940999999781,1018.1010167,2.6305623000002925,j,0,decreament,0.6,11,standard,None,100,1.4240145000003395,,,,,,f,28,240,fr,r,0,prac,2023-05-15_09h11.36.018,oddball,2022.2.5,60.04383199734296,
5,,,,,0,0,0,1,7,0,7,0,14,0,14,0,,,,,,,,,,,,,,,,,1018.1174581,1018.6837436000001,1018.6837436000001,1019.2666043999998,1019.2833286999999,0.6157180000000153,1021.2817248000001,2.6307824999998957,None,1,decreament,0.6,11,standard,None,100,,,,,,,f,28,240,fr,r,0,prac,2023-05-15_09h11.36.018,oddball,2022.2.5,60.04383199734296,
5,,,,,0,0,0,1,7,0,7,0,15,0,15,0,,,,,,,,,,,,,,,,,1021.3148892999998,1022.0477366999999,1022.0477366999999,1022.5138849999998,1022.5306070000001,0.4824826000003668,1024.5289563000001,2.497568200000387,None,0,decreament,0.48,14,oddball,j,80,,,,,,,f,28,240,fr,r,0,prac,2023-05-15_09h11.36.018,oddball,2022.2.5,60.04383199734296,
5,,,,,0,0,0,1,7,0,7,0,16,0,16,0,,,,,,,,,,,,,,,,,1024.5456875999998,1025.1784431,1025.1784431,1025.7778948,1025.7778948,0.6155479000003652,1027.7927636,2.630389600000399,None,1,decreament,0.6,11,standard,None,100,,,,,,,f,28,240,fr,r,0,prac,2023-05-15_09h11.36.018,oddball,2022.2.5,60.04383199734296,
5,,,,,0,0,0,1,7,0,7,0,17,0,17,0,,,,,,,,,,,,,,,,,1027.8097539999999,1028.5424121,1028.5424121,1029.1418090000002,1029.1418090000002,0.5991571999998087,1031.1567882999998,2.6138944999997875,None,1,decreament,0.6,11,standard,None,100,,,,,,,f,28,240,fr,r,0,prac,2023-05-15_09h11.36.018,oddball,2022.2.5,60.04383199734296,
5,,,,,0,0,0,1,7,0,7,0,18,0,18,0,,,,,,,,,,,,,,,,,1031.1567882999998,1031.8061867000001,1031.8061867000001,1032.4058939000001,1032.4058939000001,0.6156694999999672,1034.4208482999998,2.6304761999999755,None,1,decreament,0.6,11,standard,None,100,,,,,,,f,28,240,fr,r,0,prac,2023-05-15_09h11.36.018,oddball,2022.2.5,60.04383199734296,
5,,,,,0,0,0,1,7,0,7,0,19,0,19,0,,,,,,,,,,,,,,,,,1034.437446,1035.2366702999998,1035.2366702999998,1035.8362902,1035.8362902,0.6154986000001372,1037.8511276,2.63032290000001,None,1,decreament,0.6,11,standard,None,100,,,,,,,f,28,240,fr,r,0,prac,2023-05-15_09h11.36.018,oddball,2022.2.5,60.04383199734296,
5,,,,,0,0,0,1,7,0,7,0,20,0,20,0,,,,,,,,,,,,,,,,,1037.8678814,1038.48405,1038.48405,1039.0837444,1039.0837444,0.6156112999997276,1041.0987355000002,2.630596399999831,None,1,decreament,0.6,11,standard,None,100,,,,,,,f,28,240,fr,r,0,prac,2023-05-15_09h11.36.018,oddball,2022.2.5,60.04383199734296,
5,,,,,0,0,0,1,7,0,7,0,21,0,21,0,,,,,,,,,,,,,,,,,1041.1153131,1041.7814391000002,1041.7814391000002,1042.0145582,1042.0311329,0.2492219999999179,1044.0294869,2.2641453000001093,j,1,decreament,0.24,12,oddball,j,40,0.9428109999998924,,,,,,f,28,240,fr,r,0,prac,2023-05-15_09h11.36.018,oddball,2022.2.5,60.04383199734296,
5,,,,,0,0,0,1,7,0,7,0,22,0,22,0,,,,,,,,,,,,,,,,,1044.0461965,1044.7454801,1044.7454801,1045.3284273999998,1045.3451225,0.5990889999998217,1047.3433759,2.6140559000000394,None,1,decreament,0.6,11,standard,None,100,,,,,,,f,28,240,fr,r,0,prac,2023-05-15_09h11.36.018,oddball,2022.2.5,60.04383199734296,
5,,,,,0,0,0,1,7,0,7,0,23,0,23,0,,,,,,,,,,,,,,,,,1047.3602962999998,1048.0097621,1048.0097621,1048.5922569999998,1048.6091274999999,0.6157717999999477,1050.6074417999998,2.6307300000003124,None,1,decreament,0.6,11,standard,None,100,,,,,,,f,28,240,fr,r,0,prac,2023-05-15_09h11.36.018,oddball,2022.2.5,60.04383199734296,
5,,,,,0,0,0,1,7,0,7,0,24,0,24,0,,,,,,,,,,,,,,,,,1050.6407848,1051.3568068999998,1051.3568068999998,1051.956326,1051.956326,0.6153763000002073,1053.9713547000001,2.6304079000001366,None,1,decreament,0.6,11,standard,None,100,,,,,,,f,28,240,fr,r,0,prac,2023-05-15_09h11.36.018,oddball,2022.2.5,60.04383199734296,
5,,,,,0,0,0,1,7,0,7,0,25,0,25,0,,,,,,,,,,,,,,,,,1053.9879944,1054.620781,1054.620781,1055.2201641000001,1055.2201641000001,0.6153079999999136,1057.2351825,2.6303140999998504,None,1,decreament,0.6,11,standard,None,100,,,,,,,f,28,240,fr,r,0,prac,2023-05-15_09h11.36.018,oddball,2022.2.5,60.04383199734296,
5,,,,,0,0,0,1,7,0,7,0,26,0,26,0,,,,,,,,,,,,,,,,,1057.251832,1057.967998,1057.967998,1058.5675409,1058.5675409,0.6153753000003235,1060.5823857999999,2.6302512000002025,None,1,decreament,0.6,11,standard,None,100,,,,,,,f,28,240,fr,r,0,prac,2023-05-15_09h11.36.018,oddball,2022.2.5,60.04383199734296,
5,,,,,0,0,0,1,7,0,7,0,27,0,27,0,,,,,,,,,,,,,,,,,1060.5992136999998,1061.1319764999998,1061.1319764999998,1061.4817007000001,1061.4985354,0.36556130000008125,1063.4965668,2.380410600000232,None,0,decreament,0.36,13,oddball,j,60,,,,,,,f,28,240,fr,r,0,prac,2023-05-15_09h11.36.018,oddball,2022.2.5,60.04383199734296,
5,,,,,0,0,0,1,7,0,7,0,28,0,28,0,,,,,,,,,,,,,,,,,1063.5134357000002,1064.1462132000001,1064.1462132000001,1064.7457866999998,1064.7457866999998,0.6155008999999154,1066.7607557000001,2.6304387999998653,None,1,decreament,0.6,11,standard,None,100,,,,,,,f,28,240,fr,r,0,prac,2023-05-15_09h11.36.018,oddball,2022.2.5,60.04383199734296,
5,,,,,0,0,0,1,7,0,7,0,29,0,29,0,,,,,,,,,,,,,,,,,1066.7773914999998,1067.3770000999998,1067.3770000999998,1067.9598173,1067.9763373,0.6154683999998269,1069.9746915,2.63064039999972,None,1,decreament,0.6,11,standard,None,100,,,,,,,f,28,240,fr,r,0,prac,2023-05-15_09h11.36.018,oddball,2022.2.5,60.04383199734296,
5,,,,,0,0,0,1,8,0,8,0,0,0,0,0,,,,,,,,,,,,,,,1104.3798679000001,1104.3798679000001,1106.078411,1106.6112282999998,1106.6112282999998,1107.2108008999999,1107.2108008999999,0.5990606000000298,1109.2258109,2.613669899999877,None,1,increament,0.6,15,standard,None,100,,1070.0081300000002,0.0008154000001923123,,,,f,28,240,fr,r,0,prac,2023-05-15_09h11.36.018,oddball,2022.2.5,60.04383199734296,
5,,,,,0,0,0,1,8,0,8,0,1,0,1,0,,,,,,,,,,,,,,,,,1109.2258109,1109.8084979,1109.8084979,1110.4080712999998,1110.4080712999998,0.6155595000000176,1112.4231802,2.6306580000000395,None,1,increament,0.6,15,standard,None,100,,,,,,,f,28,240,fr,r,0,prac,2023-05-15_09h11.36.018,oddball,2022.2.5,60.04383199734296,
5,,,,,0,0,0,1,8,0,8,0,2,0,2,0,,,,,,,,,,,,,,,,,1112.4397473,1113.0890857999998,1113.0890857999998,1113.6885438999998,1113.6885438999998,0.6152741000000788,1115.7036973999998,2.6304285999999593,None,1,increament,0.6,15,standard,None,100,,,,,,,f,28,240,fr,r,0,prac,2023-05-15_09h11.36.018,oddball,2022.2.5,60.04383199734296,
5,,,,,0,0,0,1,8,0,8,0,3,0,3,0,,,,,,,,,,,,,,,,,1115.7203153,1116.4531842000001,1116.4531842000001,1117.0525158,1117.0525158,0.6151961000000483,1119.067579,2.6302644000002147,None,1,increament,0.6,15,standard,None,100,,,,,,,f,28,240,fr,r,0,prac,2023-05-15_09h11.36.018,oddball,2022.2.5,60.04383199734296,
5,,,,,0,0,0,1,8,0,8,0,4,0,4,0,,,,,,,,,,,,,,,,,1119.0842893999998,1119.7670589,1119.7670589,1120.3665575999999,1120.3665575999999,0.6153113999998823,1122.3815313,2.630272899999909,None,1,increament,0.6,15,standard,None,100,,,,,,,f,28,240,fr,r,0,prac,2023-05-15_09h11.36.018,oddball,2022.2.5,60.04383199734296,
5,,,,,0,0,0,1,8,0,8,0,5,0,5,0,,,,,,,,,,,,,,,,,1122.3982655999998,1122.9644122,1122.9644122,1123.5639354,1123.5639354,0.6153268999996726,1125.5789076,2.630289400000038,None,1,increament,0.6,15,standard,None,100,,,,,,,f,28,240,fr,r,0,prac,2023-05-15_09h11.36.018,oddball,2022.2.5,60.04383199734296,
5,,,,,0,0,0,1,8,0,8,0,6,0,6,0,,,,,,,,,,,,,,,,,1125.5954745,1126.2282602,1126.2282602,1126.8277466999998,1126.8277466999998,0.6152087999998912,1128.8430250000001,2.6305122999997366,None,1,increament,0.6,15,standard,None,100,,,,,,,f,28,240,fr,r,0,prac,2023-05-15_09h11.36.018,oddball,2022.2.5,60.04383199734296,
5,,,,,0,0,0,1,8,0,8,0,7,0,7,0,,,,,,,,,,,,,,,,,1128.8595268,1129.4590423,1129.4590423,1130.0419071000001,1130.0585114,0.5991235000001325,1132.056861,2.6140752000001157,None,1,increament,0.6,15,standard,None,100,,,,,,,f,28,240,fr,r,0,prac,2023-05-15_09h11.36.018,oddball,2022.2.5,60.04383199734296,
5,,,,,0,0,0,1,8,0,8,0,8,0,8,0,,,,,,,,,,,,,,,,,1132.073319,1132.6729326999998,1132.6729326999998,1133.2723827,1133.2723827,0.6152777000002061,1135.2876107000002,2.630508000000191,None,1,increament,0.6,15,standard,None,100,,,,,,,f,28,240,fr,r,0,prac,2023-05-15_09h11.36.018,oddball,2022.2.5,60.04383199734296,
5,,,,,0,0,0,1,8,0,8,0,9,0,9,0,,,,,,,,,,,,,,,,,1135.3041829,1136.0701589999999,1136.0701589999999,1136.6694750000001,1136.6694750000001,0.6151117000003978,1138.6848189000002,2.6304402000000664,None,1,increament,0.6,15,standard,None,100,,,,,,,f,28,240,fr,r,0,prac,2023-05-15_09h11.36.018,oddball,2022.2.5,60.04383199734296,
5,,,,,0,0,0,1,8,0,8,0,10,0,10,0,,,,,,,,,,,,,,,,,1138.7015101000002,1139.3008205,1139.3008205,1140.0167984999998,1140.0335546000001,0.7318070000001171,1142.0318997,2.7469285000001946,None,0,increament,0.72,16,oddball,j,120,,,,,,,f,28,240,fr,r,0,prac,2023-05-15_09h11.36.018,oddball,2022.2.5,60.04383199734296,
5,,,,,0,0,0,1,8,0,8,0,11,0,11,0,,,,,,,,,,,,,,,,,1142.0486569999998,1142.6146330000001,1142.6146330000001,1143.2142422000002,1143.2142422000002,0.6153393999998116,1145.2291851,2.6302890000001753,None,1,increament,0.6,15,standard,None,100,,,,,,,f,28,240,fr,r,0,prac,2023-05-15_09h11.36.018,oddball,2022.2.5,60.04383199734296,
5,,,,,0,0,0,1,8,0,8,0,12,0,12,0,,,,,,,,,,,,,,,,,1145.2463899999998,1145.9288256,1145.9288256,1146.5282389,1146.5282389,0.6153768999997737,1148.5434378999998,2.6305600999999115,None,1,increament,0.6,15,standard,None,100,,,,,,,f,28,240,fr,r,0,prac,2023-05-15_09h11.36.018,oddball,2022.2.5,60.04383199734296,
5,,,,,0,0,0,1,8,0,8,0,13,0,13,0,,,,,,,,,,,,,,,,,1148.5598200999998,1149.1261402,1149.1261402,1149.7089634,1149.7256112999999,0.5990096000000449,1151.7239650000001,2.614005200000065,None,1,increament,0.6,15,standard,None,100,,,,,,,f,28,240,fr,r,0,prac,2023-05-15_09h11.36.018,oddball,2022.2.5,60.04383199734296,
5,,,,,0,0,0,1,8,0,8,0,14,0,14,0,,,,,,,,,,,,,,,,,1151.7405171,1152.3066174,1152.3066174,1152.9062465000002,1152.9062465000002,0.6152108999999655,1154.9213909,2.630343499999981,None,1,increament,0.6,15,standard,None,100,,,,,,,f,28,240,fr,r,0,prac,2023-05-15_09h11.36.018,oddball,2022.2.5,60.04383199734296,
5,,,,,0,0,0,1,8,0,8,0,15,0,15,0,,,,,,,,,,,,,,,,,1154.937848,1155.7706171,1155.7706171,1156.3700641,1156.3700641,0.6155371999998351,1158.3851138999999,2.6305882999999994,j,0,increament,0.6,15,standard,None,100,0.9711722000001828,,,,,,f,28,240,fr,r,0,prac,2023-05-15_09h11.36.018,oddball,2022.2.5,60.04383199734296,
5,,,,,0,0,0,1,8,0,8,0,16,0,16,0,,,,,,,,,,,,,,,,,1158.4017990000002,1159.0344571,1159.0344571,1159.9837077000002,1160.0004987000002,0.9651797999999872,1161.9987037,2.980186099999628,j,1,increament,0.96,18,oddball,j,160,1.0343846000000667,,,,,,f,28,240,fr,r,0,prac,2023-05-15_09h11.36.018,oddball,2022.2.5,60.04383199734296,
5,,,,,0,0,0,1,8,0,8,0,17,0,17,0,,,,,,,,,,,,,,,,,1162.0154819,1162.6481893999999,1162.6481893999999,1163.2477903,1163.2477903,0.6153495999997176,1165.2625856,2.63013409999985,None,1,increament,0.6,15,standard,None,100,,,,,,,f,28,240,fr,r,0,prac,2023-05-15_09h11.36.018,oddball,2022.2.5,60.04383199734296,
5,,,,,0,0,0,1,8,0,8,0,18,0,18,0,,,,,,,,,,,,,,,,,1165.2794858000002,1166.0453515999998,1166.0453515999998,1166.6449069999999,1166.6449069999999,0.6153847000000496,1168.6600776,2.6305428000000575,None,1,increament,0.6,15,standard,None,100,,,,,,,f,28,240,fr,r,0,prac,2023-05-15_09h11.36.018,oddball,2022.2.5,60.04383199734296,
5,,,,,0,0,0,1,8,0,8,0,19,0,19,0,,,,,,,,,,,,,,,,,1168.6765903,1169.3261358,1169.3261358,1169.9256894999999,1169.9256894999999,0.6156295999999202,1171.9405861,2.630509399999937,None,1,increament,0.6,15,standard,None,100,,,,,,,f,28,240,fr,r,0,prac,2023-05-15_09h11.36.018,oddball,2022.2.5,60.04383199734296,
5,,,,,0,0,0,1,8,0,8,0,20,0,20,0,,,,,,,,,,,,,,,,,1171.9572518999998,1172.5402316999998,1172.5402316999998,1173.1396725,1173.1396725,0.5990263000003324,1175.1546878,2.614009100000203,None,1,increament,0.6,15,standard,None,100,,,,,,,f,28,240,fr,r,0,prac,2023-05-15_09h11.36.018,oddball,2022.2.5,60.04383199734296,
5,,,,,0,0,0,1,8,0,8,0,21,0,21,0,,,,,,,,,,,,,,,,,1175.1546878,1175.6873962999998,1175.6873962999998,1176.2869257000002,1176.2869257000002,0.6152340000003278,1178.3019430999998,2.6302176000003783,None,1,increament,0.6,15,standard,None,100,,,,,,,f,28,240,fr,r,0,prac,2023-05-15_09h11.36.018,oddball,2022.2.5,60.04383199734296,
5,,,,,0,0,0,1,8,0,8,0,22,0,22,0,,,,,,,,,,,,,,,,,1178.3187669,1178.8517281999998,1178.8517281999998,1179.6840843,1179.7007862,0.8482137000000876,1181.6993214,2.8634735000000546,j,1,increament,0.84,17,oddball,j,140,0.7400547000002007,,,,,,f,28,240,fr,r,0,prac,2023-05-15_09h11.36.018,oddball,2022.2.5,60.04383199734296,
5,,,,,0,0,0,1,8,0,8,0,23,0,23,0,,,,,,,,,,,,,,,,,1181.7158586,1182.3819939999998,1182.3819939999998,1182.9814701,1182.9814701,0.5990744000000632,1184.9966086,2.614037499999995,None,1,increament,0.6,15,standard,None,100,,,,,,,f,28,240,fr,r,0,prac,2023-05-15_09h11.36.018,oddball,2022.2.5,60.04383199734296,
5,,,,,0,0,0,1,8,0,8,0,24,0,24,0,,,,,,,,,,,,,,,,,1184.9966086,1185.6958581,1185.6958581,1186.2788289,1186.2954073,0.5990912000002027,1188.2938040999998,2.614042000000154,None,1,increament,0.6,15,standard,None,100,,,,,,,f,28,240,fr,r,0,prac,2023-05-15_09h11.36.018,oddball,2022.2.5,60.04383199734296,
5,,,,,0,0,0,1,8,0,8,0,25,0,25,0,,,,,,,,,,,,,,,,,1188.3103842,1189.0431493,1189.0431493,1189.6425491,1189.6425491,0.615260699999908,1191.657749,2.6306586000000607,None,1,increament,0.6,15,standard,None,100,,,,,,,f,28,240,fr,r,0,prac,2023-05-15_09h11.36.018,oddball,2022.2.5,60.04383199734296,
5,,,,,0,0,0,1,8,0,8,0,26,0,26,0,,,,,,,,,,,,,,,,,1191.6740973,1192.2737637,1192.2737637,1192.8731607999998,1192.8731607999998,0.6154876999999033,1194.8882863,2.630601100000149,None,1,increament,0.6,15,standard,None,100,,,,,,,f,28,240,fr,r,0,prac,2023-05-15_09h11.36.018,oddball,2022.2.5,60.04383199734296,
5,,,,,0,0,0,1,8,0,8,0,27,0,27,0,,,,,,,,,,,,,,,,,1194.9048764,1195.571046,1195.571046,1196.1706035000002,1196.1706035000002,0.6155954999999267,1198.1857062999998,2.6306950999996843,None,1,increament,0.6,15,standard,None,100,,,,,,,f,28,240,fr,r,0,prac,2023-05-15_09h11.36.018,oddball,2022.2.5,60.04383199734296,
5,,,,,0,0,0,1,8,0,8,0,28,0,28,0,,,,,,,,,,,,,,,,,1198.2023838999999,1198.7851421,1198.7851421,1199.3846918999998,1199.3846918999998,0.6156482999999753,1201.3995604000002,2.6305373000000145,None,1,increament,0.6,15,standard,None,100,,,,,,,f,28,240,fr,r,0,prac,2023-05-15_09h11.36.018,oddball,2022.2.5,60.04383199734296,
5,,,,,0,0,0,1,8,0,8,0,29,0,29,0,,,,,,,,,,,,,,,,,1201.4163067,1202.0157887,1202.0157887,1202.6152278999998,1202.6152278999998,0.6152570999997806,1204.630694,2.6308054999999513,None,1,increament,0.6,15,standard,None,100,,,,,,,f,28,240,fr,r,0,prac,2023-05-15_09h11.36.018,oddball,2022.2.5,60.04383199734296,
5,,,,,0,0,0,1,9,0,9,0,0,0,0,0,,,,,,,,,,,,,,,1242.5324185,1242.5324185,1245.5964556,1246.3458366999998,1246.3458366999998,1246.9453293000001,1246.9453293000001,0.6154744000000392,1248.960352,2.630484400000114,None,1,decreament,0.6,11,standard,None,100,,1204.6470174,0.000738900000214926,,,,f,28,240,fr,r,0,prac,2023-05-15_09h11.36.018,oddball,2022.2.5,60.04383199734296,
5,,,,,0,0,0,1,9,0,9,0,1,0,1,0,,,,,,,,,,,,,,,,,1248.9769972999998,1249.7263984,1249.7263984,1250.3260252999999,1250.3260252999999,0.6153715000000375,1252.3407642000002,2.630105100000037,None,1,decreament,0.6,11,standard,None,100,,,,,,,f,28,240,fr,r,0,prac,2023-05-15_09h11.36.018,oddball,2022.2.5,60.04383199734296,
5,,,,,0,0,0,1,9,0,9,0,2,0,2,0,,,,,,,,,,,,,,,,,1252.3575563999998,1253.2234991,1253.2234991,1253.8229316000002,1253.8229316000002,0.6151688999998441,1255.8379218,2.6301730000000134,None,1,decreament,0.6,11,standard,None,100,,,,,,,f,28,240,fr,r,0,prac,2023-05-15_09h11.36.018,oddball,2022.2.5,60.04383199734296,
5,,,,,0,0,0,1,9,0,9,0,3,0,3,0,,,,,,,,,,,,,,,,,1255.8547474000002,1256.5206853999998,1256.5206853999998,1257.1202618000002,1257.1202618000002,0.6154946999999993,1259.1351716999998,2.630397599999924,None,1,decreament,0.6,11,standard,None,100,,,,,,,f,28,240,fr,r,0,prac,2023-05-15_09h11.36.018,oddball,2022.2.5,60.04383199734296,
5,,,,,0,0,0,1,9,0,9,0,4,0,4,0,,,,,,,,,,,,,,,,,1259.1518989,1259.7513841,1259.7513841,1260.3508112999998,1260.3508112999998,0.6153036999999131,1262.3657707000002,2.6302709000001414,None,1,decreament,0.6,11,standard,None,100,,,,,,,f,28,240,fr,r,0,prac,2023-05-15_09h11.36.018,oddball,2022.2.5,60.04383199734296,
5,,,,,0,0,0,1,9,0,9,0,5,0,5,0,,,,,,,,,,,,,,,,,1262.3825698,1263.0487871,1263.0487871,1263.6482809,1263.6482809,0.5990080999999918,1265.6632610000001,2.6140881000001173,None,1,decreament,0.6,11,standard,None,100,,,,,,,f,28,240,fr,r,0,prac,2023-05-15_09h11.36.018,oddball,2022.2.5,60.04383199734296,
5,,,,,0,0,0,1,9,0,9,0,6,0,6,0,,,,,,,,,,,,,,,,,1265.6632610000001,1266.3129432,1266.3129432,1266.9120165999998,1266.9120165999998,0.5991080000003421,1268.9272307,2.613939300000311,None,1,decreament,0.6,11,standard,None,100,,,,,,,f,28,240,fr,r,0,prac,2023-05-15_09h11.36.018,oddball,2022.2.5,60.04383199734296,
5,,,,,0,0,0,1,9,0,9,0,7,0,7,0,,,,,,,,,,,,,,,,,1268.9272307,1269.5933432000002,1269.5933432000002,1270.1928755,1270.1928755,0.6153133999996498,1272.2077204000002,2.6301743999997598,None,1,decreament,0.6,11,standard,None,100,,,,,,,f,28,240,fr,r,0,prac,2023-05-15_09h11.36.018,oddball,2022.2.5,60.04383199734296,
5,,,,,0,0,0,1,9,0,9,0,8,0,8,0,,,,,,,,,,,,,,,,,1272.2244987999998,1272.8907543999999,1272.8907543999999,1273.4900601999998,1273.4900601999998,0.5990195999997923,1275.5049457,2.613751599999887,None,1,decreament,0.6,11,standard,None,100,,,,,,,f,28,240,fr,r,0,prac,2023-05-15_09h11.36.018,oddball,2022.2.5,60.04383199734296,
5,,,,,0,0,0,1,9,0,9,0,9,0,9,0,,,,,,,,,,,,,,,,,1275.5049457,1276.1545713,1276.1545713,1276.7541101000002,1276.7541101000002,0.6155052999997679,1278.7690681999998,2.6304227000000537,None,1,decreament,0.6,11,standard,None,100,,,,,,,f,28,240,fr,r,0,prac,2023-05-15_09h11.36.018,oddball,2022.2.5,60.04383199734296,
5,,,,,0,0,0,1,9,0,9,0,10,0,10,0,,,,,,,,,,,,,,,,,1278.7857720000002,1279.4852319000001,1279.4852319000001,1280.0848065999999,1280.0848065999999,0.6157624000002215,1282.0997149999998,2.6306618000003255,None,1,decreament,0.6,11,standard,None,100,,,,,,,f,28,240,fr,r,0,prac,2023-05-15_09h11.36.018,oddball,2022.2.5,60.04383199734296,
5,,,,,0,0,0,1,9,0,9,0,11,0,11,0,,,,,,,,,,,,,,,,,1282.1163256999998,1282.7491424,1282.7491424,1283.3486197000002,1283.3486197000002,0.6155423000000155,1285.3636857000001,2.630614300000161,None,1,decreament,0.6,11,standard,None,100,,,,,,,f,28,240,fr,r,0,prac,2023-05-15_09h11.36.018,oddball,2022.2.5,60.04383199734296,
5,,,,,0,0,0,1,9,0,9,0,12,0,12,0,,,,,,,,,,,,,,,,,1285.3803167,1286.0963585999998,1286.0963585999998,1286.6958370000002,1286.6958370000002,0.6156467999999222,1288.7109252999999,2.6307543000002624,None,1,decreament,0.6,11,standard,None,100,,,,,,,f,28,240,fr,r,0,prac,2023-05-15_09h11.36.018,oddball,2022.2.5,60.04383199734296,
5,,,,,0,0,0,1,9,0,9,0,13,0,13,0,,,,,,,,,,,,,,,,,1288.7275863,1289.3935652,1289.3935652,1289.9929775,1289.9929775,0.6151562000000013,1292.0082508,2.6304285999999593,j,0,decreament,0.6,11,standard,None,100,1.224999900000057,,,,,,f,28,240,fr,r,0,prac,2023-05-15_09h11.36.018,oddball,2022.2.5,60.04383199734296,
5,,,,,0,0,0,1,9,0,9,0,14,0,14,0,,,,,,,,,,,,,,,,,1292.0248184000002,1292.7409566000001,1292.7409566000001,1293.3403677000001,1293.3403677000001,0.5992102999998679,1295.3552524000002,2.6139932999999473,None,1,decreament,0.6,11,standard,None,100,,,,,,,f,28,240,fr,r,0,prac,2023-05-15_09h11.36.018,oddball,2022.2.5,60.04383199734296,
5,,,,,0,0,0,1,9,0,9,0,15,0,15,0,,,,,,,,,,,,,,,,,1295.3552524000002,1296.0217489000001,1296.0217489000001,1296.6209333999996,1296.6209333999996,0.6155079000000114,1298.6358362,2.6304079000001366,j,0,decreament,0.6,11,standard,None,100,1.42769780000026,,,,,,f,28,240,fr,r,0,prac,2023-05-15_09h11.36.018,oddball,2022.2.5,60.04383199734296,
5,,,,,0,0,0,1,9,0,9,0,16,0,16,0,,,,,,,,,,,,,,,,,1298.6526418000003,1299.1855068000004,1299.1855068000004,1299.4187390999996,1299.4351963,0.2492033000007723,1301.4337035999997,2.2641809000006106,j,1,decreament,0.24,12,oddball,j,40,1.1937829000003148,,,,,,f,28,240,fr,r,0,prac,2023-05-15_09h11.36.018,oddball,2022.2.5,60.04383199734296,
5,,,,,0,0,0,1,9,0,9,0,17,0,17,0,,,,,,,,,,,,,,,,,1301.4504014000004,1302.0165218000002,1302.0165218000002,1302.6160692000003,1302.6160692000003,0.6156137999996645,1304.6308602,2.630383599999732,None,1,decreament,0.6,11,standard,None,100,,,,,,,f,28,240,fr,r,0,prac,2023-05-15_09h11.36.018,oddball,2022.2.5,60.04383199734296,
5,,,,,0,0,0,1,9,0,9,0,18,0,18,0,,,,,,,,,,,,,,,,,1304.6478759000001,1305.3804415000004,1305.3804415000004,1305.9799031000002,1305.9799031000002,0.5990156000007119,1307.9950580000004,2.6139572000001863,None,1,decreament,0.6,11,standard,None,100,,,,,,,f,28,240,fr,r,0,prac,2023-05-15_09h11.36.018,oddball,2022.2.5,60.04383199734296,
5,,,,,0,0,0,1,9,0,9,0,19,0,19,0,,,,,,,,,,,,,,,,,1307.9950580000004,1308.6277614,1308.6277614,1309.2271447000003,1309.2271447000003,0.6151669999999285,1311.2422643999998,2.630295599999954,None,1,decreament,0.6,11,standard,None,100,,,,,,,f,28,240,fr,r,0,prac,2023-05-15_09h11.36.018,oddball,2022.2.5,60.04383199734296,
5,,,,,0,0,0,1,9,0,9,0,20,0,20,0,,,,,,,,,,,,,,,,,1311.2590707999998,1311.8916628999996,1311.8916628999996,1312.4912310999998,1312.4912310999998,0.599033700000291,1314.5062257999998,2.6139616000000387,None,1,decreament,0.6,11,standard,None,100,,,,,,,f,28,240,fr,r,0,prac,2023-05-15_09h11.36.018,oddball,2022.2.5,60.04383199734296,
5,,,,,0,0,0,1,9,0,9,0,21,0,21,0,,,,,,,,,,,,,,,,,1314.5062257999998,1315.2223646000002,1315.2223646000002,1315.6887417999997,1315.7051665999998,0.4824740000003658,1317.7036251,2.497370900000533,None,0,decreament,0.48,14,oddball,j,80,,,,,,,f,28,240,fr,r,0,prac,2023-05-15_09h11.36.018,oddball,2022.2.5,60.04383199734296,
5,,,,,0,0,0,1,9,0,9,0,22,0,22,0,,,,,,,,,,,,,,,,,1317.7202716000002,1318.3032239000004,1318.3032239000004,1318.9025607000003,1318.9025607000003,0.6152592999997069,1320.9175976999995,2.630294700000377,None,1,decreament,0.6,11,standard,None,100,,,,,,,f,28,240,fr,r,0,prac,2023-05-15_09h11.36.018,oddball,2022.2.5,60.04383199734296,
5,,,,,0,0,0,1,9,0,9,0,23,0,23,0,,,,,,,,,,,,,,,,,1320.9341169,1321.5170649000002,1321.5170649000002,1322.1165631000003,1322.1165631000003,0.6155129999997371,1324.1316527,2.6306094999999914,None,1,decreament,0.6,11,standard,None,100,,,,,,,f,28,240,fr,r,0,prac,2023-05-15_09h11.36.018,oddball,2022.2.5,60.04383199734296,
5,,,,,0,0,0,1,9,0,9,0,24,0,24,0,,,,,,,,,,,,,,,,,1324.1483245999998,1324.8144788,1324.8144788,1325.4137898,1325.4137898,0.615407100000084,1327.4289378000003,2.63054000000011,None,1,decreament,0.6,11,standard,None,100,,,,,,,f,28,240,fr,r,0,prac,2023-05-15_09h11.36.018,oddball,2022.2.5,60.04383199734296,
5,,,,,0,0,0,1,9,0,9,0,25,0,25,0,,,,,,,,,,,,,,,,,1327.4455878999997,1328.1116886999998,1328.1116886999998,1328.7110661999996,1328.7110661999996,0.5990649999994275,1330.7261667000002,2.613964699999997,None,1,decreament,0.6,11,standard,None,100,,,,,,,f,28,240,fr,r,0,prac,2023-05-15_09h11.36.018,oddball,2022.2.5,60.04383199734296,
5,,,,,0,0,0,1,9,0,9,0,26,0,26,0,,,,,,,,,,,,,,,,,1330.7261667000002,1331.3924570999998,1331.3924570999998,1331.7420076999997,1331.7585397000003,0.36586979999992764,1333.7570303000002,2.3808775999996215,j,1,decreament,0.36,13,oddball,j,60,1.4805365000006532,,,,,,f,28,240,fr,r,0,prac,2023-05-15_09h11.36.018,oddball,2022.2.5,60.04383199734296,
5,,,,,0,0,0,1,9,0,9,0,27,0,27,0,,,,,,,,,,,,,,,,,1333.7736781000003,1334.3065674,1334.3065674,1334.9059496999998,1334.9059496999998,0.6154090999998516,1336.9209870000004,2.6304452999993373,None,1,decreament,0.6,11,standard,None,100,,,,,,,f,28,240,fr,r,0,prac,2023-05-15_09h11.36.018,oddball,2022.2.5,60.04383199734296,
5,,,,,0,0,0,1,9,0,9,0,28,0,28,0,,,,,,,,,,,,,,,,,1336.9377482,1337.7370883000003,1337.7370883000003,1338.3366763000004,1338.3366763000004,0.6155561000005036,1340.3514164999997,2.630254900000182,None,1,decreament,0.6,11,standard,None,100,,,,,,,f,28,240,fr,r,0,prac,2023-05-15_09h11.36.018,oddball,2022.2.5,60.04383199734296,
5,,,,,0,0,0,1,9,0,9,0,29,0,29,0,,,,,,,,,,,,,,,,,1340.3681575,1341.2507244999997,1341.2507244999997,1341.8502214999999,1341.8502214999999,0.6153475000000981,1343.8653156999999,2.630437400000119,None,1,decreament,0.6,11,standard,None,100,,,,,,,f,28,240,fr,r,0,prac,2023-05-15_09h11.36.018,oddball,2022.2.5,60.04383199734296,
10,,,,,0,1,1,2,0,0,0,0,0,0,0,0,,,,,,,,,,,,,,,1533.5087964000004,1533.5087964000004,1540.4532184999998,1541.1025922,1541.1025922,1541.6853099999998,1541.7021667,0.5990560000000187,1543.7003559000004,2.6141027000003305,None,1,increament,0.6,25,standard,None,100,,1523.9000158999997,0.0014504000000670203,1343.8857294999998,1523.9000158999997,,f,28,240,fr,r,0,prac,2023-05-15_09h11.36.018,oddball,2022.2.5,60.04383199734296,
10,,,,,0,1,1,2,0,0,0,0,1,0,1,0,,,,,,,,,,,,,,,,,1543.717157,1544.3498565,1544.3498565,1544.9327396999997,1544.9496356999998,0.5990567999997438,1546.9478528999998,2.6141599000002316,None,1,increament,0.6,25,standard,None,100,,,,,,,f,28,240,fr,r,0,prac,2023-05-15_09h11.36.018,oddball,2022.2.5,60.04383199734296,
10,,,,,0,1,1,2,0,0,0,0,2,0,2,0,,,,,,,,,,,,,,,,,1546.9643962999999,1547.7304261,1547.7304261,1548.3298510000004,1548.3298510000004,0.615313100000094,1550.3448901000002,2.6303508000000875,None,1,increament,0.6,25,standard,None,100,,,,,,,f,28,240,fr,r,0,prac,2023-05-15_09h11.36.018,oddball,2022.2.5,60.04383199734296,
10,,,,,0,1,1,2,0,0,0,0,3,0,3,0,,,,,,,,,,,,,,,,,1550.3617345000002,1550.9442658999997,1550.9442658999997,1551.5271922000002,1551.5439085999997,0.6156668000003265,1553.5423327999997,2.630755700000009,None,1,increament,0.6,25,standard,None,100,,,,,,,f,28,240,fr,r,0,prac,2023-05-15_09h11.36.018,oddball,2022.2.5,60.04383199734296,
10,,,,,0,1,1,2,0,0,0,0,4,0,4,0,,,,,,,,,,,,,,,,,1553.5755879999997,1554.2748941,1554.2748941,1554.8742829000003,1554.8742829000003,0.6153090999996493,1556.8895317999995,2.6305701999999656,None,1,increament,0.6,25,standard,None,100,,,,,,,f,28,240,fr,r,0,prac,2023-05-15_09h11.36.018,oddball,2022.2.5,60.04383199734296,
10,,,,,0,1,1,2,0,0,0,0,5,0,5,0,,,,,,,,,,,,,,,,,1556.9061859000003,1557.6055816999997,1557.6055816999997,1558.2049866999996,1558.2049866999996,0.6154865999997128,1560.220096,2.6305836000001364,None,1,increament,0.6,25,standard,None,100,,,,,,,f,28,240,fr,r,0,prac,2023-05-15_09h11.36.018,oddball,2022.2.5,60.04383199734296,
10,,,,,0,1,1,2,0,0,0,0,6,0,6,0,,,,,,,,,,,,,,,,,1560.2366712000003,1560.8195784999998,1560.8195784999998,1561.4191265,1561.4191265,0.6155013999996299,1563.4342018999996,2.630557200000112,None,1,increament,0.6,25,standard,None,100,,,,,,,f,28,240,fr,r,0,prac,2023-05-15_09h11.36.018,oddball,2022.2.5,60.04383199734296,
10,,,,,0,1,1,2,0,0,0,0,7,0,7,0,,,,,,,,,,,,,,,,,1563.450664,1564.200143,1564.200143,1564.7998473999996,1564.7998473999996,0.6155103999999483,1566.8146054999997,2.6302192000002833,None,1,increament,0.6,25,standard,None,100,,,,,,,f,28,240,fr,r,0,prac,2023-05-15_09h11.36.018,oddball,2022.2.5,60.04383199734296,
