grating_freq,blocks_prac.thisRepN,blocks_prac.thisTrialN,blocks_prac.thisN,blocks_prac.thisIndex,blocks.thisRepN,blocks.thisTrialN,blocks.thisN,blocks.thisIndex,repeat_freq.thisRepN,repeat_freq.thisTrialN,repeat_freq.thisN,repeat_freq.thisIndex,trials.thisRepN,trials.thisTrialN,trials.thisN,trials.thisIndex,break_loop.thisRepN,break_loop.thisTrialN,break_loop.thisN,break_loop.thisIndex,rest_loop.thisRepN,rest_loop.thisTrialN,rest_loop.thisN,rest_loop.thisIndex,instruct_prac_text.started,instruct_prac_text.stopped,b_instruct_text_2_.started,b_instruct_text_2_.stopped,prac_done_text.started,prac_done_text.stopped,instruct_text.started,instruct_text.stopped,fixation.started,fixation.stopped,grating.started,grating.stopped,blank.started,blank.stopped,resp.keys,resp.corr,resp.started,resp.stopped,direction,duration,trigger,stim_type,corr_ans,scaling,resp.rt,rest_text.started,rest_text.stopped,text_2.started,text_2.stopped,thx_txt.started,thx_txt.stopped,gender,age,participant,language,main_hand,nBlock_prac,file_suffix,date,expName,psychopyVersion,frameRate,
0,,,,,0,0,0,0,0,0,0,0,0,0,0,0,,,,,,,,,33.52147359994706,None,36.50018299999647,None,39.82615600002464,None,43.6498534999555,None,45.98706059996039,None,46.773379700025544,47.387559599941596,47.33737900003325,49.33856059995014,None,1,0.6128859999589622,2.6141280999872833,decreament,0.6,1,standard,None,100,,,,,,,,f,22,202,en,r,0,raw,2022-05-10_10h32.30.793,oddball,2022.1.2,59.94075455366855,
0,,,,,0,0,0,0,0,0,0,0,1,0,1,0,,,,,,,,,,,,,,,,,49.35577899997588,None,49.88841329992283,50.48882159998175,50.47206840000581,52.473165999981575,None,1,0.6139895999804139,2.6151197999715805,decreament,0.6,1,standard,None,100,,,,,,,,f,22,202,en,r,0,raw,2022-05-10_10h32.30.793,oddball,2022.1.2,59.94075455366855,
0,,,,,0,0,0,0,0,0,0,0,2,0,2,0,,,,,,,,,,,,,,,,,52.490923100034706,None,53.15624799998477,53.75667879998218,53.73997579992283,55.74087069998495,None,1,0.6069160000188276,2.6078090999508277,decreament,0.6,1,standard,None,100,,,,,,,,f,22,202,en,r,0,raw,2022-05-10_10h32.30.793,oddball,2022.1.2,59.94075455366855,
0,,,,,0,0,0,0,0,0,0,0,3,0,3,0,,,,,,,,,,,,,,,,,55.75723709992599,None,56.424232900026254,57.02431779995095,57.00776950002182,59.00849359994754,None,1,0.6111154998652637,2.6118385998997837,decreament,0.6,1,standard,None,100,,,,,,,,f,22,202,en,r,0,raw,2022-05-10_10h32.30.793,oddball,2022.1.2,59.94075455366855,
0,,,,,0,0,0,0,0,0,0,0,4,0,4,0,,,,,,,,,,,,,,,,,59.02509749995079,None,59.775616799946874,60.37563309993129,60.35887420002837,62.36005869996734,None,1,0.6104317000135779,2.6116347999777645,decreament,0.6,1,standard,None,100,,,,,,,,f,22,202,en,r,0,raw,2022-05-10_10h32.30.793,oddball,2022.1.2,59.94075455366855,
0,,,,,0,0,0,0,0,0,0,0,5,0,5,0,,,,,,,,,,,,,,,,,62.37676749995444,None,63.176732199965045,63.77680190000683,63.760218099923804,65.76090150000528,None,1,0.6134596000192687,2.61415689997375,decreament,0.6,1,standard,None,100,,,,,,,,f,22,202,en,r,0,raw,2022-05-10_10h32.30.793,oddball,2022.1.2,59.94075455366855,
0,,,,,0,0,0,0,0,0,0,0,6,0,6,0,,,,,,,,,,,,,,,,,65.77758889994584,None,66.46125669998582,66.94474659999833,66.9286861999426,68.92915630002972,j,1,0.4930936999153346,2.4934958999510854,decreament,0.48,4,oddball,j,80,0.5218703000573441,,,,,,,f,22,202,en,r,0,raw,2022-05-10_10h32.30.793,oddball,2022.1.2,59.94075455366855,
0,,,,,0,0,0,0,0,0,0,0,7,0,7,0,,,,,,,,,,,,,,,,,68.94553609995637,None,69.57933380000759,70.17922009993345,70.16273580002598,72.16390990000218,None,1,0.6126376000465825,2.613888700027019,decreament,0.6,1,standard,None,100,,,,,,,,f,22,202,en,r,0,raw,2022-05-10_10h32.30.793,oddball,2022.1.2,59.94075455366855,
0,,,,,0,0,0,0,0,0,0,0,8,0,8,0,,,,,,,,,,,,,,,,,72.18128070002422,None,72.98060729994904,73.58133279997855,73.5644309000345,75.56462810002267,None,1,0.6133180999895558,2.613411600003019,decreament,0.6,1,standard,None,100,,,,,,,,f,22,202,en,r,0,raw,2022-05-10_10h32.30.793,oddball,2022.1.2,59.94075455366855,
0,,,,,0,0,0,0,0,0,0,0,9,0,9,0,,,,,,,,,,,,,,,,,75.58161300001666,None,76.36540060001425,76.96518920001108,76.94865759997629,78.94919569999911,None,1,0.6097029000520706,2.610398100106977,decreament,0.6,1,standard,None,100,,,,,,,,f,22,202,en,r,0,raw,2022-05-10_10h32.30.793,oddball,2022.1.2,59.94075455366855,
0,,,,,0,0,0,0,0,0,0,0,10,0,10,0,,,,,,,,,,,,,,,,,78.96602890000213,None,79.7498074999312,80.34983530000318,80.33339089993387,82.33385709999129,None,1,0.612178000039421,2.612605500034988,decreament,0.6,1,standard,None,100,,,,,,,,f,22,202,en,r,0,raw,2022-05-10_10h32.30.793,oddball,2022.1.2,59.94075455366855,
0,,,,,0,0,0,0,0,0,0,0,11,0,11,0,,,,,,,,,,,,,,,,,82.35040520003531,None,83.03399259992875,83.63461599999573,83.61799259996042,85.61845730000641,None,1,0.6141969000454992,2.6146280000684783,decreament,0.6,1,standard,None,100,,,,,,,,f,22,202,en,r,0,raw,2022-05-10_10h32.30.793,oddball,2022.1.2,59.94075455366855,
0,,,,,0,0,0,0,0,0,0,0,12,0,12,0,,,,,,,,,,,,,,,,,85.63499619998038,None,86.35227589996066,86.95223259995691,86.93552469997667,88.93651549995411,None,1,0.6115471000084653,2.6125975000904873,decreament,0.6,1,standard,None,100,,,,,,,,f,22,202,en,r,0,raw,2022-05-10_10h32.30.793,oddball,2022.1.2,59.94075455366855,
0,,,,,0,0,0,0,0,0,0,0,13,0,13,0,,,,,,,,,,,,,,,,,88.9534576999722,None,89.73675699997693,90.33700459997635,90.32050589995924,92.32090569997672,None,1,0.61198069981765,2.6123427998973057,decreament,0.6,1,standard,None,100,,,,,,,,f,22,202,en,r,0,raw,2022-05-10_10h32.30.793,oddball,2022.1.2,59.94075455366855,
0,,,,,0,0,0,0,0,0,0,0,14,0,14,0,,,,,,,,,,,,,,,,,92.33779140003026,None,93.03808389999904,93.63817079993896,93.62183700001333,95.62232039996888,j,0,0.6122970998985693,2.6127919999416918,decreament,0.6,1,standard,None,100,0.5005273000570014,,,,,,,f,22,202,en,r,0,raw,2022-05-10_10h32.30.793,oddball,2022.1.2,59.94075455366855,
0,,,,,0,0,0,0,0,0,0,0,15,0,15,0,,,,,,,,,,,,,,,,,95.63901899999473,None,96.20617889997084,96.80629350000527,96.78937369992491,98.79044569993857,j,0,0.6113309998763725,2.6124374999199063,decreament,0.6,1,standard,None,100,0.48617689998354763,,,,,,,f,22,202,en,r,0,raw,2022-05-10_10h32.30.793,oddball,2022.1.2,59.94075455366855,
0,,,,,0,0,0,0,0,0,0,0,16,0,16,0,,,,,,,,,,,,,,,,,98.80685589998029,None,99.42421610001475,99.79082410002593,99.77430159994401,101.77465239993762,j,1,0.37430589995346963,2.3746101999422535,decreament,0.36,3,oddball,j,60,0.7568999000359327,,,,,,,f,22,202,en,r,0,raw,2022-05-10_10h32.30.793,oddball,2022.1.2,59.94075455366855,
0,,,,,0,0,0,0,0,0,0,0,17,0,17,0,,,,,,,,,,,,,,,,,101.79143260000274,None,102.54182039992884,103.1419427000219,103.12544259999413,105.1258300000336,None,1,0.610028300085105,2.610363300074823,decreament,0.6,1,standard,None,100,,,,,,,,f,22,202,en,r,0,raw,2022-05-10_10h32.30.793,oddball,2022.1.2,59.94075455366855,
0,,,,,0,0,0,0,0,0,0,0,18,0,18,0,,,,,,,,,,,,,,,,,105.14266829995904,None,105.8097650000127,106.40959079994354,106.39310759992804,108.39375029993244,None,1,0.6130332999164239,2.613640599884093,decreament,0.6,1,standard,None,100,,,,,,,,f,22,202,en,r,0,raw,2022-05-10_10h32.30.793,oddball,2022.1.2,59.94075455366855,
0,,,,,0,0,0,0,0,0,0,0,19,0,19,0,,,,,,,,,,,,,,,,,108.4103230999317,None,109.09440619999077,109.69433929992374,109.67768099997193,111.67825989995617,None,1,0.6125008999370039,2.6130720999790356,decreament,0.6,1,standard,None,100,,,,,,,,f,22,202,en,r,0,raw,2022-05-10_10h32.30.793,oddball,2022.1.2,59.94075455366855,
0,,,,,0,0,0,0,0,0,0,0,20,0,20,0,,,,,,,,,,,,,,,,,111.69496929994784,None,112.36228130001109,112.96243089996278,112.94558079994749,114.9463531000074,None,1,0.6116678998805583,2.6124370999168605,decreament,0.6,1,standard,None,100,,,,,,,,f,22,202,en,r,0,raw,2022-05-10_10h32.30.793,oddball,2022.1.2,59.94075455366855,
0,,,,,0,0,0,0,0,0,0,0,21,0,21,0,,,,,,,,,,,,,,,,,114.96310940000694,None,115.59652889997233,116.19686479994562,116.18038419994991,118.18109239998739,None,1,0.6136017999378964,2.614374199998565,decreament,0.6,1,standard,None,100,,,,,,,,f,22,202,en,r,0,raw,2022-05-10_10h32.30.793,oddball,2022.1.2,59.94075455366855,
0,,,,,0,0,0,0,0,0,0,0,22,0,22,0,,,,,,,,,,,,,,,,,118.1976682000095,None,118.79773410002235,119.3982877000235,119.3818489999976,121.38243739993777,None,1,0.6114674999844283,2.612045600079,decreament,0.6,1,standard,None,100,,,,,,,,f,22,202,en,r,0,raw,2022-05-10_10h32.30.793,oddball,2022.1.2,59.94075455366855,
0,,,,,0,0,0,0,0,0,0,0,23,0,23,0,,,,,,,,,,,,,,,,,121.39884819998406,None,122.18265209998935,122.78265469998587,122.76585179998074,124.76666999992449,j,0,0.6123393999878317,2.613169900025241,decreament,0.6,1,standard,None,100,0.9176138999173418,,,,,,,f,22,202,en,r,0,raw,2022-05-10_10h32.30.793,oddball,2022.1.2,59.94075455366855,
0,,,,,0,0,0,0,0,0,0,0,24,0,24,0,,,,,,,,,,,,,,,,,124.78326019993983,None,125.43380939995404,125.683817800018,125.6504195999587,127.65139559993986,j,1,0.24249699991196394,2.243492499925196,decreament,0.24,2,oddball,j,40,0.5039019000250846,,,,,,,f,22,202,en,r,0,raw,2022-05-10_10h32.30.793,oddball,2022.1.2,59.94075455366855,
0,,,,,0,0,0,0,0,0,0,0,25,0,25,0,,,,,,,,,,,,,,,,,127.66787200002,None,128.2346727999393,128.83536020002794,128.81850069994107,130.81935929995961,None,1,0.6109988999087363,2.611889399937354,decreament,0.6,1,standard,None,100,,,,,,,,f,22,202,en,r,0,raw,2022-05-10_10h32.30.793,oddball,2022.1.2,59.94075455366855,
0,,,,,0,0,0,0,0,0,0,0,26,0,26,0,,,,,,,,,,,,,,,,,130.83591000002343,None,131.66933960001916,132.26966769993305,132.25314019992948,134.25379999994766,None,1,0.6111252999398857,2.611769999959506,decreament,0.6,1,standard,None,100,,,,,,,,f,22,202,en,r,0,raw,2022-05-10_10h32.30.793,oddball,2022.1.2,59.94075455366855,
0,,,,,0,0,0,0,0,0,0,0,27,0,27,0,,,,,,,,,,,,,,,,,134.2704095999943,None,134.97070059995167,135.57063480000943,135.55409560003318,137.5551938000135,None,1,0.6111871999455616,2.6123554999940097,decreament,0.6,1,standard,None,100,,,,,,,,f,22,202,en,r,0,raw,2022-05-10_10h32.30.793,oddball,2022.1.2,59.94075455366855,
0,,,,,0,0,0,0,0,0,0,0,28,0,28,0,,,,,,,,,,,,,,,,,137.5726355999941,None,138.18826289998833,138.78913319995627,138.77228829998057,140.7731935000047,None,1,0.6145141000160947,2.6154163000173867,decreament,0.6,1,standard,None,100,,,,,,,,f,22,202,en,r,0,raw,2022-05-10_10h32.30.793,oddball,2022.1.2,59.94075455366855,
0,,,,,0,0,0,0,0,0,0,0,29,0,29,0,,,,,,,,,,,,,,,,,140.78953399998136,None,141.55653229996096,142.15694869996514,142.14030099997763,144.14094589999877,None,1,0.6114239000016823,2.6120935000944883,decreament,0.6,1,standard,None,100,,,,,,,,f,22,202,en,r,0,raw,2022-05-10_10h32.30.793,oddball,2022.1.2,59.94075455366855,
0,,,,,0,0,0,0,1,0,1,0,0,0,0,0,,,,,,,,,,,,,,,147.28690850001294,None,149.49269430001732,None,150.143001099932,150.7431152999634,150.72654119995423,152.72760240000207,None,1,0.6121439001290128,2.613251500064507,increament,0.6,5,standard,None,100,,144.15779399999883,None,,,,,f,22,202,en,r,0,raw,2022-05-10_10h32.30.793,oddball,2022.1.2,59.94075455366855,
0,,,,,0,0,0,0,1,0,1,0,1,0,1,0,,,,,,,,,,,,,,,,,152.74389669997618,None,153.32793489994947,153.92783800000325,153.91109239996877,155.9120605000062,None,1,0.6103004998294637,2.611306699924171,increament,0.6,5,standard,None,100,,,,,,,,f,22,202,en,r,0,raw,2022-05-10_10h32.30.793,oddball,2022.1.2,59.94075455366855,
0,,,,,0,0,0,0,1,0,1,0,2,0,2,0,,,,,,,,,,,,,,,,,155.92879529995844,None,156.77889359998517,157.379094599979,157.36241940001491,159.36318689992186,None,1,0.6117330000270158,2.6124889999628067,increament,0.6,5,standard,None,100,,,,,,,,f,22,202,en,r,0,raw,2022-05-10_10h32.30.793,oddball,2022.1.2,59.94075455366855,
0,,,,,0,0,0,0,1,0,1,0,3,0,3,0,,,,,,,,,,,,,,,,,159.37984599999618,None,160.03055140003562,160.630100499955,160.61358180001844,162.61455399997067,None,1,0.609396000043489,2.610356800025329,increament,0.6,5,standard,None,100,,,,,,,,f,22,202,en,r,0,raw,2022-05-10_10h32.30.793,oddball,2022.1.2,59.94075455366855,
0,,,,,0,0,0,0,1,0,1,0,4,0,4,0,,,,,,,,,,,,,,,,,162.6311113999691,None,163.36480219999794,163.96526620001532,163.9485038999701,165.94924240000546,None,1,0.6126212000381202,2.613290400011465,increament,0.6,5,standard,None,100,,,,,,,,f,22,202,en,r,0,raw,2022-05-10_10h32.30.793,oddball,2022.1.2,59.94075455366855,
0,,,,,0,0,0,0,1,0,1,0,5,0,5,0,,,,,,,,,,,,,,,,,165.9656219999306,None,166.58236380002927,167.18273639993276,167.16612990002614,169.16713349998463,None,1,0.613467900082469,2.614513900130987,increament,0.6,5,standard,None,100,,,,,,,,f,22,202,en,r,0,raw,2022-05-10_10h32.30.793,oddball,2022.1.2,59.94075455366855,
0,,,,,0,0,0,0,1,0,1,0,6,0,6,0,,,,,,,,,,,,,,,,,169.18373649998102,None,169.81755699997302,170.41770180000458,170.40074840001762,172.40174729994033,None,1,0.6114875000203028,2.6125891000265256,increament,0.6,5,standard,None,100,,,,,,,,f,22,202,en,r,0,raw,2022-05-10_10h32.30.793,oddball,2022.1.2,59.94075455366855,
0,,,,,0,0,0,0,1,0,1,0,7,0,7,0,,,,,,,,,,,,,,,,,172.41941510001197,None,173.1851300999988,173.78552659996785,173.76872649998404,175.76953299995512,None,1,0.6124353999039158,2.6132742998888716,increament,0.6,5,standard,None,100,,,,,,,,f,22,202,en,r,0,raw,2022-05-10_10h32.30.793,oddball,2022.1.2,59.94075455366855,
0,,,,,0,0,0,0,1,0,1,0,8,0,8,0,,,,,,,,,,,,,,,,,175.78607689996716,None,176.40305269998498,177.3700867999578,177.3369023000123,179.3373821999412,j,1,0.962716699927114,2.9631384998792782,increament,0.96,8,oddball,j,160,0.5697345999069512,,,,,,,f,22,202,en,r,0,raw,2022-05-10_10h32.30.793,oddball,2022.1.2,59.94075455366855,
0,,,,,0,0,0,0,1,0,1,0,9,0,9,0,,,,,,,,,,,,,,,,,179.3543161000125,None,179.9877100000158,180.58786730002612,180.57121550000738,182.5720052999677,None,1,0.6106583999935538,2.6114616999402642,increament,0.6,5,standard,None,100,,,,,,,,f,22,202,en,r,0,raw,2022-05-10_10h32.30.793,oddball,2022.1.2,59.94075455366855,
0,,,,,0,0,0,0,1,0,1,0,10,0,10,0,,,,,,,,,,,,,,,,,182.5886341999285,None,183.20544179994613,183.80591240001377,183.78940389992204,185.78975530003663,None,1,0.6137757999822497,2.614039499894716,increament,0.6,5,standard,None,100,,,,,,,,f,22,202,en,r,0,raw,2022-05-10_10h32.30.793,oddball,2022.1.2,59.94075455366855,
0,,,,,0,0,0,0,1,0,1,0,11,0,11,0,,,,,,,,,,,,,,,,,185.80646180000622,None,186.50681059993804,187.1071100999834,187.0901907000225,189.09112410002854,None,1,0.6134024999337271,2.6143454998964444,increament,0.6,5,standard,None,100,,,,,,,,f,22,202,en,r,0,raw,2022-05-10_10h32.30.793,oddball,2022.1.2,59.94075455366855,
0,,,,,0,0,0,0,1,0,1,0,12,0,12,0,,,,,,,,,,,,,,,,,189.10772670002189,None,189.69145009992644,190.29139299993403,190.27489120000973,192.27563349995762,None,1,0.6115475000115111,2.6123408999992535,increament,0.6,5,standard,None,100,,,,,,,,f,22,202,en,r,0,raw,2022-05-10_10h32.30.793,oddball,2022.1.2,59.94075455366855,
0,,,,,0,0,0,0,1,0,1,0,13,0,13,0,,,,,,,,,,,,,,,,,192.29238270001952,None,193.09250199992675,193.69266139995307,193.67639819998294,195.6771702999249,None,1,0.613095200038515,2.6138016000622883,increament,0.6,5,standard,None,100,,,,,,,,f,22,202,en,r,0,raw,2022-05-10_10h32.30.793,oddball,2022.1.2,59.94075455366855,
0,,,,,0,0,0,0,1,0,1,0,14,0,14,0,,,,,,,,,,,,,,,,,195.69351240003016,None,196.2773910999531,196.8775892999256,196.86109689995646,198.86162109998986,None,1,0.611019599949941,2.61149179993663,increament,0.6,5,standard,None,100,,,,,,,,f,22,202,en,r,0,raw,2022-05-10_10h32.30.793,oddball,2022.1.2,59.94075455366855,
0,,,,,0,0,0,0,1,0,1,0,15,0,15,0,,,,,,,,,,,,,,,,,198.8782192999497,None,199.57865399995353,200.17847619997337,200.16198720003013,202.16279039997607,None,1,0.6128971000434831,2.613742099958472,increament,0.6,5,standard,None,100,,,,,,,,f,22,202,en,r,0,raw,2022-05-10_10h32.30.793,oddball,2022.1.2,59.94075455366855,
0,,,,,0,0,0,0,1,0,1,0,16,0,16,0,,,,,,,,,,,,,,,,,202.17921440000646,None,202.82961100002285,203.43009269994218,203.41336919995956,205.41380139999092,None,1,0.6114937999518588,2.6119301998987794,increament,0.6,5,standard,None,100,,,,,,,,f,22,202,en,r,0,raw,2022-05-10_10h32.30.793,oddball,2022.1.2,59.94075455366855,
0,,,,,0,0,0,0,1,0,1,0,17,0,17,0,,,,,,,,,,,,,,,,,205.43057229998522,None,206.13089339993894,206.98092579992954,206.94788520003203,208.94872450002003,j,1,0.8436821999493986,2.84457539988216,increament,0.84,7,oddball,j,140,0.6786534999264404,,,,,,,f,22,202,en,r,0,raw,2022-05-10_10h32.30.793,oddball,2022.1.2,59.94075455366855,
0,,,,,0,0,0,0,1,0,1,0,18,0,18,0,,,,,,,,,,,,,,,,,208.96561119996477,None,209.54881820001174,210.14902100001927,210.13261490000878,212.1331764999777,None,1,0.6142541000153869,2.614837900036946,increament,0.6,5,standard,None,100,,,,,,,,f,22,202,en,r,0,raw,2022-05-10_10h32.30.793,oddball,2022.1.2,59.94075455366855,
0,,,,,0,0,0,0,1,0,1,0,19,0,19,0,,,,,,,,,,,,,,,,,212.15013640001416,None,212.66660100000445,213.26694779994432,213.25015530001838,215.25069939997047,None,1,0.6116446999367326,2.612161200027913,increament,0.6,5,standard,None,100,,,,,,,,f,22,202,en,r,0,raw,2022-05-10_10h32.30.793,oddball,2022.1.2,59.94075455366855,
0,,,,,0,0,0,0,1,0,1,0,20,0,20,0,,,,,,,,,,,,,,,,,215.26743829995394,None,216.03463639994152,216.63479759998154,216.618308300036,218.61920339998323,None,1,0.6095137998927385,2.6108099999837577,increament,0.6,5,standard,None,100,,,,,,,,f,22,202,en,r,0,raw,2022-05-10_10h32.30.793,oddball,2022.1.2,59.94075455366855,
0,,,,,0,0,0,0,1,0,1,0,21,0,21,0,,,,,,,,,,,,,,,,,218.63700580003206,None,219.219393700012,219.81955579994246,219.8027405999601,221.80367960000876,None,1,0.60941749997437,2.6103331999620423,increament,0.6,5,standard,None,100,,,,,,,,f,22,202,en,r,0,raw,2022-05-10_10h32.30.793,oddball,2022.1.2,59.94075455366855,
0,,,,,0,0,0,0,1,0,1,0,22,0,22,0,,,,,,,,,,,,,,,,,221.8201251999708,None,222.42035759997088,223.02077399997506,223.00422180001624,225.00488559994847,j,0,0.6137587998528033,2.6143654998159036,increament,0.6,5,standard,None,100,0.5580263000447303,,,,,,,f,22,202,en,r,0,raw,2022-05-10_10h32.30.793,oddball,2022.1.2,59.94075455366855,
0,,,,,0,0,0,0,1,0,1,0,23,0,23,0,,,,,,,,,,,,,,,,,225.0214121999452,None,225.93831919995137,226.6719416999258,226.63918950001244,228.63943839992862,j,1,0.730533100082539,2.730705499998294,increament,0.72,6,oddball,j,120,0.5626997000072151,,,,,,,f,22,202,en,r,0,raw,2022-05-10_10h32.30.793,oddball,2022.1.2,59.94075455366855,
0,,,,,0,0,0,0,1,0,1,0,24,0,24,0,,,,,,,,,,,,,,,,,228.65605220000725,None,229.45640629995614,230.05653990001883,230.03972130001057,232.04084679996595,None,1,0.6129658001009375,2.6141627001343295,increament,0.6,5,standard,None,100,,,,,,,,f,22,202,en,r,0,raw,2022-05-10_10h32.30.793,oddball,2022.1.2,59.94075455366855,
0,,,,,0,0,0,0,1,0,1,0,25,0,25,0,,,,,,,,,,,,,,,,,232.05753520003054,None,232.69101499998942,233.29152149998117,233.27458089997526,235.27532909996808,None,1,0.6125465000513941,2.6132753000129014,increament,0.6,5,standard,None,100,,,,,,,,f,22,202,en,r,0,raw,2022-05-10_10h32.30.793,oddball,2022.1.2,59.94075455366855,
0,,,,,0,0,0,0,1,0,1,0,26,0,26,0,,,,,,,,,,,,,,,,,235.29180160001852,None,235.99230369995348,236.5926485999953,236.57640279992484,238.57665900001302,None,1,0.6113873000722378,2.611596200033091,increament,0.6,5,standard,None,100,,,,,,,,f,22,202,en,r,0,raw,2022-05-10_10h32.30.793,oddball,2022.1.2,59.94075455366855,
0,,,,,0,0,0,0,1,0,1,0,27,0,27,0,,,,,,,,,,,,,,,,,238.59321089996956,None,239.24354990001302,239.84317709994502,239.8265362000093,241.82755960000213,None,1,0.6109136999584734,2.6119766000192612,increament,0.6,5,standard,None,100,,,,,,,,f,22,202,en,r,0,raw,2022-05-10_10h32.30.793,oddball,2022.1.2,59.94075455366855,
0,,,,,0,0,0,0,1,0,1,0,28,0,28,0,,,,,,,,,,,,,,,,,241.84430260001682,None,242.59464199992362,243.19479750003666,243.1786371000344,245.17892079998273,None,1,0.6128075998276472,2.6130526998313144,increament,0.6,5,standard,None,100,,,,,,,,f,22,202,en,r,0,raw,2022-05-10_10h32.30.793,oddball,2022.1.2,59.94075455366855,
0,,,,,0,0,0,0,1,0,1,0,29,0,29,0,,,,,,,,,,,,,,,,,245.19600809994154,None,245.8958081000019,246.49615289992653,246.47954440000467,248.48026570002548,None,1,0.6131644000997767,2.6139123000903055,increament,0.6,5,standard,None,100,,,,,,,,f,22,202,en,r,0,raw,2022-05-10_10h32.30.793,oddball,2022.1.2,59.94075455366855,
0,,,,,0,0,0,0,2,0,2,0,0,0,0,0,,,,,,,,,,,,,,,251.71578800003044,None,252.89852769998834,None,253.58221989998128,254.18234429997392,254.16570529993623,256.16670549998526,None,1,0.6117657999275252,2.6128236999502406,decreament,0.6,1,standard,None,100,,248.49704799999017,None,,,,,f,22,202,en,r,0,raw,2022-05-10_10h32.30.793,oddball,2022.1.2,59.94075455366855,
0,,,,,0,0,0,0,2,0,2,0,1,0,1,0,,,,,,,,,,,,,,,,,256.1844613000285,None,256.7835322000319,257.3837150000036,257.36722230003215,259.3679294999456,None,1,0.6116368998773396,2.6123998999828473,decreament,0.6,1,standard,None,100,,,,,,,,f,22,202,en,r,0,raw,2022-05-10_10h32.30.793,oddball,2022.1.2,59.94075455366855,
0,,,,,0,0,0,0,2,0,2,0,2,0,2,0,,,,,,,,,,,,,,,,,259.3849189999746,None,260.0013062999351,260.60163869999815,260.5848066000035,262.5858440999873,j,0,0.6131155998446047,2.6141967999283224,decreament,0.6,1,standard,None,100,0.6251627000747249,,,,,,,f,22,202,en,r,0,raw,2022-05-10_10h32.30.793,oddball,2022.1.2,59.94075455366855,
0,,,,,0,0,0,0,2,0,2,0,3,0,3,0,,,,,,,,,,,,,,,,,262.6028451999882,None,263.28602310002316,263.8859140999848,263.8696461999789,265.8701535,None,1,0.6124606999801472,2.612959799938835,decreament,0.6,1,standard,None,100,,,,,,,,f,22,202,en,r,0,raw,2022-05-10_10h32.30.793,oddball,2022.1.2,59.94075455366855,
0,,,,,0,0,0,0,2,0,2,0,4,0,4,0,,,,,,,,,,,,,,,,,265.8870775999967,None,266.58732749999035,267.1872868000064,267.17072309996,269.1714369999245,None,1,0.6105720000341535,2.6112942999461666,decreament,0.6,1,standard,None,100,,,,,,,,f,22,202,en,r,0,raw,2022-05-10_10h32.30.793,oddball,2022.1.2,59.94075455366855,
0,,,,,0,0,0,0,2,0,2,0,5,0,5,0,,,,,,,,,,,,,,,,,269.18818709999323,None,269.80465840001125,270.4052286000224,270.38860029994976,272.389612799976,None,1,0.6142206998774782,2.61525589984376,decreament,0.6,1,standard,None,100,,,,,,,,f,22,202,en,r,0,raw,2022-05-10_10h32.30.793,oddball,2022.1.2,59.94075455366855,
0,,,,,0,0,0,0,2,0,2,0,6,0,6,0,,,,,,,,,,,,,,,,,272.40621549997013,None,272.9227600999875,273.52310130000114,273.5066722999327,275.50692309997976,None,1,0.6126042000250891,2.612834500032477,decreament,0.6,1,standard,None,100,,,,,,,,f,22,202,en,r,0,raw,2022-05-10_10h32.30.793,oddball,2022.1.2,59.94075455366855,
0,,,,,0,0,0,0,2,0,2,0,7,0,7,0,,,,,,,,,,,,,,,,,275.5236126999371,None,276.19073629996274,276.7911175999325,276.77462649997324,278.77501759992447,None,1,0.6128542998339981,2.613192599848844,decreament,0.6,1,standard,None,100,,,,,,,,f,22,202,en,r,0,raw,2022-05-10_10h32.30.793,oddball,2022.1.2,59.94075455366855,
0,,,,,0,0,0,0,2,0,2,0,8,0,8,0,,,,,,,,,,,,,,,,,278.79189570003655,None,279.5918612999376,280.19237890001386,280.17566259996966,282.1765834999969,j,0,0.612248899997212,2.613194999983534,decreament,0.6,1,standard,None,100,0.738397799897939,,,,,,,f,22,202,en,r,0,raw,2022-05-10_10h32.30.793,oddball,2022.1.2,59.94075455366855,
0,,,,,0,0,0,0,2,0,2,0,9,0,9,0,,,,,,,,,,,,,,,,,282.1931004000362,None,283.0766693999758,283.6768538999604,283.66046709998045,285.6611911000218,j,0,0.609264399856329,2.6100242999382317,decreament,0.6,1,standard,None,100,1.3419458999997005,,,,,,,f,22,202,en,r,0,raw,2022-05-10_10h32.30.793,oddball,2022.1.2,59.94075455366855,
0,,,,,0,0,0,0,2,0,2,0,10,0,10,0,,,,,,,,,,,,,,,,,285.67763459996786,None,286.27832779998425,286.8785377999302,286.86172379995696,288.8622655000072,j,0,0.6124735999619588,2.6129953999770805,decreament,0.6,1,standard,None,100,0.7327845999971032,,,,,,,f,22,202,en,r,0,raw,2022-05-10_10h32.30.793,oddball,2022.1.2,59.94075455366855,
0,,,,,0,0,0,0,2,0,2,0,11,0,11,0,,,,,,,,,,,,,,,,,288.8787611000007,None,289.5124939000234,290.1126640000148,290.09595240000635,292.0966904000379,None,1,0.612490399973467,2.6132323999190703,decreament,0.6,1,standard,None,100,,,,,,,,f,22,202,en,r,0,raw,2022-05-10_10h32.30.793,oddball,2022.1.2,59.94075455366855,
0,,,,,0,0,0,0,2,0,2,0,12,0,12,0,,,,,,,,,,,,,,,,,292.1135613999795,None,292.7802533999784,293.3806676999666,293.3639106999617,295.3645126000047,None,1,0.6127761999377981,2.6133871999336407,decreament,0.6,1,standard,None,100,,,,,,,,f,22,202,en,r,0,raw,2022-05-10_10h32.30.793,oddball,2022.1.2,59.94075455366855,
0,,,,,0,0,0,0,2,0,2,0,13,0,13,0,,,,,,,,,,,,,,,,,295.38158749998547,None,295.9314527999377,296.53182209993247,296.51531099993736,298.5160587999271,None,1,0.6127589999232441,2.6135261999443173,decreament,0.6,1,standard,None,100,,,,,,,,f,22,202,en,r,0,raw,2022-05-10_10h32.30.793,oddball,2022.1.2,59.94075455366855,
0,,,,,0,0,0,0,2,0,2,0,14,0,14,0,,,,,,,,,,,,,,,,,298.53262089996133,None,299.1162469999399,299.3664810999762,299.3333112000255,301.33392290002666,j,1,0.2448795000091195,2.2454834999516606,decreament,0.24,2,oddball,j,40,0.6838680999353528,,,,,,,f,22,202,en,r,0,raw,2022-05-10_10h32.30.793,oddball,2022.1.2,59.94075455366855,
0,,,,,0,0,0,0,2,0,2,0,15,0,15,0,,,,,,,,,,,,,,,,,301.3501866000006,None,302.03428649995476,302.6339137000032,302.6174199000234,304.6181915999623,None,1,0.6091018998995423,2.6099012999329716,decreament,0.6,1,standard,None,100,,,,,,,,f,22,202,en,r,0,raw,2022-05-10_10h32.30.793,oddball,2022.1.2,59.94075455366855,
0,,,,,0,0,0,0,2,0,2,0,16,0,16,0,,,,,,,,,,,,,,,,,304.63531659997534,None,305.23536579997744,305.83507789997384,305.81842259992845,307.81976590002887,None,1,0.61042769998312,2.6118731000460684,decreament,0.6,1,standard,None,100,,,,,,,,f,22,202,en,r,0,raw,2022-05-10_10h32.30.793,oddball,2022.1.2,59.94075455366855,
0,,,,,0,0,0,0,2,0,2,0,17,0,17,0,,,,,,,,,,,,,,,,,307.8371236999519,None,308.50299379997887,309.10320170002524,309.08615079999436,311.087422600016,None,1,0.6118218000046909,2.613166499999352,decreament,0.6,1,standard,None,100,,,,,,,,f,22,202,en,r,0,raw,2022-05-10_10h32.30.793,oddball,2022.1.2,59.94075455366855,
0,,,,,0,0,0,0,2,0,2,0,18,0,18,0,,,,,,,,,,,,,,,,,311.1045711999759,None,311.70424669992644,312.3044409999857,312.2880511999829,314.2885361999506,None,1,0.6115690999431536,2.6119940999196842,decreament,0.6,1,standard,None,100,,,,,,,,f,22,202,en,r,0,raw,2022-05-10_10h32.30.793,oddball,2022.1.2,59.94075455366855,
0,,,,,0,0,0,0,2,0,2,0,19,0,19,0,,,,,,,,,,,,,,,,,314.3051644000225,None,314.9052141000284,315.5056176999351,315.4890848000068,317.4901678999886,None,1,0.6136954999528825,2.6148616999853402,decreament,0.6,1,standard,None,100,,,,,,,,f,22,202,en,r,0,raw,2022-05-10_10h32.30.793,oddball,2022.1.2,59.94075455366855,
0,,,,,0,0,0,0,2,0,2,0,20,0,20,0,,,,,,,,,,,,,,,,,317.5065640999237,None,318.18991950002965,318.7902281000279,318.7736670000013,320.77442469995003,None,1,0.6122300000861287,2.6129755000583827,decreament,0.6,1,standard,None,100,,,,,,,,f,22,202,en,r,0,raw,2022-05-10_10h32.30.793,oddball,2022.1.2,59.94075455366855,
0,,,,,0,0,0,0,2,0,2,0,21,0,21,0,,,,,,,,,,,,,,,,,320.7909768000245,None,321.5078985999571,321.99154570000246,321.9580659000203,323.95916349999607,j,1,0.495714999968186,2.4962479999521747,decreament,0.48,4,oddball,j,80,0.5952993000391871,,,,,,,f,22,202,en,r,0,raw,2022-05-10_10h32.30.793,oddball,2022.1.2,59.94075455366855,
0,,,,,0,0,0,0,2,0,2,0,22,0,22,0,,,,,,,,,,,,,,,,,323.99209810001776,None,324.5588633000152,325.1592698999448,325.1427131999517,327.1436038999818,j,0,0.6136879000114277,2.614618999999948,decreament,0.6,1,standard,None,100,0.4675990999676287,,,,,,,f,22,202,en,r,0,raw,2022-05-10_10h32.30.793,oddball,2022.1.2,59.94075455366855,
0,,,,,0,0,0,0,2,0,2,0,23,0,23,0,,,,,,,,,,,,,,,,,327.1600495999446,None,327.81057550001424,328.4106449999381,328.3938158999663,330.39444860001095,None,1,0.6103892000392079,2.611002100049518,decreament,0.6,1,standard,None,100,,,,,,,,f,22,202,en,r,0,raw,2022-05-10_10h32.30.793,oddball,2022.1.2,59.94075455366855,
0,,,,,0,0,0,0,2,0,2,0,24,0,24,0,,,,,,,,,,,,,,,,,330.41133080003783,None,330.97846859996207,331.57823739992455,331.561702099978,333.5624576000264,None,1,0.6111089000478387,2.611851900117472,decreament,0.6,1,standard,None,100,,,,,,,,f,22,202,en,r,0,raw,2022-05-10_10h32.30.793,oddball,2022.1.2,59.94075455366855,
0,,,,,0,0,0,0,2,0,2,0,25,0,25,0,,,,,,,,,,,,,,,,,333.5793900999706,None,334.1627535999287,334.7630132000195,334.74617099994794,336.74683489999734,None,1,0.6130234998418018,2.613679999834858,decreament,0.6,1,standard,None,100,,,,,,,,f,22,202,en,r,0,raw,2022-05-10_10h32.30.793,oddball,2022.1.2,59.94075455366855,
0,,,,,0,0,0,0,2,0,2,0,26,0,26,0,,,,,,,,,,,,,,,,,336.7636088000145,None,337.51390130002983,338.1142080000136,338.09758880001027,340.0983589999378,None,1,0.6128246000735089,2.6136082999873906,decreament,0.6,1,standard,None,100,,,,,,,,f,22,202,en,r,0,raw,2022-05-10_10h32.30.793,oddball,2022.1.2,59.94075455366855,
0,,,,,0,0,0,0,2,0,2,0,27,0,27,0,,,,,,,,,,,,,,,,,340.11494729993865,None,340.71522240003105,341.3153773000231,341.2987605999224,343.2995556999231,None,1,0.6124264998361468,2.6132456999039277,decreament,0.6,1,standard,None,100,,,,,,,,f,22,202,en,r,0,raw,2022-05-10_10h32.30.793,oddball,2022.1.2,59.94075455366855,
0,,,,,0,0,0,0,2,0,2,0,28,0,28,0,,,,,,,,,,,,,,,,,343.3162564999657,None,343.8997059999965,344.49996289995033,344.48350039997604,346.4840257000178,None,1,0.6098444000817835,2.6103544001234695,decreament,0.6,1,standard,None,100,,,,,,,,f,22,202,en,r,0,raw,2022-05-10_10h32.30.793,oddball,2022.1.2,59.94075455366855,
0,,,,,0,0,0,0,2,0,2,0,29,0,29,0,,,,,,,,,,,,,,,,,346.5006027999334,None,347.1678559000138,347.5342609999934,347.50117940001655,349.5024073999375,j,1,0.3592884000390768,2.3605957999825478,decreament,0.36,3,oddball,j,60,0.6847433999646455,,,,,,,f,22,202,en,r,0,raw,2022-05-10_10h32.30.793,oddball,2022.1.2,59.94075455366855,
0,,,,,0,0,0,0,3,0,3,0,0,0,0,0,,,,,,,,,,,,,,,350.9524684000062,None,352.4362393999472,None,353.0198098999681,353.6199750000378,353.6034878999926,355.604226400028,None,1,0.6123649999499321,2.61310109985061,increament,0.6,5,standard,None,100,,349.5194940000074,None,,,,,f,22,202,en,r,0,raw,2022-05-10_10h32.30.793,oddball,2022.1.2,59.94075455366855,
0,,,,,0,0,0,0,3,0,3,0,1,0,1,0,,,,,,,,,,,,,,,,,355.6209294999717,None,356.2212217999622,356.8214044999331,356.8047420999501,358.80519220000133,None,1,0.6136055998504162,2.6140572999138385,increament,0.6,5,standard,None,100,,,,,,,,f,22,202,en,r,0,raw,2022-05-10_10h32.30.793,oddball,2022.1.2,59.94075455366855,
0,,,,,0,0,0,0,3,0,3,0,2,0,2,0,,,,,,,,,,,,,,,,,358.82207270001527,None,359.4555085999891,360.0558928999817,360.0395186999813,362.0398457000265,None,1,0.6132070999592543,2.613479399937205,increament,0.6,5,standard,None,100,,,,,,,,f,22,202,en,r,0,raw,2022-05-10_10h32.30.793,oddball,2022.1.2,59.94075455366855,
0,,,,,0,0,0,0,3,0,3,0,3,0,3,0,,,,,,,,,,,,,,,,,362.0565829999978,None,362.7903733999701,363.3901639999822,363.37376809993293,365.3746534999227,None,1,0.609041600022465,2.609937999979593,increament,0.6,5,standard,None,100,,,,,,,,f,22,202,en,r,0,raw,2022-05-10_10h32.30.793,oddball,2022.1.2,59.94075455366855,
0,,,,,0,0,0,0,3,0,3,0,4,0,4,0,,,,,,,,,,,,,,,,,365.39090220001526,None,366.0578899999382,366.658516400028,366.6418851999333,368.6427112999372,None,1,0.6146138999611139,2.615445999894291,increament,0.6,5,standard,None,100,,,,,,,,f,22,202,en,r,0,raw,2022-05-10_10h32.30.793,oddball,2022.1.2,59.94075455366855,
0,,,,,0,0,0,0,3,0,3,0,5,0,5,0,,,,,,,,,,,,,,,,,368.65928419993725,None,369.2094574000221,369.8093513000058,369.7929149999982,371.7933908000123,None,1,0.6142738999333233,2.614727799897082,increament,0.6,5,standard,None,100,,,,,,,,f,22,202,en,r,0,raw,2022-05-10_10h32.30.793,oddball,2022.1.2,59.94075455366855,
0,,,,,0,0,0,0,3,0,3,0,6,0,6,0,,,,,,,,,,,,,,,,,371.81020629999693,None,372.5106089999899,373.1108903000131,373.09447999997064,375.09517650003545,None,1,0.6127149999374524,2.613404499948956,increament,0.6,5,standard,None,100,,,,,,,,f,22,202,en,r,0,raw,2022-05-10_10h32.30.793,oddball,2022.1.2,59.94075455366855,
0,,,,,0,0,0,0,3,0,3,0,7,0,7,0,,,,,,,,,,,,,,,,,375.1117088999599,None,375.7952294999268,376.3956506999675,376.3787439999869,378.3795727000106,None,1,0.6108535999665037,2.611720399931073,increament,0.6,5,standard,None,100,,,,,,,,f,22,202,en,r,0,raw,2022-05-10_10h32.30.793,oddball,2022.1.2,59.94075455366855,
0,,,,,0,0,0,0,3,0,3,0,8,0,8,0,,,,,,,,,,,,,,,,,378.39608580002096,None,379.196562099969,379.7964542999398,379.77976189996116,381.7807497000322,None,1,0.6120274999411777,2.613079399918206,increament,0.6,5,standard,None,100,,,,,,,,f,22,202,en,r,0,raw,2022-05-10_10h32.30.793,oddball,2022.1.2,59.94075455366855,
0,,,,,0,0,0,0,3,0,3,0,9,0,9,0,,,,,,,,,,,,,,,,,381.7973800000036,None,382.34758760000113,382.947791100014,382.9315544000128,384.9315934999613,None,1,0.6130477000260726,2.612997299991548,increament,0.6,5,standard,None,100,,,,,,,,f,22,202,en,r,0,raw,2022-05-10_10h32.30.793,oddball,2022.1.2,59.94075455366855,
0,,,,,0,0,0,0,3,0,3,0,10,0,10,0,,,,,,,,,,,,,,,,,384.94830449996516,None,385.59891709999647,386.5659755000379,386.53241159999743,388.5332809999818,j,1,0.9610181999159977,2.9618865000084043,increament,0.96,8,oddball,j,160,0.8853159000864252,,,,,,,f,22,202,en,r,0,raw,2022-05-10_10h32.30.793,oddball,2022.1.2,59.94075455366855,
0,,,,,0,0,0,0,3,0,3,0,11,0,11,0,,,,,,,,,,,,,,,,,388.5498252999969,None,389.183436500025,389.78431829996407,389.76732779992744,391.7679317999864,None,1,0.6135397999314591,2.6140824999893084,increament,0.6,5,standard,None,100,,,,,,,,f,22,202,en,r,0,raw,2022-05-10_10h32.30.793,oddball,2022.1.2,59.94075455366855,
0,,,,,0,0,0,0,3,0,3,0,12,0,12,0,,,,,,,,,,,,,,,,,391.7846452000085,None,392.4180994000053,393.01821270002984,393.00153879995923,395.00231549993623,None,1,0.612156999995932,2.6129907000577077,increament,0.6,5,standard,None,100,,,,,,,,f,22,202,en,r,0,raw,2022-05-10_10h32.30.793,oddball,2022.1.2,59.94075455366855,
0,,,,,0,0,0,0,3,0,3,0,13,0,13,0,,,,,,,,,,,,,,,,,395.01926359999925,None,395.55323830002453,396.15260129992384,396.1359483000124,398.137325800024,None,1,0.6106684999540448,2.61212439998053,increament,0.6,5,standard,None,100,,,,,,,,f,22,202,en,r,0,raw,2022-05-10_10h32.30.793,oddball,2022.1.2,59.94075455366855,
0,,,,,0,0,0,0,3,0,3,0,14,0,14,0,,,,,,,,,,,,,,,,,398.1537351999432,None,398.8872542999452,399.4876908999868,399.47134229994845,401.471523999935,None,1,0.6110551999881864,2.611147699994035,increament,0.6,5,standard,None,100,,,,,,,,f,22,202,en,r,0,raw,2022-05-10_10h32.30.793,oddball,2022.1.2,59.94075455366855,
0,,,,,0,0,0,0,3,0,3,0,15,0,15,0,,,,,,,,,,,,,,,,,401.48824079998303,None,402.038687299937,402.6384284000378,402.62189359997865,404.62293680000585,None,1,0.6104094999609515,2.611506999935955,increament,0.6,5,standard,None,100,,,,,,,,f,22,202,en,r,0,raw,2022-05-10_10h32.30.793,oddball,2022.1.2,59.94075455366855,
0,,,,,0,0,0,0,3,0,3,0,16,0,16,0,,,,,,,,,,,,,,,,,404.639791399939,None,405.1728566000238,405.7729468999896,405.7564654999878,407.75742059992626,None,1,0.6132582999998704,2.614238700014539,increament,0.6,5,standard,None,100,,,,,,,,f,22,202,en,r,0,raw,2022-05-10_10h32.30.793,oddball,2022.1.2,59.94075455366855,
0,,,,,0,0,0,0,3,0,3,0,17,0,17,0,,,,,,,,,,,,,,,,,407.77387020003516,None,408.3573783999309,409.2079125000164,409.174503199989,411.17507629992906,j,1,0.8431262999074534,2.843719099997543,increament,0.84,7,oddball,j,140,0.3315932999830693,,,,,,,f,22,202,en,r,0,raw,2022-05-10_10h32.30.793,oddball,2022.1.2,59.94075455366855,
0,,,,,0,0,0,0,3,0,3,0,18,0,18,0,,,,,,,,,,,,,,,,,411.19202009995934,None,411.94212279992644,412.54235420003533,412.5258506999817,414.52651440002955,None,1,0.6129643999738619,2.613668499980122,increament,0.6,5,standard,None,100,,,,,,,,f,22,202,en,r,0,raw,2022-05-10_10h32.30.793,oddball,2022.1.2,59.94075455366855,
0,,,,,0,0,0,0,3,0,3,0,19,0,19,0,,,,,,,,,,,,,,,,,414.54300459998194,None,415.1600791999372,415.7600118999835,415.7436546999961,417.7443895000033,None,1,0.6131286000600085,2.61387670005206,increament,0.6,5,standard,None,100,,,,,,,,f,22,202,en,r,0,raw,2022-05-10_10h32.30.793,oddball,2022.1.2,59.94075455366855,
0,,,,,0,0,0,0,3,0,3,0,20,0,20,0,,,,,,,,,,,,,,,,,417.7612433999311,None,418.361137000029,418.96149080002215,418.94511760002933,420.94600500003435,None,1,0.6134812999516726,2.6143677999498323,increament,0.6,5,standard,None,100,,,,,,,,f,22,202,en,r,0,raw,2022-05-10_10h32.30.793,oddball,2022.1.2,59.94075455366855,
0,,,,,0,0,0,0,3,0,3,0,21,0,21,0,,,,,,,,,,,,,,,,,420.96258339995984,None,421.52919139992446,422.1293532999698,422.11272360000294,424.1140208999859,None,1,0.6117947000311688,2.613180899992585,increament,0.6,5,standard,None,100,,,,,,,,f,22,202,en,r,0,raw,2022-05-10_10h32.30.793,oddball,2022.1.2,59.94075455366855,
0,,,,,0,0,0,0,3,0,3,0,22,0,22,0,,,,,,,,,,,,,,,,,424.1317493999377,None,424.89690960000735,425.4978177000303,425.4808142000111,427.48139069997706,None,1,0.6130029000341892,2.613514400087297,increament,0.6,5,standard,None,100,,,,,,,,f,22,202,en,r,0,raw,2022-05-10_10h32.30.793,oddball,2022.1.2,59.94075455366855,
0,,,,,0,0,0,0,3,0,3,0,23,0,23,0,,,,,,,,,,,,,,,,,427.4984486999456,None,428.114940200001,428.71541099995375,428.6985248000128,430.69987549993675,None,1,0.6120189999928698,2.613408499979414,increament,0.6,5,standard,None,100,,,,,,,,f,22,202,en,r,0,raw,2022-05-10_10h32.30.793,oddball,2022.1.2,59.94075455366855,
0,,,,,0,0,0,0,3,0,3,0,24,0,24,0,,,,,,,,,,,,,,,,,430.71687509992626,None,431.38289459992666,432.1162316999398,432.0835009999573,434.08416379999835,None,0,0.7260762000223622,2.7267962000332773,increament,0.72,6,oddball,j,120,,,,,,,,f,22,202,en,r,0,raw,2022-05-10_10h32.30.793,oddball,2022.1.2,59.94075455366855,
0,,,,,0,0,0,0,3,0,3,0,25,0,25,0,,,,,,,,,,,,,,,,,434.10114299994893,None,434.70087599998806,435.3010063000256,435.2845758999465,437.28498579992447,None,1,0.6110157000366598,2.6113925999961793,increament,0.6,5,standard,None,100,,,,,,,,f,22,202,en,r,0,raw,2022-05-10_10h32.30.793,oddball,2022.1.2,59.94075455366855,
0,,,,,0,0,0,0,3,0,3,0,26,0,26,0,,,,,,,,,,,,,,,,,437.3019267999334,None,437.8852809999371,438.4857449999545,438.4688480999321,440.4697716999799,None,1,0.6126517000375316,2.613602300058119,increament,0.6,5,standard,None,100,,,,,,,,f,22,202,en,r,0,raw,2022-05-10_10h32.30.793,oddball,2022.1.2,59.94075455366855,
0,,,,,0,0,0,0,3,0,3,0,27,0,27,0,,,,,,,,,,,,,,,,,440.48646069993265,None,441.12004109995905,441.71991179999895,441.7034929000074,443.7043033000082,None,1,0.6124545998172835,2.613329899846576,increament,0.6,5,standard,None,100,,,,,,,,f,22,202,en,r,0,raw,2022-05-10_10h32.30.793,oddball,2022.1.2,59.94075455366855,
0,,,,,0,0,0,0,3,0,3,0,28,0,28,0,,,,,,,,,,,,,,,,,443.7218491999665,None,444.35471029998735,444.95493719994556,444.9379174000351,446.9384929999942,None,1,0.6127038999693468,2.613248399924487,increament,0.6,5,standard,None,100,,,,,,,,f,22,202,en,r,0,raw,2022-05-10_10h32.30.793,oddball,2022.1.2,59.94075455366855,
0,,,,,0,0,0,0,3,0,3,0,29,0,29,0,,,,,,,,,,,,,,,,,446.9553520999616,None,447.6725348000182,448.27245940000284,448.25574829999823,450.25646649999544,None,1,0.6123164999298751,2.6130314999027178,increament,0.6,5,standard,None,100,,,,,,,,f,22,202,en,r,0,raw,2022-05-10_10h32.30.793,oddball,2022.1.2,59.94075455366855,
0,,,,,0,0,0,0,4,0,4,0,0,0,0,0,,,,,,,,,,,,,,,451.4736204999499,None,453.0576548000099,None,453.8418910999317,454.44160609995015,454.424932599999,456.425405099988,None,1,0.6087039000121877,2.609155400074087,decreament,0.6,1,standard,None,100,,450.2735716999741,None,,,,,f,22,202,en,r,0,raw,2022-05-10_10h32.30.793,oddball,2022.1.2,59.94075455366855,
0,,,,,0,0,0,0,4,0,4,0,1,0,1,0,,,,,,,,,,,,,,,,,456.4420569000067,None,457.0258845000062,457.6260695999954,457.60943519999273,459.6104809999233,None,1,0.6122030998812988,2.613362299860455,decreament,0.6,1,standard,None,100,,,,,,,,f,22,202,en,r,0,raw,2022-05-10_10h32.30.793,oddball,2022.1.2,59.94075455366855,
0,,,,,0,0,0,0,4,0,4,0,2,0,2,0,,,,,,,,,,,,,,,,,459.62673309992533,None,460.2439187000273,460.84391129994765,460.8273904999951,462.82805320003536,None,1,0.6098053000168875,2.610486500081606,decreament,0.6,1,standard,None,100,,,,,,,,f,22,202,en,r,0,raw,2022-05-10_10h32.30.793,oddball,2022.1.2,59.94075455366855,
0,,,,,0,0,0,0,4,0,4,0,3,0,3,0,,,,,,,,,,,,,,,,,462.8449922000291,None,463.61200269998517,464.2122447999427,464.1955085999798,466.1960344000254,None,1,0.6118575999280438,2.612310699885711,decreament,0.6,1,standard,None,100,,,,,,,,f,22,202,en,r,0,raw,2022-05-10_10h32.30.793,oddball,2022.1.2,59.94075455366855,
0,,,,,0,0,0,0,4,0,4,0,4,0,4,0,,,,,,,,,,,,,,,,,466.21276369993575,None,467.07963609998114,467.6797440999653,467.6634948999854,469.6639877000125,None,1,0.6127531998790801,2.613229699898511,decreament,0.6,1,standard,None,100,,,,,,,,f,22,202,en,r,0,raw,2022-05-10_10h32.30.793,oddball,2022.1.2,59.94075455366855,
0,,,,,0,0,0,0,4,0,4,0,5,0,5,0,,,,,,,,,,,,,,,,,469.68063089996576,None,470.26425280002877,470.86420039995573,470.84850970003754,472.84856890002266,None,1,0.6139411000767723,2.613913099979982,decreament,0.6,1,standard,None,100,,,,,,,,f,22,202,en,r,0,raw,2022-05-10_10h32.30.793,oddball,2022.1.2,59.94075455366855,
0,,,,,0,0,0,0,4,0,4,0,6,0,6,0,,,,,,,,,,,,,,,,,472.8651531999931,None,473.4486277999822,474.0489017999498,474.0327459999826,476.03378019994125,None,1,0.6140729000326246,2.6150949000148103,decreament,0.6,1,standard,None,100,,,,,,,,f,22,202,en,r,0,raw,2022-05-10_10h32.30.793,oddball,2022.1.2,59.94075455366855,
0,,,,,0,0,0,0,4,0,4,0,7,0,7,0,,,,,,,,,,,,,,,,,476.0498924999265,None,476.66691299993545,477.26670919999015,477.2503176999744,479.25117239996325,j,0,0.6094186999835074,2.6102913999930024,decreament,0.6,1,standard,None,100,0.8872091000666842,,,,,,,f,22,202,en,r,0,raw,2022-05-10_10h32.30.793,oddball,2022.1.2,59.94075455366855,
0,,,,,0,0,0,0,4,0,4,0,8,0,8,0,,,,,,,,,,,,,,,,,479.26757249992806,None,479.98490449995734,480.35154269996565,480.3185474999482,482.31875540001784,j,1,0.3597785998135805,2.3599464998114854,decreament,0.36,3,oddball,j,60,0.8113275000359863,,,,,,,f,22,202,en,r,0,raw,2022-05-10_10h32.30.793,oddball,2022.1.2,59.94075455366855,
0,,,,,0,0,0,0,4,0,4,0,9,0,9,0,,,,,,,,,,,,,,,,,482.33557589992415,None,483.0026712999679,483.60260220000055,483.58620819996577,485.5865405999357,None,1,0.6123719000024721,2.6126797000179067,decreament,0.6,1,standard,None,100,,,,,,,,f,22,202,en,r,0,raw,2022-05-10_10h32.30.793,oddball,2022.1.2,59.94075455366855,
0,,,,,0,0,0,0,4,0,4,0,10,0,10,0,,,,,,,,,,,,,,,,,485.60366579995025,None,486.2535998999374,486.8539037000155,486.8372636999702,488.83798650000244,None,1,0.6123493999475613,2.6130754998885095,decreament,0.6,1,standard,None,100,,,,,,,,f,22,202,en,r,0,raw,2022-05-10_10h32.30.793,oddball,2022.1.2,59.94075455366855,
0,,,,,0,0,0,0,4,0,4,0,11,0,11,0,,,,,,,,,,,,,,,,,488.8546148999594,None,489.5214336999925,490.1218860000372,490.1050207000226,492.105738800019,None,1,0.6133151000831276,2.614011900033802,decreament,0.6,1,standard,None,100,,,,,,,,f,22,202,en,r,0,raw,2022-05-10_10h32.30.793,oddball,2022.1.2,59.94075455366855,
0,,,,,0,0,0,0,4,0,4,0,12,0,12,0,,,,,,,,,,,,,,,,,492.12249819992576,None,492.7058607999934,493.3063921999419,493.28985149995424,495.29052469995804,None,1,0.6146811000071466,2.615347000071779,decreament,0.6,1,standard,None,100,,,,,,,,f,22,202,en,r,0,raw,2022-05-10_10h32.30.793,oddball,2022.1.2,59.94075455366855,
0,,,,,0,0,0,0,4,0,4,0,13,0,13,0,,,,,,,,,,,,,,,,,495.30695430003107,None,495.94058880000375,496.54079529992305,496.5241818999639,498.52475739992224,None,1,0.6139266999671236,2.614513000007719,decreament,0.6,1,standard,None,100,,,,,,,,f,22,202,en,r,0,raw,2022-05-10_10h32.30.793,oddball,2022.1.2,59.94075455366855,
0,,,,,0,0,0,0,4,0,4,0,14,0,14,0,,,,,,,,,,,,,,,,,498.5416297999909,None,499.1919840000337,499.7919688000111,499.77540909999516,501.7761124999961,None,1,0.6128622000105679,2.613601899938658,decreament,0.6,1,standard,None,100,,,,,,,,f,22,202,en,r,0,raw,2022-05-10_10h32.30.793,oddball,2022.1.2,59.94075455366855,
0,,,,,0,0,0,0,4,0,4,0,15,0,15,0,,,,,,,,,,,,,,,,,501.7930602999404,None,502.4599574999884,503.0602661999874,503.0436726999469,505.04442389996257,None,1,0.6115212999284267,2.612348699942231,decreament,0.6,1,standard,None,100,,,,,,,,f,22,202,en,r,0,raw,2022-05-10_10h32.30.793,oddball,2022.1.2,59.94075455366855,
0,,,,,0,0,0,0,4,0,4,0,16,0,16,0,,,,,,,,,,,,,,,,,505.0607235999778,None,505.6606016999576,506.2616332999896,506.2446867999388,508.2452875999734,None,1,0.6152233999455348,2.6158141000196338,decreament,0.6,1,standard,None,100,,,,,,,,f,22,202,en,r,0,raw,2022-05-10_10h32.30.793,oddball,2022.1.2,59.94075455366855,
0,,,,,0,0,0,0,4,0,4,0,17,0,17,0,,,,,,,,,,,,,,,,,508.2620878999587,None,508.8457785999635,509.4455840999726,509.42944730003364,511.4298341999529,j,0,0.6129840997746214,2.6133221997879446,decreament,0.6,1,standard,None,100,0.5401285999687389,,,,,,,f,22,202,en,r,0,raw,2022-05-10_10h32.30.793,oddball,2022.1.2,59.94075455366855,
0,,,,,0,0,0,0,4,0,4,0,18,0,18,0,,,,,,,,,,,,,,,,,511.4464971999405,None,512.1966693999711,512.4468211999629,512.4139243999962,514.41454779997,j,1,0.24663649988360703,2.2472302998648956,decreament,0.24,2,oddball,j,40,0.6909249000018463,,,,,,,f,22,202,en,r,0,raw,2022-05-10_10h32.30.793,oddball,2022.1.2,59.94075455366855,
0,,,,,0,0,0,0,4,0,4,0,19,0,19,0,,,,,,,,,,,,,,,,,514.4310026000021,None,514.9978725999827,515.5978840999305,515.581424199976,517.5826653999975,None,1,0.6109399000415578,2.612260299967602,decreament,0.6,1,standard,None,100,,,,,,,,f,22,202,en,r,0,raw,2022-05-10_10h32.30.793,oddball,2022.1.2,59.94075455366855,
0,,,,,0,0,0,0,4,0,4,0,20,0,20,0,,,,,,,,,,,,,,,,,517.5991952000186,None,518.1826004999457,518.7827529000351,518.7658458999358,520.7665011000354,None,1,0.6122869999380782,2.6129334998549893,decreament,0.6,1,standard,None,100,,,,,,,,f,22,202,en,r,0,raw,2022-05-10_10h32.30.793,oddball,2022.1.2,59.94075455366855,
0,,,,,0,0,0,0,4,0,4,0,21,0,21,0,,,,,,,,,,,,,,,,,520.7834139999468,None,521.3838654999854,521.9839917999925,521.967294299975,523.9680437999777,None,1,0.6124849000480026,2.6132873999886215,decreament,0.6,1,standard,None,100,,,,,,,,f,22,202,en,r,0,raw,2022-05-10_10h32.30.793,oddball,2022.1.2,59.94075455366855,
0,,,,,0,0,0,0,4,0,4,0,22,0,22,0,,,,,,,,,,,,,,,,,523.9844064000063,None,524.5853982999688,525.0681169999298,525.0517768999562,527.0524901000317,j,1,0.49267120007425547,2.4934328000526875,decreament,0.48,4,oddball,j,80,0.6217387999640778,,,,,,,f,22,202,en,r,0,raw,2022-05-10_10h32.30.793,oddball,2022.1.2,59.94075455366855,
0,,,,,0,0,0,0,4,0,4,0,23,0,23,0,,,,,,,,,,,,,,,,,527.0690961999353,None,527.6358741000295,528.2362532999832,528.219604199985,530.2200190000003,None,1,0.6135324998758733,2.613898599985987,decreament,0.6,1,standard,None,100,,,,,,,,f,22,202,en,r,0,raw,2022-05-10_10h32.30.793,oddball,2022.1.2,59.94075455366855,
0,,,,,0,0,0,0,4,0,4,0,24,0,24,0,,,,,,,,,,,,,,,,,530.2367749999976,None,530.9539807999972,531.5537497999612,531.5371013999684,533.538066899986,None,1,0.6126153998775408,2.6136355998460203,decreament,0.6,1,standard,None,100,,,,,,,,f,22,202,en,r,0,raw,2022-05-10_10h32.30.793,oddball,2022.1.2,59.94075455366855,
0,,,,,0,0,0,0,4,0,4,0,25,0,25,0,,,,,,,,,,,,,,,,,533.5552219999954,None,534.2386217999738,534.8390519999666,534.8222191999666,536.8230250999331,None,1,0.6132291998947039,2.6140684998827055,decreament,0.6,1,standard,None,100,,,,,,,,f,22,202,en,r,0,raw,2022-05-10_10h32.30.793,oddball,2022.1.2,59.94075455366855,
0,,,,,0,0,0,0,4,0,4,0,26,0,26,0,,,,,,,,,,,,,,,,,536.8411559999222,None,537.4564923000289,538.0564706999576,538.0402176999487,540.0407066999469,None,1,0.6131979000056162,2.613681999966502,decreament,0.6,1,standard,None,100,,,,,,,,f,22,202,en,r,0,raw,2022-05-10_10h32.30.793,oddball,2022.1.2,59.94075455366855,
0,,,,,0,0,0,0,4,0,4,0,27,0,27,0,,,,,,,,,,,,,,,,,540.0574493999593,None,540.707673799945,541.3076149999397,541.291082700016,543.2920373999514,None,1,0.6108043000567704,2.6118242000229657,decreament,0.6,1,standard,None,100,,,,,,,,f,22,202,en,r,0,raw,2022-05-10_10h32.30.793,oddball,2022.1.2,59.94075455366855,
0,,,,,0,0,0,0,4,0,4,0,28,0,28,0,,,,,,,,,,,,,,,,,543.308446799987,None,543.9924416999565,544.5927412000019,544.5760200000368,546.5767045000102,None,1,0.6127306999405846,2.613401100039482,decreament,0.6,1,standard,None,100,,,,,,,,f,22,202,en,r,0,raw,2022-05-10_10h32.30.793,oddball,2022.1.2,59.94075455366855,
0,,,,,0,0,0,0,4,0,4,0,29,0,29,0,,,,,,,,,,,,,,,,,546.5932627000147,None,547.2603588999482,547.8607008999679,547.8441847999347,549.8447424999904,None,1,0.6135837000329047,2.614106500055641,decreament,0.6,1,standard,None,100,,,,,,,,f,22,202,en,r,0,raw,2022-05-10_10h32.30.793,oddball,2022.1.2,59.94075455366855,
0,,,,,0,0,0,0,5,0,5,0,0,0,0,0,,,,,,,,,,,,,,,551.2129998999881,None,553.6458618999459,None,554.2626958999317,554.8626650000224,554.8464618999278,556.8471820999403,None,1,0.6119308999041095,2.6126859999494627,increament,0.6,5,standard,None,100,,549.8613135999767,None,,,,,f,22,202,en,r,0,raw,2022-05-10_10h32.30.793,oddball,2022.1.2,59.94075455366855,
0,,,,,0,0,0,0,5,0,5,0,1,0,1,0,,,,,,,,,,,,,,,,,556.8635907999706,None,557.5475039000157,558.1474048999371,558.1311176000163,560.1318849999225,None,1,0.6116876000305638,2.6124924999894574,increament,0.6,5,standard,None,100,,,,,,,,f,22,202,en,r,0,raw,2022-05-10_10h32.30.793,oddball,2022.1.2,59.94075455366855,
0,,,,,0,0,0,0,5,0,5,0,2,0,2,0,,,,,,,,,,,,,,,,,560.1485256999731,None,560.765456699999,561.3656570999883,561.3488580000121,563.3494982999982,None,1,0.6124209999106824,2.6130092999665067,increament,0.6,5,standard,None,100,,,,,,,,f,22,202,en,r,0,raw,2022-05-10_10h32.30.793,oddball,2022.1.2,59.94075455366855,
0,,,,,0,0,0,0,5,0,5,0,3,0,3,0,,,,,,,,,,,,,,,,,563.3661078999285,None,564.216577299987,564.8166565999854,564.7999111999525,566.8006948999828,None,1,0.6114247000077739,2.612231499981135,increament,0.6,5,standard,None,100,,,,,,,,f,22,202,en,r,0,raw,2022-05-10_10h32.30.793,oddball,2022.1.2,59.94075455366855,
0,,,,,0,0,0,0,5,0,5,0,4,0,4,0,,,,,,,,,,,,,,,,,566.8174308999442,None,567.5344113999745,568.1344569999492,568.1181276999414,570.1189582999796,None,1,0.6128328000195324,2.6137473999988288,increament,0.6,5,standard,None,100,,,,,,,,f,22,202,en,r,0,raw,2022-05-10_10h32.30.793,oddball,2022.1.2,59.94075455366855,
0,,,,,0,0,0,0,5,0,5,0,5,0,5,0,,,,,,,,,,,,,,,,,570.1353786999825,None,570.7194249000167,571.3190120999934,571.3024465999333,573.303195699933,None,1,0.6097471999237314,2.6104819999309257,increament,0.6,5,standard,None,100,,,,,,,,f,22,202,en,r,0,raw,2022-05-10_10h32.30.793,oddball,2022.1.2,59.94075455366855,
0,,,,,0,0,0,0,5,0,5,0,6,0,6,0,,,,,,,,,,,,,,,,,573.3200749999378,None,574.120404999936,574.7203317999374,574.7038240999682,576.7044681999832,None,1,0.6130499999271706,2.6137274998473004,increament,0.6,5,standard,None,100,,,,,,,,f,22,202,en,r,0,raw,2022-05-10_10h32.30.793,oddball,2022.1.2,59.94075455366855,
0,,,,,0,0,0,0,5,0,5,0,7,0,7,0,,,,,,,,,,,,,,,,,576.7210799999302,None,577.4214387999382,578.0217262000078,578.0051861000247,580.0058633999433,None,1,0.6124405999435112,2.6131141999503598,increament,0.6,5,standard,None,100,,,,,,,,f,22,202,en,r,0,raw,2022-05-10_10h32.30.793,oddball,2022.1.2,59.94075455366855,
0,,,,,0,0,0,0,5,0,5,0,8,0,8,0,,,,,,,,,,,,,,,,,580.0223783999681,None,580.7559676999226,581.3563192000147,581.3401973999571,583.3405058999779,None,1,0.6132590998895466,2.6135481998790056,increament,0.6,5,standard,None,100,,,,,,,,f,22,202,en,r,0,raw,2022-05-10_10h32.30.793,oddball,2022.1.2,59.94075455366855,
0,,,,,0,0,0,0,5,0,5,0,9,0,9,0,,,,,,,,,,,,,,,,,583.3570401000325,None,584.0072493000189,584.6074130999623,584.5908439999912,586.5915593999671,None,1,0.6087512000231072,2.60945480002556,increament,0.6,5,standard,None,100,,,,,,,,f,22,202,en,r,0,raw,2022-05-10_10h32.30.793,oddball,2022.1.2,59.94075455366855,
0,,,,,0,0,0,0,5,0,5,0,10,0,10,0,,,,,,,,,,,,,,,,,586.6081857000245,None,587.2421546999831,587.8423305000179,587.8256697999313,589.8262316000182,None,1,0.6128522999351844,2.613386399927549,increament,0.6,5,standard,None,100,,,,,,,,f,22,202,en,r,0,raw,2022-05-10_10h32.30.793,oddball,2022.1.2,59.94075455366855,
0,,,,,0,0,0,0,5,0,5,0,11,0,11,0,,,,,,,,,,,,,,,,,589.8429013999412,None,590.4266230999492,591.2765876000049,591.2433503000066,593.2441605000058,j,1,0.8429194000782445,2.8437181001063436,increament,0.84,7,oddball,j,140,0.7181198999751359,,,,,,,f,22,202,en,r,0,raw,2022-05-10_10h32.30.793,oddball,2022.1.2,59.94075455366855,
0,,,,,0,0,0,0,5,0,5,0,12,0,12,0,,,,,,,,,,,,,,,,,593.2606764999218,None,593.8779146999586,594.4776921999874,594.4615734999534,596.4618628999451,None,1,0.6088454999262467,2.6091070999391377,increament,0.6,5,standard,None,100,,,,,,,,f,22,202,en,r,0,raw,2022-05-10_10h32.30.793,oddball,2022.1.2,59.94075455366855,
0,,,,,0,0,0,0,5,0,5,0,13,0,13,0,,,,,,,,,,,,,,,,,596.4787346000085,None,597.2292181999655,597.8292958999518,597.8125644000247,599.8135866000084,None,1,0.6109881000593305,2.612049800110981,increament,0.6,5,standard,None,100,,,,,,,,f,22,202,en,r,0,raw,2022-05-10_10h32.30.793,oddball,2022.1.2,59.94075455366855,
0,,,,,0,0,0,0,5,0,5,0,14,0,14,0,,,,,,,,,,,,,,,,,599.8325946999248,None,600.463569900021,601.0638534999453,601.0472773000365,603.0482480999781,None,1,0.6125071998685598,2.61346489994321,increament,0.6,5,standard,None,100,,,,,,,,f,22,202,en,r,0,raw,2022-05-10_10h32.30.793,oddball,2022.1.2,59.94075455366855,
0,,,,,0,0,0,0,5,0,5,0,15,0,15,0,,,,,,,,,,,,,,,,,603.0677930000238,None,603.7146886999253,604.314934700029,604.2982551000314,606.2993952999823,None,1,0.6124518999131396,2.6136415998917073,increament,0.6,5,standard,None,100,,,,,,,,f,22,202,en,r,0,raw,2022-05-10_10h32.30.793,oddball,2022.1.2,59.94075455366855,
0,,,,,0,0,0,0,5,0,5,0,16,0,16,0,,,,,,,,,,,,,,,,,606.3155901000137,None,606.9330200999975,607.5326818999602,607.5159977999283,609.5167840999784,None,1,0.6089267999632284,2.60973639995791,increament,0.6,5,standard,None,100,,,,,,,,f,22,202,en,r,0,raw,2022-05-10_10h32.30.793,oddball,2022.1.2,59.94075455366855,
0,,,,,0,0,0,0,5,0,5,0,17,0,17,0,,,,,,,,,,,,,,,,,609.533678799984,None,610.2511271999683,610.8506684999447,610.8343946000095,612.8352521000197,None,1,0.6092513998737559,2.6101658998522907,increament,0.6,5,standard,None,100,,,,,,,,f,22,202,en,r,0,raw,2022-05-10_10h32.30.793,oddball,2022.1.2,59.94075455366855,
0,,,,,0,0,0,0,5,0,5,0,18,0,18,0,,,,,,,,,,,,,,,,,612.8516309999395,None,613.4852614999982,614.4521178000141,614.4189002999337,616.4198121000081,j,1,0.9631838001077995,2.964112100074999,increament,0.96,8,oddball,j,160,0.806431399891153,,,,,,,f,22,202,en,r,0,raw,2022-05-10_10h32.30.793,oddball,2022.1.2,59.94075455366855,
0,,,,,0,0,0,0,5,0,5,0,19,0,19,0,,,,,,,,,,,,,,,,,616.4362676999299,None,617.086801599944,617.686767200008,617.6701808000216,619.670932100038,None,1,0.610417699906975,2.6111368999117985,increament,0.6,5,standard,None,100,,,,,,,,f,22,202,en,r,0,raw,2022-05-10_10h32.30.793,oddball,2022.1.2,59.94075455366855,
0,,,,,0,0,0,0,5,0,5,0,20,0,20,0,,,,,,,,,,,,,,,,,619.687445199932,None,620.45466389996,621.0545805000002,621.0385148000205,623.0386527000228,None,1,0.6100025000050664,2.6100680000381544,increament,0.6,5,standard,None,100,,,,,,,,f,22,202,en,r,0,raw,2022-05-10_10h32.30.793,oddball,2022.1.2,59.94075455366855,
0,,,,,0,0,0,0,5,0,5,0,21,0,21,0,,,,,,,,,,,,,,,,,623.0556629999774,None,623.7057167999446,624.305562100024,624.2894816999324,626.2896348999348,None,1,0.6119115998735651,2.61202559992671,increament,0.6,5,standard,None,100,,,,,,,,f,22,202,en,r,0,raw,2022-05-10_10h32.30.793,oddball,2022.1.2,59.94075455366855,
0,,,,,0,0,0,0,5,0,5,0,22,0,22,0,,,,,,,,,,,,,,,,,626.3063191999681,None,626.9236338000046,627.5240674000233,627.5074255999643,629.5079030999914,None,1,0.6116573000326753,2.612119899946265,increament,0.6,5,standard,None,100,,,,,,,,f,22,202,en,r,0,raw,2022-05-10_10h32.30.793,oddball,2022.1.2,59.94075455366855,
0,,,,,0,0,0,0,5,0,5,0,23,0,23,0,,,,,,,,,,,,,,,,,629.5246681999415,None,630.2414887000341,630.8416374999797,630.8249910000013,632.8257470999379,None,1,0.6126294999849051,2.613415600033477,increament,0.6,5,standard,None,100,,,,,,,,f,22,202,en,r,0,raw,2022-05-10_10h32.30.793,oddball,2022.1.2,59.94075455366855,
0,,,,,0,0,0,0,5,0,5,0,24,0,24,0,,,,,,,,,,,,,,,,,632.842599799973,None,633.5095240999945,634.1093990999507,634.093050400028,636.0935328999767,None,1,0.6096675000153482,2.610127400024794,increament,0.6,5,standard,None,100,,,,,,,,f,22,202,en,r,0,raw,2022-05-10_10h32.30.793,oddball,2022.1.2,59.94075455366855,
0,,,,,0,0,0,0,5,0,5,0,25,0,25,0,,,,,,,,,,,,,,,,,636.1106976999436,None,636.8105647999328,637.4109119999921,637.3943754000356,639.3954001999227,None,1,0.6126492000184953,2.613689100020565,increament,0.6,5,standard,None,100,,,,,,,,f,22,202,en,r,0,raw,2022-05-10_10h32.30.793,oddball,2022.1.2,59.94075455366855,
0,,,,,0,0,0,0,5,0,5,0,26,0,26,0,,,,,,,,,,,,,,,,,639.411550699966,None,640.0119586000219,640.6119790999219,640.5954134999774,642.5960484999232,None,1,0.6133975998964161,2.614041799912229,increament,0.6,5,standard,None,100,,,,,,,,f,22,202,en,r,0,raw,2022-05-10_10h32.30.793,oddball,2022.1.2,59.94075455366855,
0,,,,,0,0,0,0,5,0,5,0,27,0,27,0,,,,,,,,,,,,,,,,,642.6129226000048,None,643.296385900001,643.8967668999685,643.8800893999869,645.880811400013,None,1,0.6133135000709444,2.614026500028558,increament,0.6,5,standard,None,100,,,,,,,,f,22,202,en,r,0,raw,2022-05-10_10h32.30.793,oddball,2022.1.2,59.94075455366855,
0,,,,,0,0,0,0,5,0,5,0,28,0,28,0,,,,,,,,,,,,,,,,,645.8973742999369,None,646.5475120999618,647.1478510999586,647.1311905999901,649.1318517000182,j,0,0.6126559998374432,2.6132739998865873,increament,0.6,5,standard,None,100,0.7970255999825895,,,,,,,f,22,202,en,r,0,raw,2022-05-10_10h32.30.793,oddball,2022.1.2,59.94075455366855,
0,,,,,0,0,0,0,5,0,5,0,29,0,29,0,,,,,,,,,,,,,,,,,649.148514200002,None,649.7660972999875,650.4989277999848,650.4659818999935,652.4668639999582,j,1,0.7281159999547526,2.7291478998959064,increament,0.72,6,oddball,j,120,0.6872900000307709,,,,,,,f,22,202,en,r,0,raw,2022-05-10_10h32.30.793,oddball,2022.1.2,59.94075455366855,
0,,,,,0,0,0,0,6,0,6,0,0,0,0,0,,,,,,,,,,,,,,,655.846334700007,None,657.4851409000112,None,658.3525092999917,658.952189499978,658.9357431000099,660.9365608999506,None,1,0.6097427998902276,2.6106402999721467,decreament,0.6,1,standard,None,100,,652.4875646999571,None,,,,,f,22,202,en,r,0,raw,2022-05-10_10h32.30.793,oddball,2022.1.2,59.94075455366855,
0,,,,,0,0,0,0,6,0,6,0,1,0,1,0,,,,,,,,,,,,,,,,,660.9528633999871,None,661.5198534999508,662.1203787999693,662.1037749999668,664.1041254999582,None,1,0.6132535998476669,2.613580699893646,decreament,0.6,1,standard,None,100,,,,,,,,f,22,202,en,r,0,raw,2022-05-10_10h32.30.793,oddball,2022.1.2,59.94075455366855,
0,,,,,0,0,0,0,6,0,6,0,2,0,2,0,,,,,,,,,,,,,,,,,664.1211404999485,None,664.7213756999699,665.3215374000138,665.3052110000281,667.3058699999237,None,1,0.6118937999708578,2.612343200016767,decreament,0.6,1,standard,None,100,,,,,,,,f,22,202,en,r,0,raw,2022-05-10_10h32.30.793,oddball,2022.1.2,59.94075455366855,
0,,,,,0,0,0,0,6,0,6,0,3,0,3,0,,,,,,,,,,,,,,,,,667.3222879000241,None,667.9891330000246,668.5894890000345,668.572701200028,670.5735292999307,None,1,0.6121551999822259,2.6130468999035656,decreament,0.6,1,standard,None,100,,,,,,,,f,22,202,en,r,0,raw,2022-05-10_10h32.30.793,oddball,2022.1.2,59.94075455366855,
0,,,,,0,0,0,0,6,0,6,0,4,0,4,0,,,,,,,,,,,,,,,,,670.5900298999622,None,671.2071269999724,671.8074151999317,671.7905133999884,673.791620300035,None,1,0.6112554999999702,2.6124374999199063,decreament,0.6,1,standard,None,100,,,,,,,,f,22,202,en,r,0,raw,2022-05-10_10h32.30.793,oddball,2022.1.2,59.94075455366855,
0,,,,,0,0,0,0,6,0,6,0,5,0,5,0,,,,,,,,,,,,,,,,,673.8081734000007,None,674.5247847000137,675.125234899926,675.1085827000206,677.1092187999748,None,1,0.6130857999669388,2.6137014999985695,decreament,0.6,1,standard,None,100,,,,,,,,f,22,202,en,r,0,raw,2022-05-10_10h32.30.793,oddball,2022.1.2,59.94075455366855,
0,,,,,0,0,0,0,6,0,6,0,6,0,6,0,,,,,,,,,,,,,,,,,677.1259417999536,None,677.9595823999261,678.2094136000378,678.1763559000101,680.1770157000283,j,1,0.24571569985710084,2.2463917998829857,decreament,0.24,2,oddball,j,40,0.785446299938485,,,,,,,f,22,202,en,r,0,raw,2022-05-10_10h32.30.793,oddball,2022.1.2,59.94075455366855,
0,,,,,0,0,0,0,6,0,6,0,7,0,7,0,,,,,,,,,,,,,,,,,680.1938115999801,None,680.8774553999538,681.477695700014,681.4611042999895,683.4620239000069,None,1,0.6126456999918446,2.613543599960394,decreament,0.6,1,standard,None,100,,,,,,,,f,22,202,en,r,0,raw,2022-05-10_10h32.30.793,oddball,2022.1.2,59.94075455366855,
0,,,,,0,0,0,0,6,0,6,0,8,0,8,0,,,,,,,,,,,,,,,,,683.4783484999789,None,684.0122989999363,684.6123726000078,684.5957635999657,686.595841399976,None,1,0.6114694999996573,2.611462299944833,decreament,0.6,1,standard,None,100,,,,,,,,f,22,202,en,r,0,raw,2022-05-10_10h32.30.793,oddball,2022.1.2,59.94075455366855,
0,,,,,0,0,0,0,6,0,6,0,9,0,9,0,,,,,,,,,,,,,,,,,686.6125421000179,None,687.2297835999634,687.8300314999651,687.813187199994,689.8139113000361,None,1,0.6130420999834314,2.6138025999534875,decreament,0.6,1,standard,None,100,,,,,,,,f,22,202,en,r,0,raw,2022-05-10_10h32.30.793,oddball,2022.1.2,59.94075455366855,
0,,,,,0,0,0,0,6,0,6,0,10,0,10,0,,,,,,,,,,,,,,,,,689.8308192000259,None,690.4643231999362,691.0645809000125,691.0477493000217,693.0487002999289,None,1,0.6119087999686599,2.612885299953632,decreament,0.6,1,standard,None,100,,,,,,,,f,22,202,en,r,0,raw,2022-05-10_10h32.30.793,oddball,2022.1.2,59.94075455366855,
0,,,,,0,0,0,0,6,0,6,0,11,0,11,0,,,,,,,,,,,,,,,,,693.0655449000187,None,693.832491899957,694.3156394999241,694.2990711999591,696.2995872999309,None,0,0.49276069994084537,2.4932485999306664,decreament,0.48,4,oddball,j,80,,,,,,,,f,22,202,en,r,0,raw,2022-05-10_10h32.30.793,oddball,2022.1.2,59.94075455366855,
0,,,,,0,0,0,0,6,0,6,0,12,0,12,0,,,,,,,,,,,,,,,,,696.3167801999953,None,696.916555600008,697.5169496999588,697.5006017999258,699.5012581000337,None,1,0.6142186999786645,2.6148766999831423,decreament,0.6,1,standard,None,100,,,,,,,,f,22,202,en,r,0,raw,2022-05-10_10h32.30.793,oddball,2022.1.2,59.94075455366855,
0,,,,,0,0,0,0,6,0,6,0,13,0,13,0,,,,,,,,,,,,,,,,,699.518728199997,None,700.1346533999313,700.7347122000065,700.7182264999719,702.7189753999701,None,1,0.6127858000108972,2.6135257000569254,decreament,0.6,1,standard,None,100,,,,,,,,f,22,202,en,r,0,raw,2022-05-10_10h32.30.793,oddball,2022.1.2,59.94075455366855,
0,,,,,0,0,0,0,6,0,6,0,14,0,14,0,,,,,,,,,,,,,,,,,702.7354612000054,None,703.6193468000274,704.2195173000218,704.2031985999784,706.2035071999999,None,1,0.6122921999776736,2.6125718998955563,decreament,0.6,1,standard,None,100,,,,,,,,f,22,202,en,r,0,raw,2022-05-10_10h32.30.793,oddball,2022.1.2,59.94075455366855,
0,,,,,0,0,0,0,6,0,6,0,15,0,15,0,,,,,,,,,,,,,,,,,706.2203901000321,None,706.8872356000356,707.4877334999619,707.4709343999857,709.4715536999283,None,1,0.6127982999896631,2.613392399973236,decreament,0.6,1,standard,None,100,,,,,,,,f,22,202,en,r,0,raw,2022-05-10_10h32.30.793,oddball,2022.1.2,59.94075455366855,
0,,,,,0,0,0,0,6,0,6,0,16,0,16,0,,,,,,,,,,,,,,,,,709.4884011999238,None,710.0721497000195,710.6718217999442,710.6553500000155,712.6560823000036,None,1,0.6101215000962839,2.6108370000729337,decreament,0.6,1,standard,None,100,,,,,,,,f,22,202,en,r,0,raw,2022-05-10_10h32.30.793,oddball,2022.1.2,59.94075455366855,
0,,,,,0,0,0,0,6,0,6,0,17,0,17,0,,,,,,,,,,,,,,,,,712.6726836999878,None,713.2563043999253,713.8567894999869,713.8399212999502,715.8407750999322,j,0,0.6125502999639139,2.6134043999481946,decreament,0.6,1,standard,None,100,1.0004381000762805,,,,,,,f,22,202,en,r,0,raw,2022-05-10_10h32.30.793,oddball,2022.1.2,59.94075455366855,
0,,,,,0,0,0,0,6,0,6,0,18,0,18,0,,,,,,,,,,,,,,,,,715.8585824000183,None,716.5410923999734,717.1408844999969,717.1242354999995,719.125166999991,None,1,0.6118914999533445,2.6128531999420375,decreament,0.6,1,standard,None,100,,,,,,,,f,22,202,en,r,0,raw,2022-05-10_10h32.30.793,oddball,2022.1.2,59.94075455366855,
0,,,,,0,0,0,0,6,0,6,0,19,0,19,0,,,,,,,,,,,,,,,,,719.1421130000381,None,719.6587340999395,720.2591474000365,720.2423161999322,722.243323200033,j,0,0.6120686000213027,2.6130336000351235,decreament,0.6,1,standard,None,100,0.7264468999346718,,,,,,,f,22,202,en,r,0,raw,2022-05-10_10h32.30.793,oddball,2022.1.2,59.94075455366855,
0,,,,,0,0,0,0,6,0,6,0,20,0,20,0,,,,,,,,,,,,,,,,,722.2596941000083,None,722.9432429999579,723.5433143000118,723.5268518999219,725.527659000014,None,1,0.613262900034897,2.6140868000220507,decreament,0.6,1,standard,None,100,,,,,,,,f,22,202,en,r,0,raw,2022-05-10_10h32.30.793,oddball,2022.1.2,59.94075455366855,
0,,,,,0,0,0,0,6,0,6,0,21,0,21,0,,,,,,,,,,,,,,,,,725.5445029999828,None,726.1111367000267,726.7111987000098,726.6947365000378,728.695760200033,None,1,0.6126628998899832,2.6137596998596564,decreament,0.6,1,standard,None,100,,,,,,,,f,22,202,en,r,0,raw,2022-05-10_10h32.30.793,oddball,2022.1.2,59.94075455366855,
0,,,,,0,0,0,0,6,0,6,0,22,0,22,0,,,,,,,,,,,,,,,,,728.7122985000024,None,729.2791828999761,729.6456900000339,729.612478199997,731.6132332999259,j,1,0.3632628000341356,2.36400970001705,decreament,0.36,3,oddball,j,60,0.9155992000596598,,,,,,,f,22,202,en,r,0,raw,2022-05-10_10h32.30.793,oddball,2022.1.2,59.94075455366855,
0,,,,,0,0,0,0,6,0,6,0,23,0,23,0,,,,,,,,,,,,,,,,,731.6301967999898,None,732.1802114000311,732.7802520999685,732.7635108999675,734.7644332000054,None,1,0.6096803999971598,2.610679700039327,decreament,0.6,1,standard,None,100,,,,,,,,f,22,202,en,r,0,raw,2022-05-10_10h32.30.793,oddball,2022.1.2,59.94075455366855,
0,,,,,0,0,0,0,6,0,6,0,24,0,24,0,,,,,,,,,,,,,,,,,734.7815164999338,None,735.4812687999802,736.0814206999494,736.0650405000197,738.0655824999558,None,1,0.6136482999427244,2.6142068998888135,decreament,0.6,1,standard,None,100,,,,,,,,f,22,202,en,r,0,raw,2022-05-10_10h32.30.793,oddball,2022.1.2,59.94075455366855,
0,,,,,0,0,0,0,6,0,6,0,25,0,25,0,,,,,,,,,,,,,,,,,738.0823663999327,None,738.665881199995,739.2662444999442,739.2496050000191,741.2500851999503,None,1,0.6136817000806332,2.6141069000586867,decreament,0.6,1,standard,None,100,,,,,,,,f,22,202,en,r,0,raw,2022-05-10_10h32.30.793,oddball,2022.1.2,59.94075455366855,
0,,,,,0,0,0,0,6,0,6,0,26,0,26,0,,,,,,,,,,,,,,,,,741.2672131999861,None,742.0840657999506,742.6837989999913,742.6674053999595,744.6679288999876,None,1,0.6126110998447984,2.613121899892576,decreament,0.6,1,standard,None,100,,,,,,,,f,22,202,en,r,0,raw,2022-05-10_10h32.30.793,oddball,2022.1.2,59.94075455366855,
0,,,,,0,0,0,0,6,0,6,0,27,0,27,0,,,,,,,,,,,,,,,,,744.6847586999647,None,745.2519061999628,745.8519359999336,745.8353282000171,747.8357550000073,None,1,0.6127892000367865,2.613190000061877,decreament,0.6,1,standard,None,100,,,,,,,,f,22,202,en,r,0,raw,2022-05-10_10h32.30.793,oddball,2022.1.2,59.94075455366855,
0,,,,,0,0,0,0,6,0,6,0,28,0,28,0,,,,,,,,,,,,,,,,,747.8525392999873,None,748.3696727999486,748.9697556999745,748.9530749999685,750.9538602000102,None,1,0.6094554000301287,2.6102732999715954,decreament,0.6,1,standard,None,100,,,,,,,,f,22,202,en,r,0,raw,2022-05-10_10h32.30.793,oddball,2022.1.2,59.94075455366855,
0,,,,,0,0,0,0,6,0,6,0,29,0,29,0,,,,,,,,,,,,,,,,,750.9707092000172,None,751.6540099999402,752.2545129000209,752.2375745000318,754.2386897000251,None,1,0.6119106999831274,2.612995499977842,decreament,0.6,1,standard,None,100,,,,,,,,f,22,202,en,r,0,raw,2022-05-10_10h32.30.793,oddball,2022.1.2,59.94075455366855,
0,,,,,0,0,0,0,7,0,7,0,0,0,0,0,,,,,,,,,,,,,,,756.1769408999244,None,758.3730932000326,None,759.0070872999495,759.6069814999355,759.5907664999831,761.5912436000071,None,1,0.6118311999598518,2.612275499966927,increament,0.6,5,standard,None,100,,754.255124200019,None,,,,,f,22,202,en,r,0,raw,2022-05-10_10h32.30.793,oddball,2022.1.2,59.94075455366855,
0,,,,,0,0,0,0,7,0,7,0,1,0,1,0,,,,,,,,,,,,,,,,,761.607993899961,None,762.2748863999732,762.8750159000047,762.8583654999966,764.8592129999306,None,1,0.6102400999516249,2.6111316999886185,increament,0.6,5,standard,None,100,,,,,,,,f,22,202,en,r,0,raw,2022-05-10_10h32.30.793,oddball,2022.1.2,59.94075455366855,
0,,,,,0,0,0,0,7,0,7,0,2,0,2,0,,,,,,,,,,,,,,,,,764.8760985999834,None,765.593301899964,766.1928817000007,766.176496900036,768.1770830999594,None,1,0.6114856000058353,2.6120886999415234,increament,0.6,5,standard,None,100,,,,,,,,f,22,202,en,r,0,raw,2022-05-10_10h32.30.793,oddball,2022.1.2,59.94075455366855,
0,,,,,0,0,0,0,7,0,7,0,3,0,3,0,,,,,,,,,,,,,,,,,768.1936977999285,None,769.027446800028,769.6275920999469,769.6112358999671,771.6115645000245,None,1,0.6136481998255476,2.6139148998772725,increament,0.6,5,standard,None,100,,,,,,,,f,22,202,en,r,0,raw,2022-05-10_10h32.30.793,oddball,2022.1.2,59.94075455366855,
0,,,,,0,0,0,0,7,0,7,0,4,0,4,0,,,,,,,,,,,,,,,,,771.628463699948,None,772.1618820999283,772.7621881000232,772.7454232999589,774.7462271000259,None,1,0.6086779000470415,2.609468500013463,increament,0.6,5,standard,None,100,,,,,,,,f,22,202,en,r,0,raw,2022-05-10_10h32.30.793,oddball,2022.1.2,59.94075455366855,
0,,,,,0,0,0,0,7,0,7,0,5,0,5,0,,,,,,,,,,,,,,,,,774.7628955999389,None,775.3470278999303,775.9464089999674,775.9301799000241,777.9307224999648,None,1,0.6103905999334529,2.610935999895446,increament,0.6,5,standard,None,100,,,,,,,,f,22,202,en,r,0,raw,2022-05-10_10h32.30.793,oddball,2022.1.2,59.94075455366855,
0,,,,,0,0,0,0,7,0,7,0,6,0,6,0,,,,,,,,,,,,,,,,,777.9474420000333,None,778.6977214999497,779.29825969995,779.2816732999636,781.2820024000248,None,1,0.6131214001215994,2.6134072000859305,increament,0.6,5,standard,None,100,,,,,,,,f,22,202,en,r,0,raw,2022-05-10_10h32.30.793,oddball,2022.1.2,59.94075455366855,
0,,,,,0,0,0,0,7,0,7,0,7,0,7,0,,,,,,,,,,,,,,,,,781.2988277999684,None,781.915817799978,782.5157965000253,782.4995802999474,784.4998806000222,None,1,0.6132020000368357,2.6134307000320405,increament,0.6,5,standard,None,100,,,,,,,,f,22,202,en,r,0,raw,2022-05-10_10h32.30.793,oddball,2022.1.2,59.94075455366855,
0,,,,,0,0,0,0,7,0,7,0,8,0,8,0,,,,,,,,,,,,,,,,,784.5164822000079,None,785.0835501999827,785.6836728999624,785.6669759999495,787.6676319999387,None,1,0.6122479998739436,2.6128945999080315,increament,0.6,5,standard,None,100,,,,,,,,f,22,202,en,r,0,raw,2022-05-10_10h32.30.793,oddball,2022.1.2,59.94075455366855,
0,,,,,0,0,0,0,7,0,7,0,9,0,9,0,,,,,,,,,,,,,,,,,787.6846439000219,None,788.2344015999697,789.0849027000368,789.0521893999539,791.0525883999653,j,1,0.8476328999968246,2.8483101999154314,increament,0.84,7,oddball,j,140,0.6845011999830604,,,,,,,f,22,202,en,r,0,raw,2022-05-10_10h32.30.793,oddball,2022.1.2,59.94075455366855,
0,,,,,0,0,0,0,7,0,7,0,10,0,10,0,,,,,,,,,,,,,,,,,791.0693371000234,None,791.7359331999905,792.3361554000294,792.319598400034,794.3206076000351,None,1,0.612483800156042,2.6135527001461014,increament,0.6,5,standard,None,100,,,,,,,,f,22,202,en,r,0,raw,2022-05-10_10h32.30.793,oddball,2022.1.2,59.94075455366855,
0,,,,,0,0,0,0,7,0,7,0,11,0,11,0,,,,,,,,,,,,,,,,,794.3376718999352,None,794.9039726000046,795.5044113999465,795.4878825999331,797.4881257999223,None,1,0.61332979996223,2.6134725000010803,increament,0.6,5,standard,None,100,,,,,,,,f,22,202,en,r,0,raw,2022-05-10_10h32.30.793,oddball,2022.1.2,59.94075455366855,
0,,,,,0,0,0,0,7,0,7,0,12,0,12,0,,,,,,,,,,,,,,,,,797.504875899991,None,798.2052983000176,798.8053444999969,798.7887083999813,800.7896922000218,None,1,0.6119180000387132,2.612987200031057,increament,0.6,5,standard,None,100,,,,,,,,f,22,202,en,r,0,raw,2022-05-10_10h32.30.793,oddball,2022.1.2,59.94075455366855,
0,,,,,0,0,0,0,7,0,7,0,13,0,13,0,,,,,,,,,,,,,,,,,800.8061862000031,None,801.4897051999578,802.0897387999576,802.0734095999505,804.074263599934,None,1,0.6128113998565823,2.613738099928014,increament,0.6,5,standard,None,100,,,,,,,,f,22,202,en,r,0,raw,2022-05-10_10h32.30.793,oddball,2022.1.2,59.94075455366855,
0,,,,,0,0,0,0,7,0,7,0,14,0,14,0,,,,,,,,,,,,,,,,,804.090794699965,None,804.6407895999728,805.2412228999892,805.2247559999814,807.2251097999979,None,1,0.6135792998829857,2.6138701998861507,increament,0.6,5,standard,None,100,,,,,,,,f,22,202,en,r,0,raw,2022-05-10_10h32.30.793,oddball,2022.1.2,59.94075455366855,
0,,,,,0,0,0,0,7,0,7,0,15,0,15,0,,,,,,,,,,,,,,,,,807.241937499959,None,807.9922102999408,808.5925229999702,808.5758340000175,810.5763154999586,None,1,0.6080981999402866,2.608553599915467,increament,0.6,5,standard,None,100,,,,,,,,f,22,202,en,r,0,raw,2022-05-10_10h32.30.793,oddball,2022.1.2,59.94075455366855,
0,,,,,0,0,0,0,7,0,7,0,16,0,16,0,,,,,,,,,,,,,,,,,810.5930847999407,None,811.2104932999937,811.810122899944,811.7933920000214,813.7944572999841,None,1,0.6102290999842808,2.6113792000105605,increament,0.6,5,standard,None,100,,,,,,,,f,22,202,en,r,0,raw,2022-05-10_10h32.30.793,oddball,2022.1.2,59.94075455366855,
0,,,,,0,0,0,0,7,0,7,0,17,0,17,0,,,,,,,,,,,,,,,,,813.8110151999863,None,814.3779504999984,814.9781069000019,814.9614079999737,816.9623628000263,None,1,0.6132561998674646,2.614165199920535,increament,0.6,5,standard,None,100,,,,,,,,f,22,202,en,r,0,raw,2022-05-10_10h32.30.793,oddball,2022.1.2,59.94075455366855,
0,,,,,0,0,0,0,7,0,7,0,18,0,18,0,,,,,,,,,,,,,,,,,816.9788508999627,None,817.6625011999859,818.2624889999861,818.2462483999552,820.2465964999283,None,1,0.6127258000196889,2.6130452000070363,increament,0.6,5,standard,None,100,,,,,,,,f,22,202,en,r,0,raw,2022-05-10_10h32.30.793,oddball,2022.1.2,59.94075455366855,
0,,,,,0,0,0,0,7,0,7,0,19,0,19,0,,,,,,,,,,,,,,,,,820.2633971000323,None,820.8968442999758,821.4973815999692,821.4806176000275,823.4811603999697,None,1,0.6139704999513924,2.6145077999681234,increament,0.6,5,standard,None,100,,,,,,,,f,22,202,en,r,0,raw,2022-05-10_10h32.30.793,oddball,2022.1.2,59.94075455366855,
0,,,,,0,0,0,0,7,0,7,0,20,0,20,0,,,,,,,,,,,,,,,,,823.4981671000132,None,824.1651602999773,824.7649679000024,824.7482914000284,826.7491012000246,j,0,0.6126329998951405,2.6134805999463424,increament,0.6,5,standard,None,100,0.7318619999568909,,,,,,,f,22,202,en,r,0,raw,2022-05-10_10h32.30.793,oddball,2022.1.2,59.94075455366855,
0,,,,,0,0,0,0,7,0,7,0,21,0,21,0,,,,,,,,,,,,,,,,,826.7660219999962,None,827.3994688999373,827.999718099949,827.9832543999655,829.9837838999229,j,0,0.6132108999881893,2.6137151999864727,increament,0.6,5,standard,None,100,0.7528923000209033,,,,,,,f,22,202,en,r,0,raw,2022-05-10_10h32.30.793,oddball,2022.1.2,59.94075455366855,
0,,,,,0,0,0,0,7,0,7,0,22,0,22,0,,,,,,,,,,,,,,,,,830.0004608000163,None,830.6010784999235,831.2007802999578,831.1843267999357,833.184884199989,None,1,0.6095372999552637,2.610043099964969,increament,0.6,5,standard,None,100,,,,,,,,f,22,202,en,r,0,raw,2022-05-10_10h32.30.793,oddball,2022.1.2,59.94075455366855,
0,,,,,0,0,0,0,7,0,7,0,23,0,23,0,,,,,,,,,,,,,,,,,833.2017188000027,None,833.785641000024,834.3856523999711,834.3687735999702,836.3696083999239,None,1,0.6123297999147326,2.6131733999354765,increament,0.6,5,standard,None,100,,,,,,,,f,22,202,en,r,0,raw,2022-05-10_10h32.30.793,oddball,2022.1.2,59.94075455366855,
0,,,,,0,0,0,0,7,0,7,0,24,0,24,0,,,,,,,,,,,,,,,,,836.3863133999985,None,837.0031128999544,837.6033980000066,837.5869801000226,839.5877530999715,None,1,0.6094694999046624,2.61023699992802,increament,0.6,5,standard,None,100,,,,,,,,f,22,202,en,r,0,raw,2022-05-10_10h32.30.793,oddball,2022.1.2,59.94075455366855,
0,,,,,0,0,0,0,7,0,7,0,25,0,25,0,,,,,,,,,,,,,,,,,839.6039541999344,None,840.2377662999788,841.2050643999828,841.1715654999716,843.1723359000171,None,0,0.961261099902913,2.9620080998865888,increament,0.96,8,oddball,j,160,,,,,,,,f,22,202,en,r,0,raw,2022-05-10_10h32.30.793,oddball,2022.1.2,59.94075455366855,
0,,,,,0,0,0,0,7,0,7,0,26,0,26,0,,,,,,,,,,,,,,,,,843.1887756999349,None,843.7556823999621,844.3558640999254,844.339457300026,846.3402364000212,None,1,0.6107589000603184,2.6115858000703156,increament,0.6,5,standard,None,100,,,,,,,,f,22,202,en,r,0,raw,2022-05-10_10h32.30.793,oddball,2022.1.2,59.94075455366855,
0,,,,,0,0,0,0,7,0,7,0,27,0,27,0,,,,,,,,,,,,,,,,,846.3566740999231,None,847.1236496999627,847.7241000999929,847.7071968999226,849.7083797999658,None,1,0.6119549000868574,2.613195100100711,increament,0.6,5,standard,None,100,,,,,,,,f,22,202,en,r,0,raw,2022-05-10_10h32.30.793,oddball,2022.1.2,59.94075455366855,
0,,,,,0,0,0,0,7,0,7,0,28,0,28,0,,,,,,,,,,,,,,,,,849.7244691000087,None,850.3916878999444,850.9919054999482,850.9755799999693,852.9761355000082,None,1,0.6108406998682767,2.6113960999064147,increament,0.6,5,standard,None,100,,,,,,,,f,22,202,en,r,0,raw,2022-05-10_10h32.30.793,oddball,2022.1.2,59.94075455366855,
0,,,,,0,0,0,0,7,0,7,0,29,0,29,0,,,,,,,,,,,,,,,,,852.9925930999452,None,853.7261911999667,854.4594621999422,854.4263438000344,856.4270346999401,j,1,0.7291079999413341,2.729807599913329,increament,0.72,6,oddball,j,120,0.5583607000298798,,,,,,,f,22,202,en,r,0,raw,2022-05-10_10h32.30.793,oddball,2022.1.2,59.94075455366855,
0,,,,,0,0,0,0,8,0,8,0,0,0,0,0,,,,,,,,,,,,,,,858.3002734000329,None,861.2791016999399,None,861.8794138999656,862.479786299984,862.4629511999665,864.4636396999704,None,1,0.6123188000638038,2.613026500097476,decreament,0.6,1,standard,None,100,,856.4440133000026,None,,,,,f,22,202,en,r,0,raw,2022-05-10_10h32.30.793,oddball,2022.1.2,59.94075455366855,
0,,,,,0,0,0,0,8,0,8,0,1,0,1,0,,,,,,,,,,,,,,,,,864.4803689999972,None,865.2304558999604,865.8307086999994,865.814265999943,867.8144883000059,None,1,0.6124667999101803,2.6126506999135017,decreament,0.6,1,standard,None,100,,,,,,,,f,22,202,en,r,0,raw,2022-05-10_10h32.30.793,oddball,2022.1.2,59.94075455366855,
0,,,,,0,0,0,0,8,0,8,0,2,0,2,0,,,,,,,,,,,,,,,,,867.8312257999787,None,868.3651044999715,868.9652230000356,868.9484917999944,870.9493209000211,None,1,0.6118497999850661,2.6126995000522584,decreament,0.6,1,standard,None,100,,,,,,,,f,22,202,en,r,0,raw,2022-05-10_10h32.30.793,oddball,2022.1.2,59.94075455366855,
0,,,,,0,0,0,0,8,0,8,0,3,0,3,0,,,,,,,,,,,,,,,,,870.9659821999958,None,871.9165993999923,872.5165897000115,872.5001995000057,874.5006661999505,None,1,0.6132317001465708,2.6136574001284316,decreament,0.6,1,standard,None,100,,,,,,,,f,22,202,en,r,0,raw,2022-05-10_10h32.30.793,oddball,2022.1.2,59.94075455366855,
0,,,,,0,0,0,0,8,0,8,0,4,0,4,0,,,,,,,,,,,,,,,,,874.5174597000005,None,875.2509830000345,875.8509714999236,875.8344429000281,877.835607899935,None,1,0.6108979999553412,2.6121443000156432,decreament,0.6,1,standard,None,100,,,,,,,,f,22,202,en,r,0,raw,2022-05-10_10h32.30.793,oddball,2022.1.2,59.94075455366855,
0,,,,,0,0,0,0,8,0,8,0,5,0,5,0,,,,,,,,,,,,,,,,,877.8526884999592,None,878.6687238999875,879.2692881999537,879.2524947000202,881.2534318999387,None,1,0.6141539998352528,2.6150880998466164,decreament,0.6,1,standard,None,100,,,,,,,,f,22,202,en,r,0,raw,2022-05-10_10h32.30.793,oddball,2022.1.2,59.94075455366855,
0,,,,,0,0,0,0,8,0,8,0,6,0,6,0,,,,,,,,,,,,,,,,,881.2698493000353,None,881.9533919999376,882.55367319996,882.5372417999897,884.5378675999818,j,0,0.6130192000418901,2.6136869001202285,decreament,0.6,1,standard,None,100,0.5754361000144854,,,,,,,f,22,202,en,r,0,raw,2022-05-10_10h32.30.793,oddball,2022.1.2,59.94075455366855,
0,,,,,0,0,0,0,8,0,8,0,7,0,7,0,,,,,,,,,,,,,,,,,884.5546321999282,None,885.3050220999867,885.9050342999399,885.8885672999313,887.8893625999335,j,0,0.6097746999002993,2.6105555999092758,decreament,0.6,1,standard,None,100,1.0237396999727935,,,,,,,f,22,202,en,r,0,raw,2022-05-10_10h32.30.793,oddball,2022.1.2,59.94075455366855,
0,,,,,0,0,0,0,8,0,8,0,8,0,8,0,,,,,,,,,,,,,,,,,887.9057791000232,None,888.455828599981,889.0561914999271,889.0393508999841,891.0402240999974,j,0,0.6138088000006974,2.6147090999875218,decreament,0.6,1,standard,None,100,0.9135304000228643,,,,,,,f,22,202,en,r,0,raw,2022-05-10_10h32.30.793,oddball,2022.1.2,59.94075455366855,
0,,,,,0,0,0,0,8,0,8,0,9,0,9,0,,,,,,,,,,,,,,,,,891.0572981999721,None,891.8906197999604,892.4908737000078,892.4741330000106,894.4749660999514,None,1,0.6116375998826697,2.6124811999034137,decreament,0.6,1,standard,None,100,,,,,,,,f,22,202,en,r,0,raw,2022-05-10_10h32.30.793,oddball,2022.1.2,59.94075455366855,
0,,,,,0,0,0,0,8,0,8,0,10,0,10,0,,,,,,,,,,,,,,,,,894.4919343999354,None,895.2754260000074,895.8756108999951,895.8586338999448,897.8597468000371,None,1,0.6115996999433264,2.612758499919437,decreament,0.6,1,standard,None,100,,,,,,,,f,22,202,en,r,0,raw,2022-05-10_10h32.30.793,oddball,2022.1.2,59.94075455366855,
0,,,,,0,0,0,0,8,0,8,0,11,0,11,0,,,,,,,,,,,,,,,,,897.8762070999946,None,898.5770307999337,899.1766671999358,899.1599310999736,901.160696899984,None,1,0.6094901998294517,2.610283099929802,decreament,0.6,1,standard,None,100,,,,,,,,f,22,202,en,r,0,raw,2022-05-10_10h32.30.793,oddball,2022.1.2,59.94075455366855,
0,,,,,0,0,0,0,8,0,8,0,12,0,12,0,,,,,,,,,,,,,,,,,901.1777671999298,None,901.7946597000118,902.3945301999338,902.378274000017,904.3787356999237,None,1,0.6106451998930424,2.6110999998636544,decreament,0.6,1,standard,None,100,,,,,,,,f,22,202,en,r,0,raw,2022-05-10_10h32.30.793,oddball,2022.1.2,59.94075455366855,
0,,,,,0,0,0,0,8,0,8,0,13,0,13,0,,,,,,,,,,,,,,,,,904.3956361999735,None,904.9622849000152,905.2121939000208,905.1788444999838,907.1796802999452,j,1,0.24690359993837774,2.2477706999052316,decreament,0.24,2,oddball,j,40,0.5891694999299943,,,,,,,f,22,202,en,r,0,raw,2022-05-10_10h32.30.793,oddball,2022.1.2,59.94075455366855,
0,,,,,0,0,0,0,8,0,8,0,14,0,14,0,,,,,,,,,,,,,,,,,907.196387700038,None,907.796618900029,908.3968288999749,908.3802160000196,910.3810905999271,j,0,0.6122383000329137,2.613118400098756,decreament,0.6,1,standard,None,100,1.6125494000734761,,,,,,,f,22,202,en,r,0,raw,2022-05-10_10h32.30.793,oddball,2022.1.2,59.94075455366855,
0,,,,,0,0,0,0,8,0,8,0,15,0,15,0,,,,,,,,,,,,,,,,,910.3977485999931,None,911.0481285999995,911.6480592000298,911.6315780000295,913.6324081999483,None,1,0.6127773000625893,2.6136068999767303,decreament,0.6,1,standard,None,100,,,,,,,,f,22,202,en,r,0,raw,2022-05-10_10h32.30.793,oddball,2022.1.2,59.94075455366855,
0,,,,,0,0,0,0,8,0,8,0,16,0,16,0,,,,,,,,,,,,,,,,,913.6487173000351,None,914.3824449999956,914.9825470999349,914.9659367999993,916.9671891999897,None,1,0.612286499934271,2.6136473999358714,decreament,0.6,1,standard,None,100,,,,,,,,f,22,202,en,r,0,raw,2022-05-10_10h32.30.793,oddball,2022.1.2,59.94075455366855,
0,,,,,0,0,0,0,8,0,8,0,17,0,17,0,,,,,,,,,,,,,,,,,916.9850971000269,None,917.6504437000258,918.2506449000211,918.2342018999625,920.2346563999308,None,1,0.6128818998113275,2.6132972998311743,decreament,0.6,1,standard,None,100,,,,,,,,f,22,202,en,r,0,raw,2022-05-10_10h32.30.793,oddball,2022.1.2,59.94075455366855,
0,,,,,0,0,0,0,8,0,8,0,18,0,18,0,,,,,,,,,,,,,,,,,920.2514551000204,None,920.9015392999863,921.5020661000162,921.4853608999401,923.4858015000354,None,1,0.6127725000260398,2.6131367000052705,decreament,0.6,1,standard,None,100,,,,,,,,f,22,202,en,r,0,raw,2022-05-10_10h32.30.793,oddball,2022.1.2,59.94075455366855,
0,,,,,0,0,0,0,8,0,8,0,19,0,19,0,,,,,,,,,,,,,,,,,923.502463700017,None,924.2361089999322,924.836542999954,924.8198808999732,926.8207139000297,None,1,0.6128494999138638,2.6137287999736145,decreament,0.6,1,standard,None,100,,,,,,,,f,22,202,en,r,0,raw,2022-05-10_10h32.30.793,oddball,2022.1.2,59.94075455366855,
0,,,,,0,0,0,0,8,0,8,0,20,0,20,0,,,,,,,,,,,,,,,,,926.8377504999517,None,927.5379644000204,928.1372710999567,928.1206064999569,930.1215735999867,None,1,0.6079935999587178,2.608995599905029,decreament,0.6,1,standard,None,100,,,,,,,,f,22,202,en,r,0,raw,2022-05-10_10h32.30.793,oddball,2022.1.2,59.94075455366855,
0,,,,,0,0,0,0,8,0,8,0,21,0,21,0,,,,,,,,,,,,,,,,,930.1383674999233,None,930.7553405000363,931.1222121999599,931.0885923999595,933.0895222999388,j,1,0.3630189999239519,2.3639586998615414,decreament,0.36,3,oddball,j,60,0.5989741999655962,,,,,,,f,22,202,en,r,0,raw,2022-05-10_10h32.30.793,oddball,2022.1.2,59.94075455366855,
0,,,,,0,0,0,0,8,0,8,0,22,0,22,0,,,,,,,,,,,,,,,,,933.1060966999503,None,933.8399378999602,934.4400367999915,934.4234081000322,936.4240778000094,None,1,0.6108624999178573,2.6115238999482244,decreament,0.6,1,standard,None,100,,,,,,,,f,22,202,en,r,0,raw,2022-05-10_10h32.30.793,oddball,2022.1.2,59.94075455366855,
0,,,,,0,0,0,0,8,0,8,0,23,0,23,0,,,,,,,,,,,,,,,,,936.4406446999637,None,937.0578520999989,937.6581554999575,937.6412496999837,939.642195399967,None,1,0.6119980999501422,2.6130325999110937,decreament,0.6,1,standard,None,100,,,,,,,,f,22,202,en,r,0,raw,2022-05-10_10h32.30.793,oddball,2022.1.2,59.94075455366855,
0,,,,,0,0,0,0,8,0,8,0,24,0,24,0,,,,,,,,,,,,,,,,,939.6589593000244,None,940.2422037000069,940.8423217999516,940.8259248000104,942.8263781999703,None,1,0.6126492000184953,2.6131035001017153,decreament,0.6,1,standard,None,100,,,,,,,,f,22,202,en,r,0,raw,2022-05-10_10h32.30.793,oddball,2022.1.2,59.94075455366855,
0,,,,,0,0,0,0,8,0,8,0,25,0,25,0,,,,,,,,,,,,,,,,,942.8433094000211,None,943.4438130999915,944.0442816999275,944.0274493999314,946.0278707999969,None,1,0.6115219999337569,2.6119118998758495,decreament,0.6,1,standard,None,100,,,,,,,,f,22,202,en,r,0,raw,2022-05-10_10h32.30.793,oddball,2022.1.2,59.94075455366855,
0,,,,,0,0,0,0,8,0,8,0,26,0,26,0,,,,,,,,,,,,,,,,,946.0449423999526,None,946.6949301999994,947.1779678999446,947.1451430999441,949.1459248999599,None,0,0.4950693999417126,2.496550500043668,decreament,0.48,4,oddball,j,80,,,,,,,,f,22,202,en,r,0,raw,2022-05-10_10h32.30.793,oddball,2022.1.2,59.94075455366855,
0,,,,,0,0,0,0,8,0,8,0,27,0,27,0,,,,,,,,,,,,,,,,,949.1791735999286,None,949.7459190000081,950.3459659999935,950.329116399982,952.3301510999445,None,1,0.613337199902162,2.6144332999829203,decreament,0.6,1,standard,None,100,,,,,,,,f,22,202,en,r,0,raw,2022-05-10_10h32.30.793,oddball,2022.1.2,59.94075455366855,
0,,,,,0,0,0,0,8,0,8,0,28,0,28,0,,,,,,,,,,,,,,,,,952.3468900999287,None,952.9474783999613,953.5473129999591,953.5307459000032,955.531560500036,None,1,0.6103999000042677,2.6112078999867663,decreament,0.6,1,standard,None,100,,,,,,,,f,22,202,en,r,0,raw,2022-05-10_10h32.30.793,oddball,2022.1.2,59.94075455366855,
0,,,,,0,0,0,0,8,0,8,0,29,0,29,0,,,,,,,,,,,,,,,,,955.5480382000096,None,956.1319365999661,956.7319959999295,956.7152762999758,958.7159916999517,None,1,0.6080217999406159,2.6086665999609977,decreament,0.6,1,standard,None,100,,,,,,,,f,22,202,en,r,0,raw,2022-05-10_10h32.30.793,oddball,2022.1.2,59.94075455366855,
0,,,,,0,0,0,0,9,0,9,0,0,0,0,0,,,,,,,,,,,,,,,961.4908984999638,None,963.6510174999712,None,964.3345475000096,964.9347927999916,964.9182896999409,966.9188908999786,None,1,0.610860199900344,2.6114657998550683,increament,0.6,5,standard,None,100,,958.7329662999837,None,,,,,f,22,202,en,r,0,raw,2022-05-10_10h32.30.793,oddball,2022.1.2,59.94075455366855,
0,,,,,0,0,0,0,9,0,9,0,1,0,1,0,,,,,,,,,,,,,,,,,966.9358994000359,None,967.586170500028,968.1861011999426,968.169335899991,970.1704964999808,None,1,0.6102911999914795,2.6115254999604076,increament,0.6,5,standard,None,100,,,,,,,,f,22,202,en,r,0,raw,2022-05-10_10h32.30.793,oddball,2022.1.2,59.94075455366855,
0,,,,,0,0,0,0,9,0,9,0,2,0,2,0,,,,,,,,,,,,,,,,,970.1871370000299,None,970.820652000024,971.4207441000035,971.4040002999827,973.4046818999341,None,1,0.6124984999187291,2.6131295998347923,increament,0.6,5,standard,None,100,,,,,,,,f,22,202,en,r,0,raw,2022-05-10_10h32.30.793,oddball,2022.1.2,59.94075455366855,
0,,,,,0,0,0,0,9,0,9,0,3,0,3,0,,,,,,,,,,,,,,,,,973.4217290999368,None,973.9887439999729,974.5887148999609,974.57192389993,976.5726506999927,None,1,0.610639400081709,2.6113610999891534,increament,0.6,5,standard,None,100,,,,,,,,f,22,202,en,r,0,raw,2022-05-10_10h32.30.793,oddball,2022.1.2,59.94075455366855,
0,,,,,0,0,0,0,9,0,9,0,4,0,4,0,,,,,,,,,,,,,,,,,976.5894589999225,None,977.1896681999788,977.7897455999628,977.7731212000363,979.7739509999519,None,1,0.6126908998703584,2.6135179998818785,increament,0.6,5,standard,None,100,,,,,,,,f,22,202,en,r,0,raw,2022-05-10_10h32.30.793,oddball,2022.1.2,59.94075455366855,
0,,,,,0,0,0,0,9,0,9,0,5,0,5,0,,,,,,,,,,,,,,,,,979.7907060999423,None,980.6576115000062,981.2579043000005,981.2413624000037,983.2418499999912,None,1,0.6112038999563083,2.6116184999700636,increament,0.6,5,standard,None,100,,,,,,,,f,22,202,en,r,0,raw,2022-05-10_10h32.30.793,oddball,2022.1.2,59.94075455366855,
0,,,,,0,0,0,0,9,0,9,0,6,0,6,0,,,,,,,,,,,,,,,,,983.2586013999535,None,983.9421457999852,984.5423200000077,984.526242999942,986.5263271000003,None,1,0.613524799933657,2.613539499929175,increament,0.6,5,standard,None,100,,,,,,,,f,22,202,en,r,0,raw,2022-05-10_10h32.30.793,oddball,2022.1.2,59.94075455366855,
0,,,,,0,0,0,0,9,0,9,0,7,0,7,0,,,,,,,,,,,,,,,,,986.5431301000062,None,987.3105464000255,987.9102145000361,987.8938548000297,989.8945001999382,None,1,0.6119252000935376,2.612566800089553,increament,0.6,5,standard,None,100,,,,,,,,f,22,202,en,r,0,raw,2022-05-10_10h32.30.793,oddball,2022.1.2,59.94075455366855,
0,,,,,0,0,0,0,9,0,9,0,8,0,8,0,,,,,,,,,,,,,,,,,989.9114888999611,None,990.4610901999986,991.0612611999968,991.0446740000043,993.045379600022,None,1,0.6132085000863299,2.6139090000651777,increament,0.6,5,standard,None,100,,,,,,,,f,22,202,en,r,0,raw,2022-05-10_10h32.30.793,oddball,2022.1.2,59.94075455366855,
0,,,,,0,0,0,0,9,0,9,0,9,0,9,0,,,,,,,,,,,,,,,,,993.0621090999339,None,993.7794053999241,994.3790787999751,994.3625269000186,996.36355489993,None,1,0.6110482999356464,2.6120336999883875,increament,0.6,5,standard,None,100,,,,,,,,f,22,202,en,r,0,raw,2022-05-10_10h32.30.793,oddball,2022.1.2,59.94075455366855,
0,,,,,0,0,0,0,9,0,9,0,10,0,10,0,,,,,,,,,,,,,,,,,996.380206199945,None,997.1471745999297,997.7471533999778,997.7306070999475,999.7320015999721,None,1,0.6121477999258786,2.6136174999410287,increament,0.6,5,standard,None,100,,,,,,,,f,22,202,en,r,0,raw,2022-05-10_10h32.30.793,oddball,2022.1.2,59.94075455366855,
0,,,,,0,0,0,0,9,0,9,0,11,0,11,0,,,,,,,,,,,,,,,,,999.7478823999409,None,1000.4982155000325,1001.0988198999548,1001.0821890999796,1003.0825084999669,j,0,0.6126535000512376,2.6129415000323206,increament,0.6,5,standard,None,100,0.5888120000017807,,,,,,,f,22,202,en,r,0,raw,2022-05-10_10h32.30.793,oddball,2022.1.2,59.94075455366855,
0,,,,,0,0,0,0,9,0,9,0,12,0,12,0,,,,,,,,,,,,,,,,,1003.0992349999724,None,1003.866316700005,1004.8332003999967,1004.8001427999698,1006.8008465999737,j,1,0.9628406998235732,2.963614299893379,increament,0.96,8,oddball,j,160,0.6156674999510869,,,,,,,f,22,202,en,r,0,raw,2022-05-10_10h32.30.793,oddball,2022.1.2,59.94075455366855,
0,,,,,0,0,0,0,9,0,9,0,13,0,13,0,,,,,,,,,,,,,,,,,1006.8176871000323,None,1007.5178994999733,1008.1180539999623,1008.101387499948,1010.1019116999814,None,1,0.6120139999547973,2.612497100024484,increament,0.6,5,standard,None,100,,,,,,,,f,22,202,en,r,0,raw,2022-05-10_10h32.30.793,oddball,2022.1.2,59.94075455366855,
0,,,,,0,0,0,0,9,0,9,0,14,0,14,0,,,,,,,,,,,,,,,,,1010.1186144999228,None,1010.8025641000131,1011.4025111999363,1011.386065699975,1013.386436300003,None,1,0.6128644000273198,2.613234099932015,increament,0.6,5,standard,None,100,,,,,,,,f,22,202,en,r,0,raw,2022-05-10_10h32.30.793,oddball,2022.1.2,59.94075455366855,
0,,,,,0,0,0,0,9,0,9,0,15,0,15,0,,,,,,,,,,,,,,,,,1013.4033848999534,None,1014.1369202999631,1014.7372604999691,1014.7204758999869,1016.7216088999994,None,1,0.610916999867186,2.6121103998739272,increament,0.6,5,standard,None,100,,,,,,,,f,22,202,en,r,0,raw,2022-05-10_10h32.30.793,oddball,2022.1.2,59.94075455366855,
0,,,,,0,0,0,0,9,0,9,0,16,0,16,0,,,,,,,,,,,,,,,,,1016.737923800014,None,1017.3051410999615,1017.9050602000207,1017.8885416999692,1019.889010899933,None,1,0.6120450998423621,2.612462499877438,increament,0.6,5,standard,None,100,,,,,,,,f,22,202,en,r,0,raw,2022-05-10_10h32.30.793,oddball,2022.1.2,59.94075455366855,
0,,,,,0,0,0,0,9,0,9,0,17,0,17,0,,,,,,,,,,,,,,,,,1019.905562400003,None,1020.6227872000309,1021.2229872000171,1021.2063722999301,1023.2072370999958,None,1,0.6128218000521883,2.613733400008641,increament,0.6,5,standard,None,100,,,,,,,,f,22,202,en,r,0,raw,2022-05-10_10h32.30.793,oddball,2022.1.2,59.94075455366855,
0,,,,,0,0,0,0,9,0,9,0,18,0,18,0,,,,,,,,,,,,,,,,,1023.2248817000072,None,1023.9573185000336,1024.5575731999706,1024.5411536999745,1026.5415937999496,None,1,0.612751999986358,2.6130929000210017,increament,0.6,5,standard,None,100,,,,,,,,f,22,202,en,r,0,raw,2022-05-10_10h32.30.793,oddball,2022.1.2,59.94075455366855,
0,,,,,0,0,0,0,9,0,9,0,19,0,19,0,,,,,,,,,,,,,,,,,1026.5586280999705,None,1027.1254670999479,1027.7254262999631,1027.7089133999543,1029.709676999948,None,1,0.6114974999800324,2.612277999869548,increament,0.6,5,standard,None,100,,,,,,,,f,22,202,en,r,0,raw,2022-05-10_10h32.30.793,oddball,2022.1.2,59.94075455366855,
0,,,,,0,0,0,0,9,0,9,0,20,0,20,0,,,,,,,,,,,,,,,,,1029.7259615999646,None,1030.3432561999653,1030.9430469999788,1030.9264154999983,1032.9276196999708,None,1,0.611300100106746,2.6125380001030862,increament,0.6,5,standard,None,100,,,,,,,,f,22,202,en,r,0,raw,2022-05-10_10h32.30.793,oddball,2022.1.2,59.94075455366855,
0,,,,,0,0,0,0,9,0,9,0,21,0,21,0,,,,,,,,,,,,,,,,,1032.9440967999399,None,1033.6945280999644,1034.2948163999245,1034.2780213999795,1036.2785741999978,None,1,0.6123948999447748,2.61294389993418,increament,0.6,5,standard,None,100,,,,,,,,f,22,202,en,r,0,raw,2022-05-10_10h32.30.793,oddball,2022.1.2,59.94075455366855,
0,,,,,0,0,0,0,9,0,9,0,22,0,22,0,,,,,,,,,,,,,,,,,1036.2954216999933,None,1036.8289206000045,1037.428917299956,1037.4126068999758,1039.4131502999226,None,1,0.6127182998461649,2.613287999876775,increament,0.6,5,standard,None,100,,,,,,,,f,22,202,en,r,0,raw,2022-05-10_10h32.30.793,oddball,2022.1.2,59.94075455366855,
0,,,,,0,0,0,0,9,0,9,0,23,0,23,0,,,,,,,,,,,,,,,,,1039.4297327999957,None,1039.9635945999762,1040.563963499968,1040.5467435999308,1042.5475277999649,None,1,0.6091792999068275,2.609940299997106,increament,0.6,5,standard,None,100,,,,,,,,f,22,202,en,r,0,raw,2022-05-10_10h32.30.793,oddball,2022.1.2,59.94075455366855,
0,,,,,0,0,0,0,9,0,9,0,24,0,24,0,,,,,,,,,,,,,,,,,1042.564253199962,None,1043.298510099994,1044.0316966000246,1043.9981398999225,1045.999132100027,j,1,0.7283881999319419,2.7294369998853654,increament,0.72,6,oddball,j,120,0.6572980000637472,,,,,,,f,22,202,en,r,0,raw,2022-05-10_10h32.30.793,oddball,2022.1.2,59.94075455366855,
0,,,,,0,0,0,0,9,0,9,0,25,0,25,0,,,,,,,,,,,,,,,,,1046.015604599961,None,1046.5489879000233,1047.1497639999725,1047.132714599953,1049.1333157999907,None,1,0.6129786000819877,2.6135653000092134,increament,0.6,5,standard,None,100,,,,,,,,f,22,202,en,r,0,raw,2022-05-10_10h32.30.793,oddball,2022.1.2,59.94075455366855,
0,,,,,0,0,0,0,9,0,9,0,26,0,26,0,,,,,,,,,,,,,,,,,1049.1500002000248,None,1049.8167004999705,1050.4175224000355,1050.4006665999768,1052.401384799974,None,1,0.6151730999117717,2.615860699908808,increament,0.6,5,standard,None,100,,,,,,,,f,22,202,en,r,0,raw,2022-05-10_10h32.30.793,oddball,2022.1.2,59.94075455366855,
0,,,,,0,0,0,0,9,0,9,0,27,0,27,0,,,,,,,,,,,,,,,,,1052.4180514999898,None,1053.1016071999911,1053.7019671000307,1053.6856334999902,1055.6858579999534,None,1,0.6134556999895722,2.6135960000101477,increament,0.6,5,standard,None,100,,,,,,,,f,22,202,en,r,0,raw,2022-05-10_10h32.30.793,oddball,2022.1.2,59.94075455366855,
0,,,,,0,0,0,0,9,0,9,0,28,0,28,0,,,,,,,,,,,,,,,,,1055.7025531999534,None,1056.5198814999312,1057.119700399926,1057.1030626000138,1059.1039090999402,None,1,0.611599100055173,2.6125155000481755,increament,0.6,5,standard,None,100,,,,,,,,f,22,202,en,r,0,raw,2022-05-10_10h32.30.793,oddball,2022.1.2,59.94075455366855,
0,,,,,0,0,0,0,9,0,9,0,29,0,29,0,,,,,,,,,,,,,,,,,1059.1205958999926,None,1059.704399799928,1060.554434199934,1060.5212501999922,1062.5217743000248,j,1,0.8460014999145642,2.8465130999684334,increament,0.84,7,oddball,j,140,0.7011585000436753,,,,,,,f,22,202,en,r,0,raw,2022-05-10_10h32.30.793,oddball,2022.1.2,59.94075455366855,
20,,,,,0,1,1,3,0,0,0,0,0,0,0,0,,,,,,,,,,,,,,,1258.9330731999362,None,1260.7134603000013,None,1261.4138129999628,1262.0140260999324,1261.9976826999336,1263.9985991999274,None,1,0.6127089000074193,2.6140610999427736,decreament,0.6,41,standard,None,100,,1242.5567300999537,None,1062.557530399994,None,,,f,22,202,en,r,0,raw,2022-05-10_10h32.30.793,oddball,2022.1.2,59.94075455366855,
20,,,,,0,1,1,3,0,0,0,0,1,0,1,0,,,,,,,,,,,,,,,,,1264.0154525999678,None,1264.88199299993,1265.4819319000235,1265.4653278000187,1267.4661943999818,None,1,0.6129352999851108,2.61385079997126,decreament,0.6,41,standard,None,100,,,,,,,,f,22,202,en,r,0,raw,2022-05-10_10h32.30.793,oddball,2022.1.2,59.94075455366855,
20,,,,,0,1,1,3,0,0,0,0,2,0,2,0,,,,,,,,,,,,,,,,,1267.4828635000158,None,1268.0162273999304,1268.6165607000003,1268.600082400022,1270.600339800003,None,1,0.6124623998766765,2.6126626998884603,decreament,0.6,41,standard,None,100,,,,,,,,f,22,202,en,r,0,raw,2022-05-10_10h32.30.793,oddball,2022.1.2,59.94075455366855,
20,,,,,0,1,1,3,0,0,0,0,3,0,3,0,,,,,,,,,,,,,,,,,1270.6170289999573,None,1271.4175648000091,1272.0178138000192,1272.0014979999978,1274.0020229000365,None,1,0.6128588999854401,2.61342790001072,decreament,0.6,41,standard,None,100,,,,,,,,f,22,202,en,r,0,raw,2022-05-10_10h32.30.793,oddball,2022.1.2,59.94075455366855,
20,,,,,0,1,1,3,0,0,0,0,4,0,4,0,,,,,,,,,,,,,,,,,1274.0187995999586,None,1274.7191230999306,1275.3190492999274,1275.302663099952,1277.303436600021,None,1,0.613333199871704,2.6141654999228194,decreament,0.6,41,standard,None,100,,,,,,,,f,22,202,en,r,0,raw,2022-05-10_10h32.30.793,oddball,2022.1.2,59.94075455366855,
20,,,,,0,1,1,3,0,0,0,0,5,0,5,0,,,,,,,,,,,,,,,,,1277.3209358999738,None,1278.0537836999865,1278.6539191999473,1278.6372970000375,1280.6377250000369,None,1,0.612203000113368,2.6125327000627294,decreament,0.6,41,standard,None,100,,,,,,,,f,22,202,en,r,0,raw,2022-05-10_10h32.30.793,oddball,2022.1.2,59.94075455366855,
20,,,,,0,1,1,3,0,0,0,0,6,0,6,0,,,,,,,,,,,,,,,,,1280.6546014000196,None,1281.288550499943,1281.538194200024,1281.504969200003,1283.5057192000095,j,1,0.2443277999991551,2.245042899972759,decreament,0.24,42,oddball,j,40,0.846179399988614,,,,,,,f,22,202,en,r,0,raw,2022-05-10_10h32.30.793,oddball,2022.1.2,59.94075455366855,
20,,,,,0,1,1,3,0,0,0,0,7,0,7,0,,,,,,,,,,,,,,,,,1283.52216329996,None,1284.0562999999383,1284.656179399928,1284.6392763999756,1286.639979599975,None,1,0.609527799882926,2.610223399824463,decreament,0.6,41,standard,None,100,,,,,,,,f,22,202,en,r,0,raw,2022-05-10_10h32.30.793,oddball,2022.1.2,59.94075455366855,
20,,,,,0,1,1,3,0,0,0,0,8,0,8,0,,,,,,,,,,,,,,,,,1286.656906499993,None,1287.3236703999573,1287.9243885999313,1287.9076028999407,1289.9080123000313,None,1,0.6137562998337671,2.614086499903351,decreament,0.6,41,standard,None,100,,,,,,,,f,22,202,en,r,0,raw,2022-05-10_10h32.30.793,oddball,2022.1.2,59.94075455366855,
20,,,,,0,1,1,3,0,0,0,0,9,0,9,0,,,,,,,,,,,,,,,,,1289.9246866999893,None,1290.7581368000247,1291.3586374999722,1291.3420942999655,1293.3426042000065,None,1,0.6137238000519574,2.6142100000288337,decreament,0.6,41,standard,None,100,,,,,,,,f,22,202,en,r,0,raw,2022-05-10_10h32.30.793,oddball,2022.1.2,59.94075455366855,
20,,,,,0,1,1,3,0,0,0,0,10,0,10,0,,,,,,,,,,,,,,,,,1293.3592147999443,None,1294.0094327999977,1294.6098145999713,1294.5936821999494,1296.5934702999657,None,1,0.6126652000239119,2.612347300047986,decreament,0.6,41,standard,None,100,,,,,,,,f,22,202,en,r,0,raw,2022-05-10_10h32.30.793,oddball,2022.1.2,59.94075455366855,
20,,,,,0,1,1,3,0,0,0,0,11,0,11,0,,,,,,,,,,,,,,,,,1296.6102439999813,None,1297.1773352000164,1297.777707900037,1297.761094699963,1299.7615871999878,None,1,0.6135516999056563,2.614037499995902,decreament,0.6,41,standard,None,100,,,,,,,,f,22,202,en,r,0,raw,2022-05-10_10h32.30.793,oddball,2022.1.2,59.94075455366855,
20,,,,,0,1,1,3,0,0,0,0,12,0,12,0,,,,,,,,,,,,,,,,,1299.7785164000234,None,1300.5292346000206,1301.1287782000145,1301.1121912000235,1303.1129919999512,None,1,0.6089554999489337,2.609749799943529,decreament,0.6,41,standard,None,100,,,,,,,,f,22,202,en,r,0,raw,2022-05-10_10h32.30.793,oddball,2022.1.2,59.94075455366855,
20,,,,,0,1,1,3,0,0,0,0,13,0,13,0,,,,,,,,,,,,,,,,,1303.1299358999822,None,1303.7465178000275,1304.3469727999764,1304.3301271999953,1306.330834500026,None,1,0.6132653999375179,2.613979500019923,decreament,0.6,41,standard,None,100,,,,,,,,f,22,202,en,r,0,raw,2022-05-10_10h32.30.793,oddball,2022.1.2,59.94075455366855,
20,,,,,0,1,1,3,0,0,0,0,14,0,14,0,,,,,,,,,,,,,,,,,1306.3474107999355,None,1307.0314605999738,1307.6313682999462,1307.6145337999333,1309.6154289999977,None,1,0.6118264000397176,2.612738800002262,decreament,0.6,41,standard,None,100,,,,,,,,f,22,202,en,r,0,raw,2022-05-10_10h32.30.793,oddball,2022.1.2,59.94075455366855,
