grating_freq,blocks_prac.thisRepN,blocks_prac.thisTrialN,blocks_prac.thisN,blocks_prac.thisIndex,blocks.thisRepN,blocks.thisTrialN,blocks.thisN,blocks.thisIndex,repeat_freq.thisRepN,repeat_freq.thisTrialN,repeat_freq.thisN,repeat_freq.thisIndex,trials.thisRepN,trials.thisTrialN,trials.thisN,trials.thisIndex,break_loop.thisRepN,break_loop.thisTrialN,break_loop.thisN,break_loop.thisIndex,rest_loop.thisRepN,rest_loop.thisTrialN,rest_loop.thisN,rest_loop.thisIndex,instruct_prac_text.started,instruct_prac_text.stopped,b_instruct_text_2_.started,b_instruct_text_2_.stopped,prac_done_text.started,prac_done_text.stopped,instruct_text.started,instruct_text.stopped,fixation.started,fixation.stopped,grating.started,grating.stopped,blank.started,blank.stopped,resp.keys,resp.corr,resp.started,resp.stopped,direction,duration,trigger,stim_type,corr_ans,scaling,rest_text.started,rest_text.stopped,resp.rt,text_2.started,text_2.stopped,thx_txt.started,thx_txt.stopped,gender,age,participant,language,main_hand,nBlock_prac,file_suffix,date,expName,psychopyVersion,frameRate,
5,,,,,0,0,0,1,0,0,0,0,0,0,0,0,,,,,,,,,21.77294969977811,None,31.40618609986268,None,41.768263099947944,None,57.9096777997911,None,62.35051589994691,None,63.05100719979964,63.65108869993128,63.61807719990611,65.6186577999033,None,1,0.6146329899784178,2.615211989963427,increament,0.6,15,standard,None,100,,,,,,,,m,23,206,fr,r,0,raw,2022-05-18_14h58.06.087,oddball,2022.1.2,59.97303611313711,
5,,,,,0,0,0,1,0,0,0,0,1,0,1,0,,,,,,,,,,,,,,,,,65.63535399991088,None,66.18540189997293,66.78587339981459,66.76900939992629,68.76989549980499,None,1,0.6080156897660345,2.6089372897986323,increament,0.6,15,standard,None,100,,,,,,,,m,23,206,fr,r,0,raw,2022-05-18_14h58.06.087,oddball,2022.1.2,59.97303611313711,
5,,,,,0,0,0,1,0,0,0,0,2,0,2,0,,,,,,,,,,,,,,,,,68.78643849981017,None,69.41986039979383,70.02031919988804,70.00352399982512,72.00439639994875,None,1,0.6107562901452184,2.6115419901907444,increament,0.6,15,standard,None,100,,,,,,,,m,23,206,fr,r,0,raw,2022-05-18_14h58.06.087,oddball,2022.1.2,59.97303611313711,
5,,,,,0,0,0,1,0,0,0,0,3,0,3,0,,,,,,,,,,,,,,,,,72.0209818999283,None,72.6044363998808,73.2042327998206,73.18763899989426,75.1887203999795,None,1,0.6102052896749228,2.6113270898349583,increament,0.6,15,standard,None,100,,,,,,,,m,23,206,fr,r,0,raw,2022-05-18_14h58.06.087,oddball,2022.1.2,59.97303611313711,
5,,,,,0,0,0,1,0,0,0,0,4,0,4,0,,,,,,,,,,,,,,,,,75.20528569980524,None,75.78926829993725,76.38949869992211,76.37286679982208,78.37351099983789,None,1,0.6120912900660187,2.612694190116599,increament,0.6,15,standard,None,100,,,,,,,,m,23,206,fr,r,0,raw,2022-05-18_14h58.06.087,oddball,2022.1.2,59.97303611313711,
5,,,,,0,0,0,1,0,0,0,0,5,0,5,0,,,,,,,,,,,,,,,,,78.38982599996962,None,78.97351059992798,79.57378539978527,79.55719019984826,81.55796819995157,None,1,0.6128389900550246,2.613632190041244,increament,0.6,15,standard,None,100,,,,,,,,m,23,206,fr,r,0,raw,2022-05-18_14h58.06.087,oddball,2022.1.2,59.97303611313711,
5,,,,,0,0,0,1,0,0,0,0,6,0,6,0,,,,,,,,,,,,,,,,,81.57531369989738,None,82.09127509989776,82.69148179981858,82.6749242998194,84.67599529982544,None,1,0.6118564899079502,2.6129843899980187,increament,0.6,15,standard,None,100,,,,,,,,m,23,206,fr,r,0,raw,2022-05-18_14h58.06.087,oddball,2022.1.2,59.97303611313711,
5,,,,,0,0,0,1,0,0,0,0,7,0,7,0,,,,,,,,,,,,,,,,,84.69337929994799,None,85.32623279979452,85.92633799999021,85.90980509994552,87.91029289993457,None,1,0.6115969899110496,2.612068889895454,increament,0.6,15,standard,None,100,,,,,,,,m,23,206,fr,r,0,raw,2022-05-18_14h58.06.087,oddball,2022.1.2,59.97303611313711,
5,,,,,0,0,0,1,0,0,0,0,8,0,8,0,,,,,,,,,,,,,,,,,87.92691629985347,None,88.54394789994694,89.14405529992655,89.1275768999476,91.12838969985023,None,1,0.6119129902217537,2.6128334901295602,increament,0.6,15,standard,None,100,,,,,,,,m,23,206,fr,r,0,raw,2022-05-18_14h58.06.087,oddball,2022.1.2,59.97303611313711,
5,,,,,0,0,0,1,0,0,0,0,9,0,9,0,,,,,,,,,,,,,,,,,91.14494439982809,None,91.86155489995144,92.46183689986356,92.44526579999365,94.4460725998506,None,1,0.6140271900221705,2.614858590066433,increament,0.6,15,standard,None,100,,,,,,,,m,23,206,fr,r,0,raw,2022-05-18_14h58.06.087,oddball,2022.1.2,59.97303611313711,
5,,,,,0,0,0,1,0,0,0,0,10,0,10,0,,,,,,,,,,,,,,,,,94.46294699981809,None,95.01287089986727,95.61302789999172,95.59651049994864,97.59712939988822,None,1,0.6134952900465578,2.614135090028867,increament,0.6,15,standard,None,100,,,,,,,,m,23,206,fr,r,0,raw,2022-05-18_14h58.06.087,oddball,2022.1.2,59.97303611313711,
5,,,,,0,0,0,1,0,0,0,0,11,0,11,0,,,,,,,,,,,,,,,,,97.61390069988556,None,98.24752019997686,98.8477627998218,98.83134559984319,100.83189059980214,None,1,0.6136403898708522,2.6141381899360567,increament,0.6,15,standard,None,100,,,,,,,,m,23,206,fr,r,0,raw,2022-05-18_14h58.06.087,oddball,2022.1.2,59.97303611313711,
5,,,,,0,0,0,1,0,0,0,0,12,0,12,0,,,,,,,,,,,,,,,,,100.84861559979618,None,101.53210839978419,102.1326411999762,102.11591139994562,104.11645739991218,None,1,0.6138836899772286,2.6144397899042815,increament,0.6,15,standard,None,100,,,,,,,,m,23,206,fr,r,0,raw,2022-05-18_14h58.06.087,oddball,2022.1.2,59.97303611313711,
5,,,,,0,0,0,1,0,0,0,0,13,0,13,0,,,,,,,,,,,,,,,,,104.13335559982806,None,104.73330540000461,105.333498199936,105.31716669979505,107.31771999993362,None,1,0.6124168899841607,2.612956089898944,increament,0.6,15,standard,None,100,,,,,,,,m,23,206,fr,r,0,raw,2022-05-18_14h58.06.087,oddball,2022.1.2,59.97303611313711,
5,,,,,0,0,0,1,0,0,0,0,14,0,14,0,,,,,,,,,,,,,,,,,107.33460049983114,None,107.9180584999267,108.65154769993387,108.61823629983701,110.61879989993758,None,0,0.7264233899768442,2.7269238899461925,increament,0.72,16,oddball,j,120,,,,,,,,m,23,206,fr,r,0,raw,2022-05-18_14h58.06.087,oddball,2022.1.2,59.97303611313711,
5,,,,,0,0,0,1,0,0,0,0,15,0,15,0,,,,,,,,,,,,,,,,,110.63570689992048,None,111.38574099983089,111.9862108998932,111.96960189985111,113.97004269994795,None,1,0.6132187901530415,2.613630290143192,increament,0.6,15,standard,None,100,,,,,,,,m,23,206,fr,r,0,raw,2022-05-18_14h58.06.087,oddball,2022.1.2,59.97303611313711,
5,,,,,0,0,0,1,0,0,0,0,16,0,16,0,,,,,,,,,,,,,,,,,113.98661699984223,None,114.55402569985017,115.1540194998961,115.13763579982333,117.13810359989293,None,1,0.608861489687115,2.609333489788696,increament,0.6,15,standard,None,100,,,,,,,,m,23,206,fr,r,0,raw,2022-05-18_14h58.06.087,oddball,2022.1.2,59.97303611313711,
5,,,,,0,0,0,1,0,0,0,0,17,0,17,0,,,,,,,,,,,,,,,,,117.15504159987904,None,117.85510349995457,118.45509770000353,118.43878509989008,120.43982549989596,None,1,0.6108519900590181,2.611897289985791,increament,0.6,15,standard,None,100,,,,,,,,m,23,206,fr,r,0,raw,2022-05-18_14h58.06.087,oddball,2022.1.2,59.97303611313711,
5,,,,,0,0,0,1,0,0,0,0,18,0,18,0,,,,,,,,,,,,,,,,,120.45734339999035,None,121.13936959998682,122.10638969996944,122.07369059999473,124.07416209997609,None,0,0.9632415899541229,2.9636839900631458,increament,0.96,18,oddball,j,160,,,,,,,,m,23,206,fr,r,0,raw,2022-05-18_14h58.06.087,oddball,2022.1.2,59.97303611313711,
5,,,,,0,0,0,1,0,0,0,0,19,0,19,0,,,,,,,,,,,,,,,,,124.09071699995548,None,124.74131339997984,125.3411913998425,125.3247485999018,127.32480149995536,None,1,0.6108799900393933,2.6108778899069875,increament,0.6,15,standard,None,100,,,,,,,,m,23,206,fr,r,0,raw,2022-05-18_14h58.06.087,oddball,2022.1.2,59.97303611313711,
5,,,,,0,0,0,1,0,0,0,0,20,0,20,0,,,,,,,,,,,,,,,,,127.34145499998704,None,128.0090276999399,128.60901159979403,128.5922138998285,130.5929429999087,None,1,0.6071928900200874,2.6079297899268568,increament,0.6,15,standard,None,100,,,,,,,,m,23,206,fr,r,0,raw,2022-05-18_14h58.06.087,oddball,2022.1.2,59.97303611313711,
5,,,,,0,0,0,1,0,0,0,0,21,0,21,0,,,,,,,,,,,,,,,,,130.6098206997849,None,131.44348879996687,132.04386119986884,132.0272896999959,134.02789709996432,None,1,0.6123435900080949,2.6129340901970863,increament,0.6,15,standard,None,100,,,,,,,,m,23,206,fr,r,0,raw,2022-05-18_14h58.06.087,oddball,2022.1.2,59.97303611313711,
5,,,,,0,0,0,1,0,0,0,0,22,0,22,0,,,,,,,,,,,,,,,,,134.04452219977975,None,134.74473939999007,135.59537229989655,135.56201129988767,137.56242899992503,None,0,0.8464107899926603,2.8467232899274677,increament,0.84,17,oddball,j,140,,,,,,,,m,23,206,fr,r,0,raw,2022-05-18_14h58.06.087,oddball,2022.1.2,59.97303611313711,
5,,,,,0,0,0,1,0,0,0,0,23,0,23,0,,,,,,,,,,,,,,,,,137.57922309986316,None,138.36283979984,138.962652299786,138.9465366997756,140.9469366997946,None,1,0.611207690089941,2.6116473900619894,increament,0.6,15,standard,None,100,,,,,,,,m,23,206,fr,r,0,raw,2022-05-18_14h58.06.087,oddball,2022.1.2,59.97303611313711,
5,,,,,0,0,0,1,0,0,0,0,24,0,24,0,,,,,,,,,,,,,,,,,140.9637968998868,None,141.4970664998982,142.09746789978817,142.08070439985022,144.08175639994442,None,1,0.6146231901366264,2.615618290146813,increament,0.6,15,standard,None,100,,,,,,,,m,23,206,fr,r,0,raw,2022-05-18_14h58.06.087,oddball,2022.1.2,59.97303611313711,
5,,,,,0,0,0,1,0,0,0,0,25,0,25,0,,,,,,,,,,,,,,,,,144.09810989978723,None,144.76529929996468,145.3654358999338,145.34888579999097,147.34940700000152,None,1,0.609167689923197,2.609689089935273,increament,0.6,15,standard,None,100,,,,,,,,m,23,206,fr,r,0,raw,2022-05-18_14h58.06.087,oddball,2022.1.2,59.97303611313711,
5,,,,,0,0,0,1,0,0,0,0,26,0,26,0,,,,,,,,,,,,,,,,,147.36623089993373,None,147.93330229981802,148.53344079991803,148.51680429978296,150.51782359997742,None,1,0.6097832899540663,2.6108164901379496,increament,0.6,15,standard,None,100,,,,,,,,m,23,206,fr,r,0,raw,2022-05-18_14h58.06.087,oddball,2022.1.2,59.97303611313711,
5,,,,,0,0,0,1,0,0,0,0,27,0,27,0,,,,,,,,,,,,,,,,,150.53615669999272,None,151.2012354999315,151.8011120997835,151.78447959991172,153.7852073998656,None,1,0.6108608897775412,2.6115995896980166,increament,0.6,15,standard,None,100,,,,,,,,m,23,206,fr,r,0,raw,2022-05-18_14h58.06.087,oddball,2022.1.2,59.97303611313711,
5,,,,,0,0,0,1,0,0,0,0,28,0,28,0,,,,,,,,,,,,,,,,,153.8020773997996,None,154.45191889978014,155.05220359982923,155.0357636997942,157.0363514998462,None,1,0.613295289920643,2.613905789796263,increament,0.6,15,standard,None,100,,,,,,,,m,23,206,fr,r,0,raw,2022-05-18_14h58.06.087,oddball,2022.1.2,59.97303611313711,
5,,,,,0,0,0,1,0,0,0,0,29,0,29,0,,,,,,,,,,,,,,,,,157.05346149997786,None,157.786586899776,158.38692279998213,158.37054279982112,160.37106649996713,None,1,0.6137437899596989,2.6142919901758432,increament,0.6,15,standard,None,100,,,,,,,,m,23,206,fr,r,0,raw,2022-05-18_14h58.06.087,oddball,2022.1.2,59.97303611313711,
5,,,,,0,0,0,1,1,0,1,0,0,0,0,0,,,,,,,,,,,,,,,164.46240099985152,None,167.77387369982898,None,168.49100709985942,169.09086139989085,169.0744323998224,171.07556439982727,None,1,0.611123489914462,2.6122636899817735,decreament,0.6,11,standard,None,100,160.3880966999568,None,,,,,,m,23,206,fr,r,0,raw,2022-05-18_14h58.06.087,oddball,2022.1.2,59.97303611313711,
5,,,,,0,0,0,1,1,0,1,0,1,0,1,0,,,,,,,,,,,,,,,,,171.0923436000012,None,171.7587389999535,172.35916389990598,172.3424099998083,174.34289619978517,None,1,0.6128882900811732,2.6133403899148107,decreament,0.6,11,standard,None,100,,,,,,,,m,23,206,fr,r,0,raw,2022-05-18_14h58.06.087,oddball,2022.1.2,59.97303611313711,
5,,,,,0,0,0,1,1,0,1,0,2,0,2,0,,,,,,,,,,,,,,,,,174.35984970000573,None,175.22696199989878,175.82688659988344,175.81015689997002,177.81088039977476,None,1,0.6124011899810284,2.6131095900200307,decreament,0.6,11,standard,None,100,,,,,,,,m,23,206,fr,r,0,raw,2022-05-18_14h58.06.087,oddball,2022.1.2,59.97303611313711,
5,,,,,0,0,0,1,1,0,1,0,3,0,3,0,,,,,,,,,,,,,,,,,177.82765179988928,None,178.47789909993298,179.07823089999147,179.06186979985796,181.06200869986787,None,1,0.609770089853555,2.6098461898509413,decreament,0.6,11,standard,None,100,,,,,,,,m,23,206,fr,r,0,raw,2022-05-18_14h58.06.087,oddball,2022.1.2,59.97303611313711,
5,,,,,0,0,0,1,1,0,1,0,4,0,4,0,,,,,,,,,,,,,,,,,181.07917239982635,None,181.7295152998995,182.32938329991885,182.31286469986662,184.31348019978032,None,1,0.6092848898842931,2.6098757900763303,decreament,0.6,11,standard,None,100,,,,,,,,m,23,206,fr,r,0,raw,2022-05-18_14h58.06.087,oddball,2022.1.2,59.97303611313711,
5,,,,,0,0,0,1,1,0,1,0,5,0,5,0,,,,,,,,,,,,,,,,,184.32997519988567,None,185.11399809992872,185.3637028997764,185.3305447997991,187.33172419993207,j,1,0.24365988979116082,2.245257389731705,decreament,0.24,12,oddball,j,40,,,0.9174532000906765,,,,,m,23,206,fr,r,0,raw,2022-05-18_14h58.06.087,oddball,2022.1.2,59.97303611313711,
5,,,,,0,0,0,1,1,0,1,0,6,0,6,0,,,,,,,,,,,,,,,,,187.35011239978485,None,188.06501649995334,188.66552719986066,188.64869629987516,190.6495245997794,None,1,0.6111805900000036,2.612026290036738,decreament,0.6,11,standard,None,100,,,,,,,,m,23,206,fr,r,0,raw,2022-05-18_14h58.06.087,oddball,2022.1.2,59.97303611313711,
5,,,,,0,0,0,1,1,0,1,0,7,0,7,0,,,,,,,,,,,,,,,,,190.66594360000454,None,191.34970469982363,191.94976649992168,191.93290049978532,193.93351249978878,None,1,0.6125146900303662,2.613095290027559,decreament,0.6,11,standard,None,100,,,,,,,,m,23,206,fr,r,0,raw,2022-05-18_14h58.06.087,oddball,2022.1.2,59.97303611313711,
5,,,,,0,0,0,1,1,0,1,0,8,0,8,0,,,,,,,,,,,,,,,,,193.95025419979356,None,194.60085629997775,195.20091949985363,195.18421739991754,197.18452399992384,None,1,0.6127389899920672,2.612984189996496,decreament,0.6,11,standard,None,100,,,,,,,,m,23,206,fr,r,0,raw,2022-05-18_14h58.06.087,oddball,2022.1.2,59.97303611313711,
5,,,,,0,0,0,1,1,0,1,0,9,0,9,0,,,,,,,,,,,,,,,,,197.20116269984283,None,197.75149679998867,198.35170409991406,198.33498169993982,200.33593219984323,None,1,0.6148248896934092,2.6157978898845613,decreament,0.6,11,standard,None,100,,,,,,,,m,23,206,fr,r,0,raw,2022-05-18_14h58.06.087,oddball,2022.1.2,59.97303611313711,
5,,,,,0,0,0,1,1,0,1,0,10,0,10,0,,,,,,,,,,,,,,,,,200.35274449991994,None,200.9531686999835,201.55327199981548,201.53683829982765,203.53752809995785,None,1,0.6111735899467021,2.6121199899353087,decreament,0.6,11,standard,None,100,,,,,,,,m,23,206,fr,r,0,raw,2022-05-18_14h58.06.087,oddball,2022.1.2,59.97303611313711,
5,,,,,0,0,0,1,1,0,1,0,11,0,11,0,,,,,,,,,,,,,,,,,203.5540268998593,None,204.22117619984783,204.82166489982046,204.80459099984728,206.80564429983497,None,1,0.6105983899906278,2.611687689786777,decreament,0.6,11,standard,None,100,,,,,,,,m,23,206,fr,r,0,raw,2022-05-18_14h58.06.087,oddball,2022.1.2,59.97303611313711,
5,,,,,0,0,0,1,1,0,1,0,12,0,12,0,,,,,,,,,,,,,,,,,206.82217959989794,None,207.35548859997652,207.95566799980588,207.9391963998787,209.93944210000336,None,1,0.6105971899814904,2.6108014897909015,decreament,0.6,11,standard,None,100,,,,,,,,m,23,206,fr,r,0,raw,2022-05-18_14h58.06.087,oddball,2022.1.2,59.97303611313711,
5,,,,,0,0,0,1,1,0,1,0,13,0,13,0,,,,,,,,,,,,,,,,,209.95610539987683,None,210.54011719999835,211.14052209979855,211.12379569979385,213.1248138998635,None,1,0.6128043900243938,2.6139299899805337,decreament,0.6,11,standard,None,100,,,,,,,,m,23,206,fr,r,0,raw,2022-05-18_14h58.06.087,oddball,2022.1.2,59.97303611313711,
5,,,,,0,0,0,1,1,0,1,0,14,0,14,0,,,,,,,,,,,,,,,,,213.1411607998889,None,213.75785559997894,214.35823009978049,214.3418029998429,216.34201529994607,None,1,0.6125546898692846,2.612686889944598,decreament,0.6,11,standard,None,100,,,,,,,,m,23,206,fr,r,0,raw,2022-05-18_14h58.06.087,oddball,2022.1.2,59.97303611313711,
5,,,,,0,0,0,1,1,0,1,0,15,0,15,0,,,,,,,,,,,,,,,,,216.35905279987492,None,216.94253239990212,217.54326149984263,217.52645309991203,219.52668829984032,None,1,0.6107005900703371,2.610847690142691,decreament,0.6,11,standard,None,100,,,,,,,,m,23,206,fr,r,0,raw,2022-05-18_14h58.06.087,oddball,2022.1.2,59.97303611313711,
5,,,,,0,0,0,1,1,0,1,0,16,0,16,0,,,,,,,,,,,,,,,,,219.5433813999407,None,220.14389079995453,220.74416079977527,220.72741559986025,222.72803569980897,None,1,0.6093681899365038,2.609953489853069,decreament,0.6,11,standard,None,100,,,,,,,,m,23,206,fr,r,0,raw,2022-05-18_14h58.06.087,oddball,2022.1.2,59.97303611313711,
5,,,,,0,0,0,1,1,0,1,0,17,0,17,0,,,,,,,,,,,,,,,,,222.74483059998602,None,223.4616652999539,224.0625607999973,224.0452635998372,226.04607959999703,None,1,0.6113292900845408,2.6121463901363313,decreament,0.6,11,standard,None,100,,,,,,,,m,23,206,fr,r,0,raw,2022-05-18_14h58.06.087,oddball,2022.1.2,59.97303611313711,
5,,,,,0,0,0,1,1,0,1,0,18,0,18,0,,,,,,,,,,,,,,,,,226.06297709979117,None,226.86325309984386,227.22955599986017,227.1963372998871,229.1970808999613,j,1,0.36043229000642896,2.3611845900304615,decreament,0.36,13,oddball,j,60,,,0.7803193000145257,,,,,m,23,206,fr,r,0,raw,2022-05-18_14h58.06.087,oddball,2022.1.2,59.97303611313711,
5,,,,,0,0,0,1,1,0,1,0,19,0,19,0,,,,,,,,,,,,,,,,,229.2140289999079,None,229.76387559995055,230.36433389992453,230.34778739977628,232.34831239981577,None,1,0.6117065900471061,2.612185890087858,decreament,0.6,11,standard,None,100,,,,,,,,m,23,206,fr,r,0,raw,2022-05-18_14h58.06.087,oddball,2022.1.2,59.97303611313711,
5,,,,,0,0,0,1,1,0,1,0,20,0,20,0,,,,,,,,,,,,,,,,,232.36490529985167,None,232.9318428998813,233.5319387000054,233.51569699984975,235.51622409978881,None,1,0.6106695898342878,2.611181390006095,decreament,0.6,11,standard,None,100,,,,,,,,m,23,206,fr,r,0,raw,2022-05-18_14h58.06.087,oddball,2022.1.2,59.97303611313711,
5,,,,,0,0,0,1,1,0,1,0,21,0,21,0,,,,,,,,,,,,,,,,,235.53301279991865,None,236.26633239979856,236.86684279982,236.85025379993021,238.85074059991166,None,1,0.612905089976266,2.613406389951706,decreament,0.6,11,standard,None,100,,,,,,,,m,23,206,fr,r,0,raw,2022-05-18_14h58.06.087,oddball,2022.1.2,59.97303611313711,
5,,,,,0,0,0,1,1,0,1,0,22,0,22,0,,,,,,,,,,,,,,,,,238.86735089984722,None,239.5009445999749,239.98427549982443,239.9677693999838,241.96882389998063,j,1,0.49252968979999423,2.493634789949283,decreament,0.48,14,oddball,j,80,,,0.785015000263229,,,,,m,23,206,fr,r,0,raw,2022-05-18_14h58.06.087,oddball,2022.1.2,59.97303611313711,
5,,,,,0,0,0,1,1,0,1,0,23,0,23,0,,,,,,,,,,,,,,,,,241.98688839981332,None,242.6855711999815,243.2860314999707,243.26910189981572,245.26976169995032,None,1,0.6124484897591174,2.6130258897319436,decreament,0.6,11,standard,None,100,,,,,,,,m,23,206,fr,r,0,raw,2022-05-18_14h58.06.087,oddball,2022.1.2,59.97303611313711,
5,,,,,0,0,0,1,1,0,1,0,24,0,24,0,,,,,,,,,,,,,,,,,245.28665429982357,None,245.9202765999362,246.52095119981095,246.50407759984955,248.50441989977844,None,1,0.6108788901474327,2.611170890275389,decreament,0.6,11,standard,None,100,,,,,,,,m,23,206,fr,r,0,raw,2022-05-18_14h58.06.087,oddball,2022.1.2,59.97303611313711,
5,,,,,0,0,0,1,1,0,1,0,25,0,25,0,,,,,,,,,,,,,,,,,248.52116719982587,None,249.27121749985963,249.87187319993973,249.85508519993164,251.85572889982723,None,1,0.6134603898972273,2.6141398900654167,decreament,0.6,11,standard,None,100,,,,,,,,m,23,206,fr,r,0,raw,2022-05-18_14h58.06.087,oddball,2022.1.2,59.97303611313711,
5,,,,,0,0,0,1,1,0,1,0,26,0,26,0,,,,,,,,,,,,,,,,,251.87236959999427,None,252.48930019978434,253.08932579983957,253.07274459977634,255.0738388998434,None,1,0.6131508899852633,2.614282990107313,decreament,0.6,11,standard,None,100,,,,,,,,m,23,206,fr,r,0,raw,2022-05-18_14h58.06.087,oddball,2022.1.2,59.97303611313711,
5,,,,,0,0,0,1,1,0,1,0,27,0,27,0,,,,,,,,,,,,,,,,,255.0901900997851,None,255.690515199909,256.29106669989415,256.27428959985264,258.27459129993804,None,1,0.6119646900333464,2.6122126900590956,decreament,0.6,11,standard,None,100,,,,,,,,m,23,206,fr,r,0,raw,2022-05-18_14h58.06.087,oddball,2022.1.2,59.97303611313711,
5,,,,,0,0,0,1,1,0,1,0,28,0,28,0,,,,,,,,,,,,,,,,,258.2914876998402,None,259.0250438998919,259.62528699985705,259.6085394998081,261.60949489986524,None,1,0.6143542898353189,2.615371889900416,decreament,0.6,11,standard,None,100,,,,,,,,m,23,206,fr,r,0,raw,2022-05-18_14h58.06.087,oddball,2022.1.2,59.97303611313711,
5,,,,,0,0,0,1,1,0,1,0,29,0,29,0,,,,,,,,,,,,,,,,,261.6259129999671,None,262.2595839998685,262.8601303999312,262.8433186998591,264.84442399977706,None,1,0.6133471899665892,2.6144877900369465,decreament,0.6,11,standard,None,100,,,,,,,,m,23,206,fr,r,0,raw,2022-05-18_14h58.06.087,oddball,2022.1.2,59.97303611313711,
5,,,,,0,0,0,1,2,0,2,0,0,0,0,0,,,,,,,,,,,,,,,271.89874089998193,None,277.8655361998826,None,278.49895199993625,279.09938459983096,279.08296849997714,281.0837491999846,None,1,0.6131032898556441,2.6138975899666548,increament,0.6,15,standard,None,100,264.86092019989155,None,,,,,,m,23,206,fr,r,0,raw,2022-05-18_14h58.06.087,oddball,2022.1.2,59.97303611313711,
5,,,,,0,0,0,1,2,0,2,0,1,0,1,0,,,,,,,,,,,,,,,,,281.1000649998896,None,281.6338110999204,282.23408409999683,282.217415999854,284.218154899776,None,1,0.6107788898516446,2.611513789743185,increament,0.6,15,standard,None,100,,,,,,,,m,23,206,fr,r,0,raw,2022-05-18_14h58.06.087,oddball,2022.1.2,59.97303611313711,
5,,,,,0,0,0,1,2,0,2,0,2,0,2,0,,,,,,,,,,,,,,,,,284.23480129987,None,284.8181510998402,285.41821359982714,285.40190369985066,287.4027513999026,None,1,0.611782289808616,2.6127224897500128,increament,0.6,15,standard,None,100,,,,,,,,m,23,206,fr,r,0,raw,2022-05-18_14h58.06.087,oddball,2022.1.2,59.97303611313711,
5,,,,,0,0,0,1,2,0,2,0,3,0,3,0,,,,,,,,,,,,,,,,,287.4192190999165,None,288.119952699868,288.7194748998154,288.70293179992586,290.7037057999987,None,1,0.6116580900270492,2.612466990016401,increament,0.6,15,standard,None,100,,,,,,,,m,23,206,fr,r,0,raw,2022-05-18_14h58.06.087,oddball,2022.1.2,59.97303611313711,
5,,,,,0,0,0,1,2,0,2,0,4,0,4,0,,,,,,,,,,,,,,,,,290.7205483999569,None,291.4374608998187,292.03749779984355,292.02089749998413,294.02149539999664,None,1,0.6133648902177811,2.613964690361172,increament,0.6,15,standard,None,100,,,,,,,,m,23,206,fr,r,0,raw,2022-05-18_14h58.06.087,oddball,2022.1.2,59.97303611313711,
5,,,,,0,0,0,1,2,0,2,0,5,0,5,0,,,,,,,,,,,,,,,,,294.03851539990865,None,294.60575089999475,295.2057881997898,295.1888403999619,297.18992169993,None,1,0.609654390020296,2.6107281900476664,increament,0.6,15,standard,None,100,,,,,,,,m,23,206,fr,r,0,raw,2022-05-18_14h58.06.087,oddball,2022.1.2,59.97303611313711,
5,,,,,0,0,0,1,2,0,2,0,6,0,6,0,,,,,,,,,,,,,,,,,297.206848599948,None,297.78986229980364,298.3903156998567,298.37354629999027,300.3740692997817,None,1,0.6100317903328687,2.6104933901224285,increament,0.6,15,standard,None,100,,,,,,,,m,23,206,fr,r,0,raw,2022-05-18_14h58.06.087,oddball,2022.1.2,59.97303611313711,
5,,,,,0,0,0,1,2,0,2,0,7,0,7,0,,,,,,,,,,,,,,,,,300.39065789990127,None,301.0742714998778,301.6747113999445,301.6580177999567,303.6588705999311,None,1,0.6126891900785267,2.6135967900045216,increament,0.6,15,standard,None,100,,,,,,,,m,23,206,fr,r,0,raw,2022-05-18_14h58.06.087,oddball,2022.1.2,59.97303611313711,
5,,,,,0,0,0,1,2,0,2,0,8,0,8,0,,,,,,,,,,,,,,,,,303.6758306999691,None,304.3589700998273,304.9592753998004,304.94237710000016,306.94322279980406,None,1,0.6091411900706589,2.6099772902671248,increament,0.6,15,standard,None,100,,,,,,,,m,23,206,fr,r,0,raw,2022-05-18_14h58.06.087,oddball,2022.1.2,59.97303611313711,
5,,,,,0,0,0,1,2,0,2,0,9,0,9,0,,,,,,,,,,,,,,,,,306.9599032998085,None,307.6768321997952,308.2770823999308,308.26041230000556,310.26087959995493,None,1,0.6116151900496334,2.6120998901315033,increament,0.6,15,standard,None,100,,,,,,,,m,23,206,fr,r,0,raw,2022-05-18_14h58.06.087,oddball,2022.1.2,59.97303611313711,
5,,,,,0,0,0,1,2,0,2,0,10,0,10,0,,,,,,,,,,,,,,,,,310.27749619982205,None,311.0113619999029,311.61143999989145,311.59492909978144,313.5961656998843,None,1,0.6125423901248723,2.613898789975792,increament,0.6,15,standard,None,100,,,,,,,,m,23,206,fr,r,0,raw,2022-05-18_14h58.06.087,oddball,2022.1.2,59.97303611313711,
5,,,,,0,0,0,1,2,0,2,0,11,0,11,0,,,,,,,,,,,,,,,,,313.6138968998566,None,314.2626254998613,314.8628415998537,314.84653009986505,316.8470060999971,None,1,0.6131136899348348,2.613680290058255,increament,0.6,15,standard,None,100,,,,,,,,m,23,206,fr,r,0,raw,2022-05-18_14h58.06.087,oddball,2022.1.2,59.97303611313711,
5,,,,,0,0,0,1,2,0,2,0,12,0,12,0,,,,,,,,,,,,,,,,,316.86383659997955,None,317.58082719985396,318.1807055999525,318.16431429982185,320.16493119997904,None,1,0.6117702901829034,2.612387790111825,increament,0.6,15,standard,None,100,,,,,,,,m,23,206,fr,r,0,raw,2022-05-18_14h58.06.087,oddball,2022.1.2,59.97303611313711,
5,,,,,0,0,0,1,2,0,2,0,13,0,13,0,,,,,,,,,,,,,,,,,320.1815807998646,None,320.7988533999305,321.3989000997972,321.38206249987707,323.3827924998477,None,1,0.6106943897902966,2.6114339898340404,increament,0.6,15,standard,None,100,,,,,,,,m,23,206,fr,r,0,raw,2022-05-18_14h58.06.087,oddball,2022.1.2,59.97303611313711,
5,,,,,0,0,0,1,2,0,2,0,14,0,14,0,,,,,,,,,,,,,,,,,323.3995220998768,None,324.11648199986666,324.717081699986,324.70018419995904,326.7012327997945,None,1,0.6127052898518741,2.613751889904961,increament,0.6,15,standard,None,100,,,,,,,,m,23,206,fr,r,0,raw,2022-05-18_14h58.06.087,oddball,2022.1.2,59.97303611313711,
5,,,,,0,0,0,1,2,0,2,0,15,0,15,0,,,,,,,,,,,,,,,,,326.7180717999581,None,327.28459649998695,327.88436619983986,327.8681178998668,329.86833919980563,None,1,0.6125108902342618,2.612674390198663,increament,0.6,15,standard,None,100,,,,,,,,m,23,206,fr,r,0,raw,2022-05-18_14h58.06.087,oddball,2022.1.2,59.97303611313711,
5,,,,,0,0,0,1,2,0,2,0,16,0,16,0,,,,,,,,,,,,,,,,,329.88517119991593,None,330.45214809989557,331.4194392999634,331.3858940999489,333.3867944998201,j,1,0.9632224899251014,2.964176489971578,increament,0.96,18,oddball,j,160,,,0.7099460000172257,,,,,m,23,206,fr,r,0,raw,2022-05-18_14h58.06.087,oddball,2022.1.2,59.97303611313711,
5,,,,,0,0,0,1,2,0,2,0,17,0,17,0,,,,,,,,,,,,,,,,,333.4030724999029,None,333.9704443998635,334.570165499812,334.55349969980307,336.55424899980426,None,1,0.6109770899638534,2.6117202898021787,increament,0.6,15,standard,None,100,,,,,,,,m,23,206,fr,r,0,raw,2022-05-18_14h58.06.087,oddball,2022.1.2,59.97303611313711,
5,,,,,0,0,0,1,2,0,2,0,18,0,18,0,,,,,,,,,,,,,,,,,336.57087349984795,None,337.37129149981774,337.97162099997513,337.9552188999951,339.955871099839,None,1,0.6137671901378781,2.614377690013498,increament,0.6,15,standard,None,100,,,,,,,,m,23,206,fr,r,0,raw,2022-05-18_14h58.06.087,oddball,2022.1.2,59.97303611313711,
5,,,,,0,0,0,1,2,0,2,0,19,0,19,0,,,,,,,,,,,,,,,,,339.97218889999203,None,340.63935219985433,341.2396472999826,341.2227140998002,343.2234455998987,None,1,0.611739190062508,2.61248279013671,increament,0.6,15,standard,None,100,,,,,,,,m,23,206,fr,r,0,raw,2022-05-18_14h58.06.087,oddball,2022.1.2,59.97303611313711,
5,,,,,0,0,0,1,2,0,2,0,20,0,20,0,,,,,,,,,,,,,,,,,343.240430599777,None,343.85736269992776,344.45786309987307,344.441204899922,346.4414975999389,None,1,0.6127045899629593,2.6129276901483536,increament,0.6,15,standard,None,100,,,,,,,,m,23,206,fr,r,0,raw,2022-05-18_14h58.06.087,oddball,2022.1.2,59.97303611313711,
5,,,,,0,0,0,1,2,0,2,0,21,0,21,0,,,,,,,,,,,,,,,,,346.45817539980635,None,347.1251417999156,347.7253342999611,347.7087304999586,349.70975939999335,None,1,0.612698890035972,2.613803690066561,increament,0.6,15,standard,None,100,,,,,,,,m,23,206,fr,r,0,raw,2022-05-18_14h58.06.087,oddball,2022.1.2,59.97303611313711,
5,,,,,0,0,0,1,2,0,2,0,22,0,22,0,,,,,,,,,,,,,,,,,349.7265034997836,None,350.42660509981215,351.02644379995763,351.00993879977614,353.0109919998795,None,1,0.6117604901082814,2.6128762899897993,increament,0.6,15,standard,None,100,,,,,,,,m,23,206,fr,r,0,raw,2022-05-18_14h58.06.087,oddball,2022.1.2,59.97303611313711,
5,,,,,0,0,0,1,2,0,2,0,23,0,23,0,,,,,,,,,,,,,,,,,353.0273588998243,None,353.69444249989465,354.2943728999235,354.2778510998469,356.27850449993275,None,1,0.6109319899696857,2.6116329899523407,increament,0.6,15,standard,None,100,,,,,,,,m,23,206,fr,r,0,raw,2022-05-18_14h58.06.087,oddball,2022.1.2,59.97303611313711,
5,,,,,0,0,0,1,2,0,2,0,24,0,24,0,,,,,,,,,,,,,,,,,356.2953171997797,None,356.84542329981923,357.5791743998416,357.5460757999681,359.54629939980805,None,0,0.727127289865166,2.7272877898067236,increament,0.72,16,oddball,j,120,,,,,,,,m,23,206,fr,r,0,raw,2022-05-18_14h58.06.087,oddball,2022.1.2,59.97303611313711,
5,,,,,0,0,0,1,2,0,2,0,25,0,25,0,,,,,,,,,,,,,,,,,359.563236199785,None,360.2967403999064,360.8971590998117,360.88041879981756,362.8809821999166,None,1,0.6118668899871409,2.6124065900221467,increament,0.6,15,standard,None,100,,,,,,,,m,23,206,fr,r,0,raw,2022-05-18_14h58.06.087,oddball,2022.1.2,59.97303611313711,
5,,,,,0,0,0,1,2,0,2,0,26,0,26,0,,,,,,,,,,,,,,,,,362.89794809999876,None,363.6648271000013,364.2648929997813,364.2483735999558,366.24926109984517,None,1,0.6136666901875287,2.6146126901730895,increament,0.6,15,standard,None,100,,,,,,,,m,23,206,fr,r,0,raw,2022-05-18_14h58.06.087,oddball,2022.1.2,59.97303611313711,
5,,,,,0,0,0,1,2,0,2,0,27,0,27,0,,,,,,,,,,,,,,,,,366.2658284998033,None,366.8659972997848,367.46609499980696,367.4497764999978,369.4508219999261,None,1,0.6129651898518205,2.6140292899217457,increament,0.6,15,standard,None,100,,,,,,,,m,23,206,fr,r,0,raw,2022-05-18_14h58.06.087,oddball,2022.1.2,59.97303611313711,
5,,,,,0,0,0,1,2,0,2,0,28,0,28,0,,,,,,,,,,,,,,,,,369.4669165997766,None,370.1673665998969,371.01728509995155,370.9840382998809,372.9849089998752,None,0,0.8429988899733871,2.8438590897712857,increament,0.84,17,oddball,j,140,,,,,,,,m,23,206,fr,r,0,raw,2022-05-18_14h58.06.087,oddball,2022.1.2,59.97303611313711,
5,,,,,0,0,0,1,2,0,2,0,29,0,29,0,,,,,,,,,,,,,,,,,373.0013981999364,None,373.68502229987644,374.2854214999825,374.26888170000166,376.2694944997784,None,1,0.6131307899486274,2.613747189985588,increament,0.6,15,standard,None,100,,,,,,,,m,23,206,fr,r,0,raw,2022-05-18_14h58.06.087,oddball,2022.1.2,59.97303611313711,
5,,,,,0,0,0,1,3,0,3,0,0,0,0,0,,,,,,,,,,,,,,,382.3095929999836,None,384.1396560999565,None,384.7395885998849,385.33975039981306,385.32278519985266,387.32387599977665,None,1,0.6088741899002343,2.6100075899157673,decreament,0.6,11,standard,None,100,376.2863243999891,None,,,,,,m,23,206,fr,r,0,raw,2022-05-18_14h58.06.087,oddball,2022.1.2,59.97303611313711,
5,,,,,0,0,0,1,3,0,3,0,1,0,1,0,,,,,,,,,,,,,,,,,387.34024910000153,None,388.07403459982015,388.6746786998119,388.6576728997752,390.65832189982757,None,1,0.6121462897863239,2.6127469898201525,decreament,0.6,11,standard,None,100,,,,,,,,m,23,206,fr,r,0,raw,2022-05-18_14h58.06.087,oddball,2022.1.2,59.97303611313711,
5,,,,,0,0,0,1,3,0,3,0,2,0,2,0,,,,,,,,,,,,,,,,,390.6748976998497,None,391.2581678999122,391.85885169985704,391.8421543999575,393.8426704998128,None,1,0.6141495897900313,2.614620589883998,decreament,0.6,11,standard,None,100,,,,,,,,m,23,206,fr,r,0,raw,2022-05-18_14h58.06.087,oddball,2022.1.2,59.97303611313711,
5,,,,,0,0,0,1,3,0,3,0,3,0,3,0,,,,,,,,,,,,,,,,,393.85948449978605,None,394.65979079995304,395.2601340999827,395.24352989997715,397.24428669991903,None,1,0.6132971900515258,2.61398189002648,decreament,0.6,11,standard,None,100,,,,,,,,m,23,206,fr,r,0,raw,2022-05-18_14h58.06.087,oddball,2022.1.2,59.97303611313711,
5,,,,,0,0,0,1,3,0,3,0,4,0,4,0,,,,,,,,,,,,,,,,,397.2607978999149,None,397.9107682998292,398.5112588999327,398.4948427998461,400.49579349998385,None,1,0.6139034903608263,2.61486799037084,decreament,0.6,11,standard,None,100,,,,,,,,m,23,206,fr,r,0,raw,2022-05-18_14h58.06.087,oddball,2022.1.2,59.97303611313711,
5,,,,,0,0,0,1,3,0,3,0,5,0,5,0,,,,,,,,,,,,,,,,,400.5122030999046,None,401.179147799965,401.7791865998879,401.76250379998237,403.7637935997918,None,1,0.6104920899961144,2.6118437899276614,decreament,0.6,11,standard,None,100,,,,,,,,m,23,206,fr,r,0,raw,2022-05-18_14h58.06.087,oddball,2022.1.2,59.97303611313711,
5,,,,,0,0,0,1,3,0,3,0,6,0,6,0,,,,,,,,,,,,,,,,,403.78038959996775,None,404.4136430998333,405.0136503998656,404.99725159979425,406.99766659992747,None,1,0.6105016898363829,2.610810689860955,decreament,0.6,11,standard,None,100,,,,,,,,m,23,206,fr,r,0,raw,2022-05-18_14h58.06.087,oddball,2022.1.2,59.97303611313711,
5,,,,,0,0,0,1,3,0,3,0,7,0,7,0,,,,,,,,,,,,,,,,,407.0142750998493,None,407.56513629993424,408.04806209984235,408.0316546999384,410.03201359999366,j,1,0.4954888899810612,2.495808689855039,decreament,0.48,14,oddball,j,80,,,0.8974634001497179,,,,,m,23,206,fr,r,0,raw,2022-05-18_14h58.06.087,oddball,2022.1.2,59.97303611313711,
5,,,,,0,0,0,1,3,0,3,0,8,0,8,0,,,,,,,,,,,,,,,,,410.0487494999543,None,410.7660443999339,411.3662751999218,411.3496623998508,413.35062519996427,None,1,0.6097265901044011,2.6107229902409017,decreament,0.6,11,standard,None,100,,,,,,,,m,23,206,fr,r,0,raw,2022-05-18_14h58.06.087,oddball,2022.1.2,59.97303611313711,
5,,,,,0,0,0,1,3,0,3,0,9,0,9,0,,,,,,,,,,,,,,,,,413.36724159982987,None,413.93405199982226,414.53382309991866,414.5175258999225,416.5179330999963,None,1,0.6107075901236385,2.6110551902092993,decreament,0.6,11,standard,None,100,,,,,,,,m,23,206,fr,r,0,raw,2022-05-18_14h58.06.087,oddball,2022.1.2,59.97303611313711,
5,,,,,0,0,0,1,3,0,3,0,10,0,10,0,,,,,,,,,,,,,,,,,416.5347156999633,None,417.2518001999706,417.85176489991136,417.8354867999442,419.8362209999468,None,1,0.6115608899854124,2.612349190050736,decreament,0.6,11,standard,None,100,,,,,,,,m,23,206,fr,r,0,raw,2022-05-18_14h58.06.087,oddball,2022.1.2,59.97303611313711,
5,,,,,0,0,0,1,3,0,3,0,11,0,11,0,,,,,,,,,,,,,,,,,419.85336849978194,None,420.63656649994664,421.23654789989814,421.21987839997746,423.2208047998138,None,1,0.6087550902739167,2.6096522903535515,decreament,0.6,11,standard,None,100,,,,,,,,m,23,206,fr,r,0,raw,2022-05-18_14h58.06.087,oddball,2022.1.2,59.97303611313711,
5,,,,,0,0,0,1,3,0,3,0,12,0,12,0,,,,,,,,,,,,,,,,,423.2371900998987,None,424.02119599981233,424.6210962999612,424.604896399891,426.6054503999185,None,1,0.6131415902636945,2.6137327903416008,decreament,0.6,11,standard,None,100,,,,,,,,m,23,206,fr,r,0,raw,2022-05-18_14h58.06.087,oddball,2022.1.2,59.97303611313711,
5,,,,,0,0,0,1,3,0,3,0,13,0,13,0,,,,,,,,,,,,,,,,,426.62206279998645,None,427.2389691998251,427.8386838999577,427.8220699999947,429.82304549985565,None,1,0.6117491901386529,2.6127324900589883,decreament,0.6,11,standard,None,100,,,,,,,,m,23,206,fr,r,0,raw,2022-05-18_14h58.06.087,oddball,2022.1.2,59.97303611313711,
5,,,,,0,0,0,1,3,0,3,0,14,0,14,0,,,,,,,,,,,,,,,,,429.83964719995856,None,430.6570154998917,431.2566695997957,431.24014779995196,433.24123599985614,None,1,0.6079057902097702,2.6090960900764912,decreament,0.6,11,standard,None,100,,,,,,,,m,23,206,fr,r,0,raw,2022-05-18_14h58.06.087,oddball,2022.1.2,59.97303611313711,
5,,,,,0,0,0,1,3,0,3,0,15,0,15,0,,,,,,,,,,,,,,,,,433.2585889999755,None,433.9917282999959,434.59142519999295,434.575126899872,436.5754869999364,None,1,0.6109299901872873,2.6112288902513683,decreament,0.6,11,standard,None,100,,,,,,,,m,23,206,fr,r,0,raw,2022-05-18_14h58.06.087,oddball,2022.1.2,59.97303611313711,
5,,,,,0,0,0,1,3,0,3,0,16,0,16,0,,,,,,,,,,,,,,,,,436.5924402999226,None,437.22611920000054,437.82615199987777,437.8095811998937,439.809664899949,None,1,0.6096870901528746,2.6097042900510132,decreament,0.6,11,standard,None,100,,,,,,,,m,23,206,fr,r,0,raw,2022-05-18_14h58.06.087,oddball,2022.1.2,59.97303611313711,
5,,,,,0,0,0,1,3,0,3,0,17,0,17,0,,,,,,,,,,,,,,,,,439.8263560999185,None,440.3938105998095,440.7604870998766,440.7271420999896,442.7279546998907,j,1,0.3612413899973035,2.3620737900491804,decreament,0.36,13,oddball,j,60,,,0.8239770999643952,,,,,m,23,206,fr,r,0,raw,2022-05-18_14h58.06.087,oddball,2022.1.2,59.97303611313711,
5,,,,,0,0,0,1,3,0,3,0,18,0,18,0,,,,,,,,,,,,,,,,,442.7447179998271,None,443.2615067998413,443.86193849984556,443.84511229977943,445.8460457997862,None,1,0.6133989901281893,2.6143922901246697,decreament,0.6,11,standard,None,100,,,,,,,,m,23,206,fr,r,0,raw,2022-05-18_14h58.06.087,oddball,2022.1.2,59.97303611313711,
5,,,,,0,0,0,1,3,0,3,0,19,0,19,0,,,,,,,,,,,,,,,,,445.8622967998963,None,446.47946989978664,447.0793734998442,447.0633149999194,449.06433829991147,None,1,0.6110501899383962,2.612149490043521,decreament,0.6,11,standard,None,100,,,,,,,,m,23,206,fr,r,0,raw,2022-05-18_14h58.06.087,oddball,2022.1.2,59.97303611313711,
5,,,,,0,0,0,1,3,0,3,0,20,0,20,0,,,,,,,,,,,,,,,,,449.08176069986075,None,449.6638813999016,450.2640138999559,450.24746069987305,452.2486446998082,None,1,0.612520890077576,2.613787790061906,decreament,0.6,11,standard,None,100,,,,,,,,m,23,206,fr,r,0,raw,2022-05-18_14h58.06.087,oddball,2022.1.2,59.97303611313711,
5,,,,,0,0,0,1,3,0,3,0,21,0,21,0,,,,,,,,,,,,,,,,,452.2673886998091,None,452.8655387999024,453.46552299987525,453.44879249995574,455.4494284999091,None,1,0.6122761899605393,2.612920890096575,decreament,0.6,11,standard,None,100,,,,,,,,m,23,206,fr,r,0,raw,2022-05-18_14h58.06.087,oddball,2022.1.2,59.97303611313711,
5,,,,,0,0,0,1,3,0,3,0,22,0,22,0,,,,,,,,,,,,,,,,,455.46624899981543,None,456.133017399814,456.733468899969,456.71686059981585,458.71772599988617,None,1,0.613097989698872,2.613941789837554,decreament,0.6,11,standard,None,100,,,,,,,,m,23,206,fr,r,0,raw,2022-05-18_14h58.06.087,oddball,2022.1.2,59.97303611313711,
5,,,,,0,0,0,1,3,0,3,0,23,0,23,0,,,,,,,,,,,,,,,,,458.7355262998026,None,459.50104669993743,460.101366299903,460.08484729984775,462.08520669979043,None,1,0.6121451898943633,2.6124558900482953,decreament,0.6,11,standard,None,100,,,,,,,,m,23,206,fr,r,0,raw,2022-05-18_14h58.06.087,oddball,2022.1.2,59.97303611313711,
5,,,,,0,0,0,1,3,0,3,0,24,0,24,0,,,,,,,,,,,,,,,,,462.1019212999381,None,462.70217609987594,463.3021785998717,463.2856097999029,465.28684349986725,None,1,0.6116626900620759,2.6130375899374485,decreament,0.6,11,standard,None,100,,,,,,,,m,23,206,fr,r,0,raw,2022-05-18_14h58.06.087,oddball,2022.1.2,59.97303611313711,
5,,,,,0,0,0,1,3,0,3,0,25,0,25,0,,,,,,,,,,,,,,,,,465.3033329998143,None,466.00371799990535,466.6034425999969,466.5871699999552,468.58816259982996,None,1,0.6114412900060415,2.612484690034762,decreament,0.6,11,standard,None,100,,,,,,,,m,23,206,fr,r,0,raw,2022-05-18_14h58.06.087,oddball,2022.1.2,59.97303611313711,
5,,,,,0,0,0,1,3,0,3,0,26,0,26,0,,,,,,,,,,,,,,,,,468.6048343000002,None,469.30502489977516,469.90482969977893,469.88826469983906,471.8889416998718,None,1,0.6088226898573339,2.6095158900134265,decreament,0.6,11,standard,None,100,,,,,,,,m,23,206,fr,r,0,raw,2022-05-18_14h58.06.087,oddball,2022.1.2,59.97303611313711,
5,,,,,0,0,0,1,3,0,3,0,27,0,27,0,,,,,,,,,,,,,,,,,471.9056227998808,None,472.5227295998484,472.77281579980627,472.7395711999852,474.74012169986963,j,1,0.24373228987678885,2.244246989954263,decreament,0.24,12,oddball,j,40,,,0.7709566000849009,,,,,m,23,206,fr,r,0,raw,2022-05-18_14h58.06.087,oddball,2022.1.2,59.97303611313711,
5,,,,,0,0,0,1,3,0,3,0,28,0,28,0,,,,,,,,,,,,,,,,,474.7572007998824,None,475.4071147998329,476.00701679987833,475.99051599996164,477.99111419986,None,1,0.6123444898985326,2.6129448898136616,decreament,0.6,11,standard,None,100,,,,,,,,m,23,206,fr,r,0,raw,2022-05-18_14h58.06.087,oddball,2022.1.2,59.97303611313711,
5,,,,,0,0,0,1,3,0,3,0,29,0,29,0,,,,,,,,,,,,,,,,,478.00797069980763,None,478.5249884999357,479.1252625999041,479.1084042999428,481.1092398997862,None,1,0.6128021902404726,2.6136659900657833,decreament,0.6,11,standard,None,100,,,,,,,,m,23,206,fr,r,0,raw,2022-05-18_14h58.06.087,oddball,2022.1.2,59.97303611313711,
5,,,,,0,0,0,1,4,0,4,0,0,0,0,0,,,,,,,,,,,,,,,488.4409280999098,None,490.8461187998764,None,491.3964227999095,491.9968149999622,491.98006829991937,493.98091599997133,None,1,0.6131719900295138,2.6140146900434047,increament,0.6,15,standard,None,100,481.126192699885,None,,,,,,m,23,206,fr,r,0,raw,2022-05-18_14h58.06.087,oddball,2022.1.2,59.97303611313711,
5,,,,,0,0,0,1,4,0,4,0,1,0,1,0,,,,,,,,,,,,,,,,,493.99723969982006,None,494.5644023998175,495.16485989978537,495.1481271998491,497.1490831999108,None,1,0.6128812897950411,2.613870389992371,increament,0.6,15,standard,None,100,,,,,,,,m,23,206,fr,r,0,raw,2022-05-18_14h58.06.087,oddball,2022.1.2,59.97303611313711,
5,,,,,0,0,0,1,4,0,4,0,2,0,2,0,,,,,,,,,,,,,,,,,497.1679947997909,None,497.76553599978797,498.36556750000454,498.34886149992235,500.3496076997835,None,1,0.6085027898661792,2.6092334899585694,increament,0.6,15,standard,None,100,,,,,,,,m,23,206,fr,r,0,raw,2022-05-18_14h58.06.087,oddball,2022.1.2,59.97303611313711,
5,,,,,0,0,0,1,4,0,4,0,3,0,3,0,,,,,,,,,,,,,,,,,500.36639969982207,None,500.9830458997749,501.5835423998069,501.56705829990096,503.5678767999634,None,1,0.6137406898196787,2.6146124897059053,increament,0.6,15,standard,None,100,,,,,,,,m,23,206,fr,r,0,raw,2022-05-18_14h58.06.087,oddball,2022.1.2,59.97303611313711,
5,,,,,0,0,0,1,4,0,4,0,4,0,4,0,,,,,,,,,,,,,,,,,503.58596339984797,None,504.3685325998813,504.96833819989115,504.9514121999964,506.9526517998893,None,1,0.6097691899631172,2.6111239900346845,increament,0.6,15,standard,None,100,,,,,,,,m,23,206,fr,r,0,raw,2022-05-18_14h58.06.087,oddball,2022.1.2,59.97303611313711,
5,,,,,0,0,0,1,4,0,4,0,5,0,5,0,,,,,,,,,,,,,,,,,506.9701578998938,None,507.51908919983543,508.1195584998932,508.10296049993485,510.10375219979323,None,1,0.6132304901257157,2.6140552901197225,increament,0.6,15,standard,None,100,,,,,,,,m,23,206,fr,r,0,raw,2022-05-18_14h58.06.087,oddball,2022.1.2,59.97303611313711,
5,,,,,0,0,0,1,4,0,4,0,6,0,6,0,,,,,,,,,,,,,,,,,510.12107749981806,None,510.6536937998608,511.2541330999229,511.2371423000004,513.2378774997778,None,1,0.6126419901847839,2.6133519902359694,increament,0.6,15,standard,None,100,,,,,,,,m,23,206,fr,r,0,raw,2022-05-18_14h58.06.087,oddball,2022.1.2,59.97303611313711,
5,,,,,0,0,0,1,4,0,4,0,7,0,7,0,,,,,,,,,,,,,,,,,513.2546826999169,None,513.8050485998392,514.4054056999739,514.3888452998362,516.3893981999718,None,1,0.6122943900991231,2.6127928900532424,increament,0.6,15,standard,None,100,,,,,,,,m,23,206,fr,r,0,raw,2022-05-18_14h58.06.087,oddball,2022.1.2,59.97303611313711,
5,,,,,0,0,0,1,4,0,4,0,8,0,8,0,,,,,,,,,,,,,,,,,516.4061947998125,None,517.0232580997981,517.6228405998554,517.606460099807,519.6069663998205,None,1,0.6115687901619822,2.612060690065846,increament,0.6,15,standard,None,100,,,,,,,,m,23,206,fr,r,0,raw,2022-05-18_14h58.06.087,oddball,2022.1.2,59.97303611313711,
5,,,,,0,0,0,1,4,0,4,0,9,0,9,0,,,,,,,,,,,,,,,,,519.6236349998508,None,520.2075455999002,520.9407894997858,520.9081934997812,522.9085037999321,None,0,0.7297984901815653,2.7300453900825232,increament,0.72,16,oddball,j,120,,,,,,,,m,23,206,fr,r,0,raw,2022-05-18_14h58.06.087,oddball,2022.1.2,59.97303611313711,
5,,,,,0,0,0,1,4,0,4,0,10,0,10,0,,,,,,,,,,,,,,,,,522.9250144998077,None,523.5752165999729,524.1753884998616,524.1591069998685,526.1594728999771,None,1,0.6127085897605866,2.613029489759356,increament,0.6,15,standard,None,100,,,,,,,,m,23,206,fr,r,0,raw,2022-05-18_14h58.06.087,oddball,2022.1.2,59.97303611313711,
5,,,,,0,0,0,1,4,0,4,0,11,0,11,0,,,,,,,,,,,,,,,,,526.1764746999834,None,526.9101314998697,527.5100483999122,527.4934275997803,529.4942008999642,None,1,0.6120017899665982,2.6127542899921536,increament,0.6,15,standard,None,100,,,,,,,,m,23,206,fr,r,0,raw,2022-05-18_14h58.06.087,oddball,2022.1.2,59.97303611313711,
5,,,,,0,0,0,1,4,0,4,0,12,0,12,0,,,,,,,,,,,,,,,,,529.5109382998198,None,530.1443873997778,530.7445409998763,530.727965899976,532.7288916998077,None,1,0.6114865900017321,2.612468190025538,increament,0.6,15,standard,None,100,,,,,,,,m,23,206,fr,r,0,raw,2022-05-18_14h58.06.087,oddball,2022.1.2,59.97303611313711,
5,,,,,0,0,0,1,4,0,4,0,13,0,13,0,,,,,,,,,,,,,,,,,532.7455498999916,None,533.4458466998767,534.0457418998703,534.0294935998973,536.0304609998129,None,1,0.6123898902442306,2.613373290281743,increament,0.6,15,standard,None,100,,,,,,,,m,23,206,fr,r,0,raw,2022-05-18_14h58.06.087,oddball,2022.1.2,59.97303611313711,
5,,,,,0,0,0,1,4,0,4,0,14,0,14,0,,,,,,,,,,,,,,,,,536.0467768998351,None,536.5966685998719,537.1971133998595,537.180683599785,539.1812069998123,None,1,0.6136277897749096,2.614168089814484,increament,0.6,15,standard,None,100,,,,,,,,m,23,206,fr,r,0,raw,2022-05-18_14h58.06.087,oddball,2022.1.2,59.97303611313711,
5,,,,,0,0,0,1,4,0,4,0,15,0,15,0,,,,,,,,,,,,,,,,,539.1981030998286,None,539.7982007998507,540.3980334999505,540.3818454998545,542.3824175999034,None,1,0.6124725898262113,2.6130505898036063,increament,0.6,15,standard,None,100,,,,,,,,m,23,206,fr,r,0,raw,2022-05-18_14h58.06.087,oddball,2022.1.2,59.97303611313711,
5,,,,,0,0,0,1,4,0,4,0,16,0,16,0,,,,,,,,,,,,,,,,,542.3990106999408,None,543.0162164999638,543.6160549998749,543.5994925999548,545.6001809998415,None,1,0.6110349900554866,2.611698490101844,increament,0.6,15,standard,None,100,,,,,,,,m,23,206,fr,r,0,raw,2022-05-18_14h58.06.087,oddball,2022.1.2,59.97303611313711,
5,,,,,0,0,0,1,4,0,4,0,17,0,17,0,,,,,,,,,,,,,,,,,545.6171109999996,None,546.1838910998777,546.7839638998266,546.7675742998254,548.7685102999676,None,1,0.6112984900828451,2.612351090181619,increament,0.6,15,standard,None,100,,,,,,,,m,23,206,fr,r,0,raw,2022-05-18_14h58.06.087,oddball,2022.1.2,59.97303611313711,
5,,,,,0,0,0,1,4,0,4,0,18,0,18,0,,,,,,,,,,,,,,,,,548.784952199785,None,549.418586099986,550.0189772997983,550.0021794999484,552.0028544999659,None,1,0.6094022900797427,2.6100773899815977,increament,0.6,15,standard,None,100,,,,,,,,m,23,206,fr,r,0,raw,2022-05-18_14h58.06.087,oddball,2022.1.2,59.97303611313711,
5,,,,,0,0,0,1,4,0,4,0,19,0,19,0,,,,,,,,,,,,,,,,,552.019469199935,None,552.7530709998682,553.3531787998509,553.3368479998317,555.3374945998657,None,1,0.6099520898424089,2.610612289980054,increament,0.6,15,standard,None,100,,,,,,,,m,23,206,fr,r,0,raw,2022-05-18_14h58.06.087,oddball,2022.1.2,59.97303611313711,
5,,,,,0,0,0,1,4,0,4,0,20,0,20,0,,,,,,,,,,,,,,,,,555.3539025997743,None,556.0544658999424,556.6545736999251,556.6382721997797,558.6387093998492,None,1,0.6121662897057831,2.612498289672658,increament,0.6,15,standard,None,100,,,,,,,,m,23,206,fr,r,0,raw,2022-05-18_14h58.06.087,oddball,2022.1.2,59.97303611313711,
5,,,,,0,0,0,1,4,0,4,0,21,0,21,0,,,,,,,,,,,,,,,,,558.6549708999228,None,559.3057767997961,560.1557964999229,560.1228287999984,562.1233572999481,j,1,0.8453484901692718,2.8458358903881162,increament,0.84,17,oddball,j,140,,,0.9641847999300808,,,,,m,23,206,fr,r,0,raw,2022-05-18_14h58.06.087,oddball,2022.1.2,59.97303611313711,
5,,,,,0,0,0,1,4,0,4,0,22,0,22,0,,,,,,,,,,,,,,,,,562.1398540998343,None,562.7236813998315,563.3237614999525,563.3073489998933,565.3079411999788,None,1,0.6128215899225324,2.6133847900200635,increament,0.6,15,standard,None,100,,,,,,,,m,23,206,fr,r,0,raw,2022-05-18_14h58.06.087,oddball,2022.1.2,59.97303611313711,
5,,,,,0,0,0,1,4,0,4,0,23,0,23,0,,,,,,,,,,,,,,,,,565.3242363999598,None,565.9579478998203,566.5583458999172,566.5417126999237,568.5420931999106,None,1,0.6095615900121629,2.6099136900156736,increament,0.6,15,standard,None,100,,,,,,,,m,23,206,fr,r,0,raw,2022-05-18_14h58.06.087,oddball,2022.1.2,59.97303611313711,
5,,,,,0,0,0,1,4,0,4,0,24,0,24,0,,,,,,,,,,,,,,,,,568.558922199998,None,569.176217299886,569.7763481999282,569.7597250998951,571.7600538998377,None,1,0.6128415898419917,2.6131068898830563,increament,0.6,15,standard,None,100,,,,,,,,m,23,206,fr,r,0,raw,2022-05-18_14h58.06.087,oddball,2022.1.2,59.97303611313711,
5,,,,,0,0,0,1,4,0,4,0,25,0,25,0,,,,,,,,,,,,,,,,,571.7769526999909,None,572.4441727998201,573.0440467000008,573.0278459999245,575.0280682998709,None,1,0.6126523902639747,2.61280929017812,increament,0.6,15,standard,None,100,,,,,,,,m,23,206,fr,r,0,raw,2022-05-18_14h58.06.087,oddball,2022.1.2,59.97303611313711,
5,,,,,0,0,0,1,4,0,4,0,26,0,26,0,,,,,,,,,,,,,,,,,575.0446239998564,None,575.6950202998705,576.6620045998134,576.6286289999261,578.6294497000054,j,1,0.962108489824459,2.9628685899078846,increament,0.96,18,oddball,j,160,,,0.6492882000748068,,,,,m,23,206,fr,r,0,raw,2022-05-18_14h58.06.087,oddball,2022.1.2,59.97303611313711,
5,,,,,0,0,0,1,4,0,4,0,27,0,27,0,,,,,,,,,,,,,,,,,578.6460900998209,None,579.1962904999964,579.7966078999452,579.7797966999933,581.7803688999265,None,1,0.6093070898205042,2.6098573899362236,increament,0.6,15,standard,None,100,,,,,,,,m,23,206,fr,r,0,raw,2022-05-18_14h58.06.087,oddball,2022.1.2,59.97303611313711,
5,,,,,0,0,0,1,4,0,4,0,28,0,28,0,,,,,,,,,,,,,,,,,581.7971510000061,None,582.5476272997912,583.1481050997972,583.13151249988,585.1320129998494,None,1,0.6140459899324924,2.614487289916724,increament,0.6,15,standard,None,100,,,,,,,,m,23,206,fr,r,0,raw,2022-05-18_14h58.06.087,oddball,2022.1.2,59.97303611313711,
5,,,,,0,0,0,1,4,0,4,0,29,0,29,0,,,,,,,,,,,,,,,,,585.148451599991,None,585.8488276998978,586.4489453998394,586.4323893999681,588.4332372997887,None,1,0.6115756900981069,2.6124677900224924,increament,0.6,15,standard,None,100,,,,,,,,m,23,206,fr,r,0,raw,2022-05-18_14h58.06.087,oddball,2022.1.2,59.97303611313711,
5,,,,,0,0,0,1,5,0,5,0,0,0,0,0,,,,,,,,,,,,,,,598.2939769998193,None,604.5891666999087,None,605.2566810999997,605.8562897997908,605.8396955998614,607.8404763999861,None,1,0.6099867899902165,2.6107237900141627,decreament,0.6,11,standard,None,100,588.4502541997936,None,,,,,,m,23,206,fr,r,0,raw,2022-05-18_14h58.06.087,oddball,2022.1.2,59.97303611313711,
5,,,,,0,0,0,1,5,0,5,0,1,0,1,0,,,,,,,,,,,,,,,,,607.8571408998687,None,608.5241835999768,609.1246006998699,609.1080896998756,611.1082713999785,None,1,0.613076790003106,2.613200489897281,decreament,0.6,11,standard,None,100,,,,,,,,m,23,206,fr,r,0,raw,2022-05-18_14h58.06.087,oddball,2022.1.2,59.97303611313711,
5,,,,,0,0,0,1,5,0,5,0,2,0,2,0,,,,,,,,,,,,,,,,,611.1252554999664,None,611.8252969998866,612.4254300999455,612.4085449997801,614.4098515999503,None,1,0.6115908902138472,2.6129580901470035,decreament,0.6,11,standard,None,100,,,,,,,,m,23,206,fr,r,0,raw,2022-05-18_14h58.06.087,oddball,2022.1.2,59.97303611313711,
5,,,,,0,0,0,1,5,0,5,0,3,0,3,0,,,,,,,,,,,,,,,,,614.4268225999549,None,614.9600045999978,615.5604487999808,615.5434667998925,617.544796400005,None,1,0.6109001901932061,2.612351590069011,decreament,0.6,11,standard,None,100,,,,,,,,m,23,206,fr,r,0,raw,2022-05-18_14h58.06.087,oddball,2022.1.2,59.97303611313711,
5,,,,,0,0,0,1,5,0,5,0,4,0,4,0,,,,,,,,,,,,,,,,,617.5634396998212,None,618.1611856999807,618.7611464997754,618.7454144998919,620.7454375999514,None,1,0.6142548897769302,2.614192589884624,decreament,0.6,11,standard,None,100,,,,,,,,m,23,206,fr,r,0,raw,2022-05-18_14h58.06.087,oddball,2022.1.2,59.97303611313711,
5,,,,,0,0,0,1,5,0,5,0,5,0,5,0,,,,,,,,,,,,,,,,,620.7617671999615,None,621.2784291999415,621.8789621999022,621.8624098999426,623.8627822999842,None,1,0.6153837898746133,2.6157341899815947,decreament,0.6,11,standard,None,100,,,,,,,,m,23,206,fr,r,0,raw,2022-05-18_14h58.06.087,oddball,2022.1.2,59.97303611313711,
5,,,,,0,0,0,1,5,0,5,0,6,0,6,0,,,,,,,,,,,,,,,,,623.8794094999321,None,624.4466502999421,625.0473370999098,625.0306057999842,627.0311077998485,None,1,0.6152566901873797,2.6156998900696635,decreament,0.6,11,standard,None,100,,,,,,,,m,23,206,fr,r,0,raw,2022-05-18_14h58.06.087,oddball,2022.1.2,59.97303611313711,
5,,,,,0,0,0,1,5,0,5,0,7,0,7,0,,,,,,,,,,,,,,,,,627.047759299865,None,627.7150539997965,627.9647665999364,627.931438599946,629.931993199978,j,1,0.24423288996331394,2.2447548899799585,decreament,0.24,12,oddball,j,40,,,0.7702051000669599,,,,,m,23,206,fr,r,0,raw,2022-05-18_14h58.06.087,oddball,2022.1.2,59.97303611313711,
5,,,,,0,0,0,1,5,0,5,0,8,0,8,0,,,,,,,,,,,,,,,,,629.9488282999955,None,630.7160006999038,631.3160369999241,631.2997094998136,633.300146699883,None,1,0.6109266902785748,2.6112970903050154,decreament,0.6,11,standard,None,100,,,,,,,,m,23,206,fr,r,0,raw,2022-05-18_14h58.06.087,oddball,2022.1.2,59.97303611313711,
5,,,,,0,0,0,1,5,0,5,0,9,0,9,0,,,,,,,,,,,,,,,,,633.3167924999725,None,634.0170419998467,634.6174230999313,634.600671299966,636.6019622997846,None,1,0.6102078899275512,2.6115827900357544,decreament,0.6,11,standard,None,100,,,,,,,,m,23,206,fr,r,0,raw,2022-05-18_14h58.06.087,oddball,2022.1.2,59.97303611313711,
5,,,,,0,0,0,1,5,0,5,0,10,0,10,0,,,,,,,,,,,,,,,,,636.6179344998673,None,637.384997199988,637.9851504999679,637.9686538998503,639.969498099992,None,1,0.6135115900542587,2.6143569899722934,decreament,0.6,11,standard,None,100,,,,,,,,m,23,206,fr,r,0,raw,2022-05-18_14h58.06.087,oddball,2022.1.2,59.97303611313711,
5,,,,,0,0,0,1,5,0,5,0,11,0,11,0,,,,,,,,,,,,,,,,,639.9859938998707,None,640.5863287998363,641.1862309998833,641.1696572999936,643.1706258999184,None,1,0.6125670899637043,2.6135896898340434,decreament,0.6,11,standard,None,100,,,,,,,,m,23,206,fr,r,0,raw,2022-05-18_14h58.06.087,oddball,2022.1.2,59.97303611313711,
5,,,,,0,0,0,1,5,0,5,0,12,0,12,0,,,,,,,,,,,,,,,,,643.1875485999044,None,643.9709390997887,644.3378783999942,644.3044506998267,646.3050720999017,j,1,0.3634116898756474,2.364012389909476,decreament,0.36,13,oddball,j,60,,,0.7906057999935001,,,,,m,23,206,fr,r,0,raw,2022-05-18_14h58.06.087,oddball,2022.1.2,59.97303611313711,
5,,,,,0,0,0,1,5,0,5,0,13,0,13,0,,,,,,,,,,,,,,,,,646.3217716999352,None,646.9557888999116,647.5556590999477,647.5390688998159,649.5397779999766,None,1,0.6093863898422569,2.6100733899511397,decreament,0.6,11,standard,None,100,,,,,,,,m,23,206,fr,r,0,raw,2022-05-18_14h58.06.087,oddball,2022.1.2,59.97303611313711,
5,,,,,0,0,0,1,5,0,5,0,14,0,14,0,,,,,,,,,,,,,,,,,649.5563784998376,None,650.2732638998423,650.8734862999991,650.8569666999392,652.8574446998537,None,1,0.6128342901356518,2.613286890089512,decreament,0.6,11,standard,None,100,,,,,,,,m,23,206,fr,r,0,raw,2022-05-18_14h58.06.087,oddball,2022.1.2,59.97303611313711,
5,,,,,0,0,0,1,5,0,5,0,15,0,15,0,,,,,,,,,,,,,,,,,652.8743802998215,None,653.5077511998825,654.1081537997816,654.0912761997897,656.092019099975,None,1,0.607868290040642,2.6086047899443656,decreament,0.6,11,standard,None,100,,,,,,,,m,23,206,fr,r,0,raw,2022-05-18_14h58.06.087,oddball,2022.1.2,59.97303611313711,
5,,,,,0,0,0,1,5,0,5,0,16,0,16,0,,,,,,,,,,,,,,,,,656.1089297998697,None,656.7761226999573,657.2591899998952,657.2425488999579,659.243511499837,None,0,0.49304558988660574,2.4940902900416404,decreament,0.48,14,oddball,j,80,,,,,,,,m,23,206,fr,r,0,raw,2022-05-18_14h58.06.087,oddball,2022.1.2,59.97303611313711,
5,,,,,0,0,0,1,5,0,5,0,17,0,17,0,,,,,,,,,,,,,,,,,659.2607873999514,None,659.9268065998331,660.5269553998951,660.5103534997907,662.5116316999774,None,1,0.6133085901383311,2.6146699900273234,decreament,0.6,11,standard,None,100,,,,,,,,m,23,206,fr,r,0,raw,2022-05-18_14h58.06.087,oddball,2022.1.2,59.97303611313711,
5,,,,,0,0,0,1,5,0,5,0,18,0,18,0,,,,,,,,,,,,,,,,,662.5280960998498,None,663.0782224999275,663.6781958998181,663.6618425999768,665.6626154999249,None,1,0.6117307899985462,2.612585589988157,decreament,0.6,11,standard,None,100,,,,,,,,m,23,206,fr,r,0,raw,2022-05-18_14h58.06.087,oddball,2022.1.2,59.97303611313711,
5,,,,,0,0,0,1,5,0,5,0,19,0,19,0,,,,,,,,,,,,,,,,,665.6790379998274,None,666.279466799926,666.8797200999688,666.862868399825,668.8642952998634,None,1,0.6105994898825884,2.6121058899443597,decreament,0.6,11,standard,None,100,,,,,,,,m,23,206,fr,r,0,raw,2022-05-18_14h58.06.087,oddball,2022.1.2,59.97303611313711,
5,,,,,0,0,0,1,5,0,5,0,20,0,20,0,,,,,,,,,,,,,,,,,668.8801656998694,None,669.4639875998255,670.0639715997968,670.0473901999649,672.0480562997982,None,1,0.6115074902772903,2.612195990048349,decreament,0.6,11,standard,None,100,,,,,,,,m,23,206,fr,r,0,raw,2022-05-18_14h58.06.087,oddball,2022.1.2,59.97303611313711,
5,,,,,0,0,0,1,5,0,5,0,21,0,21,0,,,,,,,,,,,,,,,,,672.0650692000054,None,672.6485204999335,673.2489244998433,673.2322967997752,675.2325730999,None,1,0.6117507901508361,2.611944390228018,decreament,0.6,11,standard,None,100,,,,,,,,m,23,206,fr,r,0,raw,2022-05-18_14h58.06.087,oddball,2022.1.2,59.97303611313711,
5,,,,,0,0,0,1,5,0,5,0,22,0,22,0,,,,,,,,,,,,,,,,,675.2496497998945,None,675.999595799949,676.59978769999,676.5833396997768,678.5839272998273,None,1,0.6125341900624335,2.6131146899424493,decreament,0.6,11,standard,None,100,,,,,,,,m,23,206,fr,r,0,raw,2022-05-18_14h58.06.087,oddball,2022.1.2,59.97303611313711,
5,,,,,0,0,0,1,5,0,5,0,23,0,23,0,,,,,,,,,,,,,,,,,678.6007115999237,None,679.1677910999861,679.76781689981,679.7513532999437,681.7517848999705,None,1,0.6124393900390714,2.612861089874059,decreament,0.6,11,standard,None,100,,,,,,,,m,23,206,fr,r,0,raw,2022-05-18_14h58.06.087,oddball,2022.1.2,59.97303611313711,
5,,,,,0,0,0,1,5,0,5,0,24,0,24,0,,,,,,,,,,,,,,,,,681.7685207999311,None,682.4357919998001,683.0359388999641,683.0192968999036,685.0200476997998,None,1,0.6101432901341468,2.6108551900833845,decreament,0.6,11,standard,None,100,,,,,,,,m,23,206,fr,r,0,raw,2022-05-18_14h58.06.087,oddball,2022.1.2,59.97303611313711,
5,,,,,0,0,0,1,5,0,5,0,25,0,25,0,,,,,,,,,,,,,,,,,685.0371619998477,None,685.7368352999911,686.3368892997969,686.3204473999795,688.321173899807,None,1,0.611117489868775,2.6119040898047388,decreament,0.6,11,standard,None,100,,,,,,,,m,23,206,fr,r,0,raw,2022-05-18_14h58.06.087,oddball,2022.1.2,59.97303611313711,
5,,,,,0,0,0,1,5,0,5,0,26,0,26,0,,,,,,,,,,,,,,,,,688.3377074999735,None,688.9046286998782,689.5047263999004,689.4880750000011,691.488773799967,None,1,0.6110979898367077,2.6117912898771465,decreament,0.6,11,standard,None,100,,,,,,,,m,23,206,fr,r,0,raw,2022-05-18_14h58.06.087,oddball,2022.1.2,59.97303611313711,
5,,,,,0,0,0,1,5,0,5,0,27,0,27,0,,,,,,,,,,,,,,,,,691.5056598999072,None,692.0892447999213,692.6893948998768,692.6729401999619,694.6734113998245,None,1,0.6125793899409473,2.613002689788118,decreament,0.6,11,standard,None,100,,,,,,,,m,23,206,fr,r,0,raw,2022-05-18_14h58.06.087,oddball,2022.1.2,59.97303611313711,
5,,,,,0,0,0,1,5,0,5,0,28,0,28,0,,,,,,,,,,,,,,,,,694.6900415997952,None,695.3570312999655,695.9575969998259,695.9406996998005,697.9414146998897,None,1,0.6135670901276171,2.614240790018812,decreament,0.6,11,standard,None,100,,,,,,,,m,23,206,fr,r,0,raw,2022-05-18_14h58.06.087,oddball,2022.1.2,59.97303611313711,
5,,,,,0,0,0,1,5,0,5,0,29,0,29,0,,,,,,,,,,,,,,,,,697.958041699836,None,698.6247902999166,699.2250196998939,699.2084427999798,701.2093670999166,None,1,0.610169589985162,2.6111521900165826,decreament,0.6,11,standard,None,100,,,,,,,,m,23,206,fr,r,0,raw,2022-05-18_14h58.06.087,oddball,2022.1.2,59.97303611313711,
5,,,,,0,0,0,1,6,0,6,0,0,0,0,0,,,,,,,,,,,,,,,712.2656817999668,None,713.7638574999291,None,714.2809325999115,714.881434999872,714.8646380999126,716.8651859997772,None,1,0.6089019898790866,2.6094745898153633,increament,0.6,15,standard,None,100,701.2269965999294,None,,,,,,m,23,206,fr,r,0,raw,2022-05-18_14h58.06.087,oddball,2022.1.2,59.97303611313711,
5,,,,,0,0,0,1,6,0,6,0,1,0,1,0,,,,,,,,,,,,,,,,,716.8816529999021,None,717.5655611997936,718.1655452998821,718.1492380998097,720.1498498998117,None,1,0.61142218997702,2.6119921901263297,increament,0.6,15,standard,None,100,,,,,,,,m,23,206,fr,r,0,raw,2022-05-18_14h58.06.087,oddball,2022.1.2,59.97303611313711,
5,,,,,0,0,0,1,6,0,6,0,2,0,2,0,,,,,,,,,,,,,,,,,720.1666764998809,None,720.8166781999171,721.4168682999443,721.4001054998953,723.4008300998248,None,1,0.6104658897966146,2.6111652897670865,increament,0.6,15,standard,None,100,,,,,,,,m,23,206,fr,r,0,raw,2022-05-18_14h58.06.087,oddball,2022.1.2,59.97303611313711,
5,,,,,0,0,0,1,6,0,6,0,3,0,3,0,,,,,,,,,,,,,,,,,723.4174069999717,None,724.1017320998944,724.7016382999718,724.6847141999751,726.6853955998085,None,1,0.6092992899939418,2.609963489929214,increament,0.6,15,standard,None,100,,,,,,,,m,23,206,fr,r,0,raw,2022-05-18_14h58.06.087,oddball,2022.1.2,59.97303611313711,
5,,,,,0,0,0,1,6,0,6,0,4,0,4,0,,,,,,,,,,,,,,,,,726.7024458998349,None,727.269044799963,727.8693264999893,727.8527015999425,729.8532329997979,None,1,0.6123767902608961,2.6129253902472556,increament,0.6,15,standard,None,100,,,,,,,,m,23,206,fr,r,0,raw,2022-05-18_14h58.06.087,oddball,2022.1.2,59.97303611313711,
5,,,,,0,0,0,1,6,0,6,0,5,0,5,0,,,,,,,,,,,,,,,,,729.8700659999158,None,730.453951299889,731.0538985999301,731.037405999843,733.0376916998066,None,1,0.6108224899508059,2.6110411898698658,increament,0.6,15,standard,None,100,,,,,,,,m,23,206,fr,r,0,raw,2022-05-18_14h58.06.087,oddball,2022.1.2,59.97303611313711,
5,,,,,0,0,0,1,6,0,6,0,6,0,6,0,,,,,,,,,,,,,,,,,733.0544819999486,None,733.7717849998735,734.3716501998715,734.3550572998356,736.356071599992,None,1,0.6095282898750156,2.6105928898323327,increament,0.6,15,standard,None,100,,,,,,,,m,23,206,fr,r,0,raw,2022-05-18_14h58.06.087,oddball,2022.1.2,59.97303611313711,
5,,,,,0,0,0,1,6,0,6,0,7,0,7,0,,,,,,,,,,,,,,,,,736.3725956999697,None,736.9727310999297,737.5731580997817,737.5567388997879,739.5573024998885,None,1,0.6099085898604244,2.6104660897981375,increament,0.6,15,standard,None,100,,,,,,,,m,23,206,fr,r,0,raw,2022-05-18_14h58.06.087,oddball,2022.1.2,59.97303611313711,
5,,,,,0,0,0,1,6,0,6,0,8,0,8,0,,,,,,,,,,,,,,,,,739.5744790998287,None,740.207183299819,740.8076626998372,740.7911732997745,742.7919691998977,None,1,0.6133447899483144,2.6141349899116904,increament,0.6,15,standard,None,100,,,,,,,,m,23,206,fr,r,0,raw,2022-05-18_14h58.06.087,oddball,2022.1.2,59.97303611313711,
5,,,,,0,0,0,1,6,0,6,0,9,0,9,0,,,,,,,,,,,,,,,,,742.8084197998978,None,743.3920253999531,744.12550189998,744.0920953999739,746.0930495997891,None,0,0.7290894901379943,2.7300488899927586,increament,0.72,16,oddball,j,120,,,,,,,,m,23,206,fr,r,0,raw,2022-05-18_14h58.06.087,oddball,2022.1.2,59.97303611313711,
5,,,,,0,0,0,1,6,0,6,0,10,0,10,0,,,,,,,,,,,,,,,,,746.1096753999591,None,746.7764364997856,747.376873599831,747.3603556999005,749.3607704997994,None,1,0.6092090897727758,2.6095450897701085,increament,0.6,15,standard,None,100,,,,,,,,m,23,206,fr,r,0,raw,2022-05-18_14h58.06.087,oddball,2022.1.2,59.97303611313711,
5,,,,,0,0,0,1,6,0,6,0,11,0,11,0,,,,,,,,,,,,,,,,,749.3773176998366,None,749.9610273998696,750.5615331998561,750.5446610997897,752.5452236998826,None,1,0.6121231899596751,2.6126249900553375,increament,0.6,15,standard,None,100,,,,,,,,m,23,206,fr,r,0,raw,2022-05-18_14h58.06.087,oddball,2022.1.2,59.97303611313711,
5,,,,,0,0,0,1,6,0,6,0,12,0,12,0,,,,,,,,,,,,,,,,,752.5618755999021,None,753.1286840999965,753.7288545998745,753.712040499784,755.7130250998307,None,1,0.6127466899342835,2.613760189851746,increament,0.6,15,standard,None,100,,,,,,,,m,23,206,fr,r,0,raw,2022-05-18_14h58.06.087,oddball,2022.1.2,59.97303611313711,
5,,,,,0,0,0,1,6,0,6,0,13,0,13,0,,,,,,,,,,,,,,,,,755.7300542998128,None,756.4136082998011,757.013629199937,756.9972191997804,758.9975903998129,None,1,0.6134251898620278,2.6137791897635907,increament,0.6,15,standard,None,100,,,,,,,,m,23,206,fr,r,0,raw,2022-05-18_14h58.06.087,oddball,2022.1.2,59.97303611313711,
5,,,,,0,0,0,1,6,0,6,0,14,0,14,0,,,,,,,,,,,,,,,,,759.0145581997931,None,759.7314824999776,760.3317086999305,760.3156585998368,762.3160287998617,None,1,0.6131450901739299,2.6134749902412295,increament,0.6,15,standard,None,100,,,,,,,,m,23,206,fr,r,0,raw,2022-05-18_14h58.06.087,oddball,2022.1.2,59.97303611313711,
5,,,,,0,0,0,1,6,0,6,0,15,0,15,0,,,,,,,,,,,,,,,,,762.3324131998233,None,762.9996242998168,763.5997360998299,763.5830046997871,765.5834725999739,None,1,0.6129354897420853,2.6133547897916287,increament,0.6,15,standard,None,100,,,,,,,,m,23,206,fr,r,0,raw,2022-05-18_14h58.06.087,oddball,2022.1.2,59.97303611313711,
5,,,,,0,0,0,1,6,0,6,0,16,0,16,0,,,,,,,,,,,,,,,,,765.6002669997979,None,766.2669605999254,766.8676090999506,766.8507698997855,768.8519293998834,None,1,0.6143016899004579,2.6155529897660017,increament,0.6,15,standard,None,100,,,,,,,,m,23,206,fr,r,0,raw,2022-05-18_14h58.06.087,oddball,2022.1.2,59.97303611313711,
5,,,,,0,0,0,1,6,0,6,0,17,0,17,0,,,,,,,,,,,,,,,,,768.8694608998485,None,769.568670099834,770.1686998999212,770.1521574999206,772.1526496999431,None,1,0.6128202900290489,2.613293489906937,increament,0.6,15,standard,None,100,,,,,,,,m,23,206,fr,r,0,raw,2022-05-18_14h58.06.087,oddball,2022.1.2,59.97303611313711,
5,,,,,0,0,0,1,6,0,6,0,18,0,18,0,,,,,,,,,,,,,,,,,772.1692507998087,None,772.8030937998556,773.4036201999988,773.3868084999267,775.387285699835,None,1,0.609866590006277,2.610276289982721,increament,0.6,15,standard,None,100,,,,,,,,m,23,206,fr,r,0,raw,2022-05-18_14h58.06.087,oddball,2022.1.2,59.97303611313711,
5,,,,,0,0,0,1,6,0,6,0,19,0,19,0,,,,,,,,,,,,,,,,,775.4048695999663,None,776.12081259978,776.7210858999752,776.7046927998308,778.7050919998437,None,1,0.6124028898775578,2.6127590897958726,increament,0.6,15,standard,None,100,,,,,,,,m,23,206,fr,r,0,raw,2022-05-18_14h58.06.087,oddball,2022.1.2,59.97303611313711,
5,,,,,0,0,0,1,6,0,6,0,20,0,20,0,,,,,,,,,,,,,,,,,778.7216532998718,None,779.2720375999343,780.1222826999146,780.08889429993,782.0896493999753,j,1,0.8457597901578993,2.846518689999357,increament,0.84,17,oddball,j,140,,,1.1497017999645323,,,,,m,23,206,fr,r,0,raw,2022-05-18_14h58.06.087,oddball,2022.1.2,59.97303611313711,
5,,,,,0,0,0,1,6,0,6,0,21,0,21,0,,,,,,,,,,,,,,,,,782.1066660999786,None,782.7566888998263,783.3568206999917,783.3405865998939,785.3410863999743,None,1,0.6129256901331246,2.6134191900491714,increament,0.6,15,standard,None,100,,,,,,,,m,23,206,fr,r,0,raw,2022-05-18_14h58.06.087,oddball,2022.1.2,59.97303611313711,
5,,,,,0,0,0,1,6,0,6,0,22,0,22,0,,,,,,,,,,,,,,,,,785.3578169997782,None,785.9581683999859,786.5581520998385,786.542211299995,788.5423351000063,None,1,0.6113972901366651,2.6114289900287986,increament,0.6,15,standard,None,100,,,,,,,,m,23,206,fr,r,0,raw,2022-05-18_14h58.06.087,oddball,2022.1.2,59.97303611313711,
5,,,,,0,0,0,1,6,0,6,0,23,0,23,0,,,,,,,,,,,,,,,,,788.5591322998516,None,789.1759221998509,789.776169499848,789.7594913998619,791.7604007998016,None,1,0.611333389999345,2.6123039901722223,increament,0.6,15,standard,None,100,,,,,,,,m,23,206,fr,r,0,raw,2022-05-18_14h58.06.087,oddball,2022.1.2,59.97303611313711,
5,,,,,0,0,0,1,6,0,6,0,24,0,24,0,,,,,,,,,,,,,,,,,791.776949299965,None,792.4436976998113,793.4106524998788,793.3775971999858,795.3786235000007,j,1,0.9645630898885429,2.965649589896202,increament,0.96,18,oddball,j,160,,,1.540512200212106,,,,,m,23,206,fr,r,0,raw,2022-05-18_14h58.06.087,oddball,2022.1.2,59.97303611313711,
5,,,,,0,0,0,1,6,0,6,0,25,0,25,0,,,,,,,,,,,,,,,,,795.3970401999541,None,796.1453010998666,796.7456116999965,796.7293055998161,798.7293764997739,None,1,0.610043790191412,2.6100495900027454,increament,0.6,15,standard,None,100,,,,,,,,m,23,206,fr,r,0,raw,2022-05-18_14h58.06.087,oddball,2022.1.2,59.97303611313711,
5,,,,,0,0,0,1,6,0,6,0,26,0,26,0,,,,,,,,,,,,,,,,,798.7460776998196,None,799.2962846998125,799.8970284999814,799.880137299886,801.8803079999052,None,1,0.6097715902142227,2.609856290044263,increament,0.6,15,standard,None,100,,,,,,,,m,23,206,fr,r,0,raw,2022-05-18_14h58.06.087,oddball,2022.1.2,59.97303611313711,
5,,,,,0,0,0,1,6,0,6,0,27,0,27,0,,,,,,,,,,,,,,,,,801.8970186999068,None,802.5808828999288,803.1814276999794,803.1648449997883,805.16553189978,None,1,0.6102026901207864,2.610880390042439,increament,0.6,15,standard,None,100,,,,,,,,m,23,206,fr,r,0,raw,2022-05-18_14h58.06.087,oddball,2022.1.2,59.97303611313711,
5,,,,,0,0,0,1,6,0,6,0,28,0,28,0,,,,,,,,,,,,,,,,,805.1834934998769,None,805.7654766999185,806.365767999785,806.3490204999689,808.3497440000065,None,1,0.6128863899502903,2.613592689856887,increament,0.6,15,standard,None,100,,,,,,,,m,23,206,fr,r,0,raw,2022-05-18_14h58.06.087,oddball,2022.1.2,59.97303611313711,
5,,,,,0,0,0,1,6,0,6,0,29,0,29,0,,,,,,,,,,,,,,,,,808.3664703997783,None,808.9004677999765,809.5001525999978,809.4835537998006,811.4843666998204,None,1,0.6095840898342431,2.6104170898906887,increament,0.6,15,standard,None,100,,,,,,,,m,23,206,fr,r,0,raw,2022-05-18_14h58.06.087,oddball,2022.1.2,59.97303611313711,
5,,,,,0,0,0,1,7,0,7,0,0,0,0,0,,,,,,,,,,,,,,,817.7751258998178,None,822.7885985998437,None,823.5221610998269,824.1227676998824,824.1059819997754,826.1062593997922,None,1,0.6126855898182839,2.612737689865753,decreament,0.6,11,standard,None,100,811.5011722999625,None,,,,,,m,23,206,fr,r,0,raw,2022-05-18_14h58.06.087,oddball,2022.1.2,59.97303611313711,
5,,,,,0,0,0,1,7,0,7,0,1,0,1,0,,,,,,,,,,,,,,,,,826.1231578998268,None,826.6732628999744,827.2735671999399,827.2570925999898,829.2577544997912,None,1,0.6132439896464348,2.613938089692965,decreament,0.6,11,standard,None,100,,,,,,,,m,23,206,fr,r,0,raw,2022-05-18_14h58.06.087,oddball,2022.1.2,59.97303611313711,
5,,,,,0,0,0,1,7,0,7,0,2,0,2,0,,,,,,,,,,,,,,,,,829.2742877998389,None,829.8245426998474,830.4249171998817,830.4082491998561,832.4089133997913,None,1,0.6127440901473165,2.613381390227005,decreament,0.6,11,standard,None,100,,,,,,,,m,23,206,fr,r,0,raw,2022-05-18_14h58.06.087,oddball,2022.1.2,59.97303611313711,
5,,,,,0,0,0,1,7,0,7,0,3,0,3,0,,,,,,,,,,,,,,,,,832.4257721998729,None,833.0095890997909,833.6092505999841,833.5926302999724,835.5936543999705,None,1,0.6125016901642084,2.6135723900515586,decreament,0.6,11,standard,None,100,,,,,,,,m,23,206,fr,r,0,raw,2022-05-18_14h58.06.087,oddball,2022.1.2,59.97303611313711,
5,,,,,0,0,0,1,7,0,7,0,4,0,4,0,,,,,,,,,,,,,,,,,835.6098830997944,None,836.2772310997825,836.8771255998872,836.8609446999617,838.8613700999413,None,1,0.6125640899408609,2.612996189855039,decreament,0.6,11,standard,None,100,,,,,,,,m,23,206,fr,r,0,raw,2022-05-18_14h58.06.087,oddball,2022.1.2,59.97303611313711,
5,,,,,0,0,0,1,7,0,7,0,5,0,5,0,,,,,,,,,,,,,,,,,838.8781844999176,None,839.4616667998489,839.7116256000008,839.6786915999837,841.6790165998973,j,1,0.24681968986988068,2.2470360898878425,decreament,0.24,12,oddball,j,40,,,0.9584609002340585,,,,,m,23,206,fr,r,0,raw,2022-05-18_14h58.06.087,oddball,2022.1.2,59.97303611313711,
5,,,,,0,0,0,1,7,0,7,0,6,0,6,0,,,,,,,,,,,,,,,,,841.6956225999165,None,842.3129190998152,842.9127614998724,842.8964091998059,844.8970650997944,None,1,0.6096024899743497,2.6101967899594456,decreament,0.6,11,standard,None,100,,,,,,,,m,23,206,fr,r,0,raw,2022-05-18_14h58.06.087,oddball,2022.1.2,59.97303611313711,
5,,,,,0,0,0,1,7,0,7,0,7,0,7,0,,,,,,,,,,,,,,,,,844.9137215998489,None,845.4973618998192,846.0972403998021,846.0808393999469,848.0814278000034,None,1,0.6083888898137957,2.6089987899176776,decreament,0.6,11,standard,None,100,,,,,,,,m,23,206,fr,r,0,raw,2022-05-18_14h58.06.087,oddball,2022.1.2,59.97303611313711,
5,,,,,0,0,0,1,7,0,7,0,8,0,8,0,,,,,,,,,,,,,,,,,848.0983587999362,None,848.7482963998336,849.3489524999168,849.332128399983,851.3328880998306,None,1,0.6137067899107933,2.6144341898616403,decreament,0.6,11,standard,None,100,,,,,,,,m,23,206,fr,r,0,raw,2022-05-18_14h58.06.087,oddball,2022.1.2,59.97303611313711,
5,,,,,0,0,0,1,7,0,7,0,9,0,9,0,,,,,,,,,,,,,,,,,851.349378899904,None,852.0162108999211,852.616749299923,852.6003646999598,854.6005931999534,None,1,0.6128862898331136,2.61307918978855,decreament,0.6,11,standard,None,100,,,,,,,,m,23,206,fr,r,0,raw,2022-05-18_14h58.06.087,oddball,2022.1.2,59.97303611313711,
5,,,,,0,0,0,1,7,0,7,0,10,0,10,0,,,,,,,,,,,,,,,,,854.6173416997772,None,855.1843380997889,855.7843398998957,855.7676411999855,857.7687521998305,None,1,0.6091189901344478,2.6102978901471943,decreament,0.6,11,standard,None,100,,,,,,,,m,23,206,fr,r,0,raw,2022-05-18_14h58.06.087,oddball,2022.1.2,59.97303611313711,
5,,,,,0,0,0,1,7,0,7,0,11,0,11,0,,,,,,,,,,,,,,,,,857.7852877997793,None,858.3857195999008,858.9855078998953,858.9695503998082,860.9697616999038,None,1,0.6102273901924491,2.6103565900120884,decreament,0.6,11,standard,None,100,,,,,,,,m,23,206,fr,r,0,raw,2022-05-18_14h58.06.087,oddball,2022.1.2,59.97303611313711,
5,,,,,0,0,0,1,7,0,7,0,12,0,12,0,,,,,,,,,,,,,,,,,860.9862585999072,None,861.7200240998063,862.3200050999876,862.3034237998072,864.3044724999927,None,1,0.6123264899943024,2.6133712898008525,decreament,0.6,11,standard,None,100,,,,,,,,m,23,206,fr,r,0,raw,2022-05-18_14h58.06.087,oddball,2022.1.2,59.97303611313711,
5,,,,,0,0,0,1,7,0,7,0,13,0,13,0,,,,,,,,,,,,,,,,,864.3210522998124,None,865.2050793999806,865.8048955998383,865.788230799837,867.7890049999114,None,1,0.6114837899804115,2.6122414900455624,decreament,0.6,11,standard,None,100,,,,,,,,m,23,206,fr,r,0,raw,2022-05-18_14h58.06.087,oddball,2022.1.2,59.97303611313711,
5,,,,,0,0,0,1,7,0,7,0,14,0,14,0,,,,,,,,,,,,,,,,,867.8056915998459,None,868.5056990999728,869.1060602997895,869.0894710998982,871.0902211999055,None,1,0.6117113898508251,2.6124521899037063,decreament,0.6,11,standard,None,100,,,,,,,,m,23,206,fr,r,0,raw,2022-05-18_14h58.06.087,oddball,2022.1.2,59.97303611313711,
5,,,,,0,0,0,1,7,0,7,0,15,0,15,0,,,,,,,,,,,,,,,,,871.1067622997798,None,871.9740739997942,872.5741764998529,872.5574244000018,874.5584979997948,None,1,0.6123512899503112,2.613476990023628,decreament,0.6,11,standard,None,100,,,,,,,,m,23,206,fr,r,0,raw,2022-05-18_14h58.06.087,oddball,2022.1.2,59.97303611313711,
5,,,,,0,0,0,1,7,0,7,0,16,0,16,0,,,,,,,,,,,,,,,,,874.5756610999815,None,875.1085410998203,875.7085647999775,875.6921190998983,877.6927972999401,None,1,0.6097250902093947,2.6104349901434034,decreament,0.6,11,standard,None,100,,,,,,,,m,23,206,fr,r,0,raw,2022-05-18_14h58.06.087,oddball,2022.1.2,59.97303611313711,
5,,,,,0,0,0,1,7,0,7,0,17,0,17,0,,,,,,,,,,,,,,,,,877.7102142998483,None,878.4099956999999,878.8935045998078,878.8765344999265,880.8771650998387,None,0,0.4942465899512172,2.4948695900384337,decreament,0.48,14,oddball,j,80,,,,,,,,m,23,206,fr,r,0,raw,2022-05-18_14h58.06.087,oddball,2022.1.2,59.97303611313711,
5,,,,,0,0,0,1,7,0,7,0,18,0,18,0,,,,,,,,,,,,,,,,,880.8941908997949,None,881.4948054999113,882.0945317998994,882.0777271999978,884.0787456999533,None,1,0.6077500898391008,2.608848789706826,decreament,0.6,11,standard,None,100,,,,,,,,m,23,206,fr,r,0,raw,2022-05-18_14h58.06.087,oddball,2022.1.2,59.97303611313711,
5,,,,,0,0,0,1,7,0,7,0,19,0,19,0,,,,,,,,,,,,,,,,,884.0966757999267,None,884.8620776999742,885.4622257999144,885.4454000999685,887.4464271999896,None,1,0.6123448899015784,2.613392589846626,decreament,0.6,11,standard,None,100,,,,,,,,m,23,206,fr,r,0,raw,2022-05-18_14h58.06.087,oddball,2022.1.2,59.97303611313711,
5,,,,,0,0,0,1,7,0,7,0,20,0,20,0,,,,,,,,,,,,,,,,,887.4630762999877,None,888.1967075997964,888.7971476998646,888.7807826998178,890.7808754998259,None,1,0.6127339899539948,2.6127319899387658,decreament,0.6,11,standard,None,100,,,,,,,,m,23,206,fr,r,0,raw,2022-05-18_14h58.06.087,oddball,2022.1.2,59.97303611313711,
5,,,,,0,0,0,1,7,0,7,0,21,0,21,0,,,,,,,,,,,,,,,,,890.7978765999433,None,891.4145535998978,892.0146940997802,891.9979973998852,893.9986582999118,None,1,0.6124884898308665,2.613129389937967,decreament,0.6,11,standard,None,100,,,,,,,,m,23,206,fr,r,0,raw,2022-05-18_14h58.06.087,oddball,2022.1.2,59.97303611313711,
5,,,,,0,0,0,1,7,0,7,0,22,0,22,0,,,,,,,,,,,,,,,,,894.0156004999299,None,894.749346499797,895.3493997999467,895.3328362999018,897.3334911998827,None,1,0.6123202899470925,2.612984189996496,decreament,0.6,11,standard,None,100,,,,,,,,m,23,206,fr,r,0,raw,2022-05-18_14h58.06.087,oddball,2022.1.2,59.97303611313711,
5,,,,,0,0,0,1,7,0,7,0,23,0,23,0,,,,,,,,,,,,,,,,,897.3503903998062,None,898.00034769997,898.6011457999703,898.5842927999329,900.5846812999807,None,1,0.6132149898912758,2.613541489932686,decreament,0.6,11,standard,None,100,,,,,,,,m,23,206,fr,r,0,raw,2022-05-18_14h58.06.087,oddball,2022.1.2,59.97303611313711,
5,,,,,0,0,0,1,7,0,7,0,24,0,24,0,,,,,,,,,,,,,,,,,900.6013417998329,None,901.2852852998767,901.8851374997757,901.8684206998441,903.8692639998626,None,1,0.6081260899081826,2.6090352900791913,decreament,0.6,11,standard,None,100,,,,,,,,m,23,206,fr,r,0,raw,2022-05-18_14h58.06.087,oddball,2022.1.2,59.97303611313711,
5,,,,,0,0,0,1,7,0,7,0,25,0,25,0,,,,,,,,,,,,,,,,,903.8861370999366,None,904.5698037999682,904.9364094999619,904.9029092998244,906.903899599798,j,1,0.36247828998602927,2.3635002900846303,decreament,0.36,13,oddball,j,60,,,0.8380629001185298,,,,,m,23,206,fr,r,0,raw,2022-05-18_14h58.06.087,oddball,2022.1.2,59.97303611313711,
5,,,,,0,0,0,1,7,0,7,0,26,0,26,0,,,,,,,,,,,,,,,,,906.9206394997891,None,907.637510499917,908.2374057997949,908.220772099914,910.2214714000002,None,1,0.6118851900100708,2.6125722900032997,decreament,0.6,11,standard,None,100,,,,,,,,m,23,206,fr,r,0,raw,2022-05-18_14h58.06.087,oddball,2022.1.2,59.97303611313711,
5,,,,,0,0,0,1,7,0,7,0,27,0,27,0,,,,,,,,,,,,,,,,,910.2384018998127,None,910.7885180998128,911.388607799774,911.3723334998358,913.3726142998785,None,1,0.6126087901648134,2.612894690129906,decreament,0.6,11,standard,None,100,,,,,,,,m,23,206,fr,r,0,raw,2022-05-18_14h58.06.087,oddball,2022.1.2,59.97303611313711,
5,,,,,0,0,0,1,7,0,7,0,28,0,28,0,,,,,,,,,,,,,,,,,913.3892236999236,None,914.073421199806,914.6733054998331,914.6565542998724,916.6576316999272,None,1,0.6125487899407744,2.6136762900277972,decreament,0.6,11,standard,None,100,,,,,,,,m,23,206,fr,r,0,raw,2022-05-18_14h58.06.087,oddball,2022.1.2,59.97303611313711,
5,,,,,0,0,0,1,7,0,7,0,29,0,29,0,,,,,,,,,,,,,,,,,916.6742501999252,None,917.3745990998577,917.9746716998052,917.9581150999293,919.9587047998793,None,1,0.6120726901572198,2.612625290174037,decreament,0.6,11,standard,None,100,,,,,,,,m,23,206,fr,r,0,raw,2022-05-18_14h58.06.087,oddball,2022.1.2,59.97303611313711,
5,,,,,0,0,0,1,8,0,8,0,0,0,0,0,,,,,,,,,,,,,,,928.9961879998446,None,931.0128138998989,None,931.6296920999885,932.2301537999883,932.2136304997839,934.2140384998638,None,1,0.6085021900944412,2.608837790088728,increament,0.6,15,standard,None,100,919.9755416999105,None,,,,,,m,23,206,fr,r,0,raw,2022-05-18_14h58.06.087,oddball,2022.1.2,59.97303611313711,
5,,,,,0,0,0,1,8,0,8,0,1,0,1,0,,,,,,,,,,,,,,,,,934.2310943999328,None,934.8481546998955,935.4478218997829,935.431288599968,937.4320758997928,None,1,0.6111382900271565,2.611945290118456,increament,0.6,15,standard,None,100,,,,,,,,m,23,206,fr,r,0,raw,2022-05-18_14h58.06.087,oddball,2022.1.2,59.97303611313711,
5,,,,,0,0,0,1,8,0,8,0,2,0,2,0,,,,,,,,,,,,,,,,,937.4486706999596,None,938.1822089999914,938.7827823997941,938.7659555999562,940.766508899862,None,1,0.6129957898519933,2.613545789849013,increament,0.6,15,standard,None,100,,,,,,,,m,23,206,fr,r,0,raw,2022-05-18_14h58.06.087,oddball,2022.1.2,59.97303611313711,
5,,,,,0,0,0,1,8,0,8,0,3,0,3,0,,,,,,,,,,,,,,,,,940.783426999813,None,941.4670899999328,942.0671127999667,942.0506197998766,944.0511155999266,None,1,0.6093464898876846,2.60982848983258,increament,0.6,15,standard,None,100,,,,,,,,m,23,206,fr,r,0,raw,2022-05-18_14h58.06.087,oddball,2022.1.2,59.97303611313711,
5,,,,,0,0,0,1,8,0,8,0,4,0,4,0,,,,,,,,,,,,,,,,,944.0677991998382,None,944.7347164999228,945.3349016997963,945.3185694999993,947.3192119000014,None,1,0.6111190898809582,2.6117300898768008,increament,0.6,15,standard,None,100,,,,,,,,m,23,206,fr,r,0,raw,2022-05-18_14h58.06.087,oddball,2022.1.2,59.97303611313711,
5,,,,,0,0,0,1,8,0,8,0,5,0,5,0,,,,,,,,,,,,,,,,,947.3355815999676,None,947.9692257998977,948.5698736999184,948.553131399909,950.5536909999792,None,1,0.6125343898311257,2.613113789819181,increament,0.6,15,standard,None,100,,,,,,,,m,23,206,fr,r,0,raw,2022-05-18_14h58.06.087,oddball,2022.1.2,59.97303611313711,
5,,,,,0,0,0,1,8,0,8,0,6,0,6,0,,,,,,,,,,,,,,,,,950.5699809999205,None,951.2704307998065,951.8707516998984,951.8544876999222,953.8549519998487,None,1,0.6137678897939622,2.6142179898452014,increament,0.6,15,standard,None,100,,,,,,,,m,23,206,fr,r,0,raw,2022-05-18_14h58.06.087,oddball,2022.1.2,59.97303611313711,
5,,,,,0,0,0,1,8,0,8,0,7,0,7,0,,,,,,,,,,,,,,,,,953.871880199993,None,954.5389274999034,955.1387835999485,955.1219971999526,957.1226370998193,None,1,0.6103149901609868,2.6109627899713814,increament,0.6,15,standard,None,100,,,,,,,,m,23,206,fr,r,0,raw,2022-05-18_14h58.06.087,oddball,2022.1.2,59.97303611313711,
5,,,,,0,0,0,1,8,0,8,0,8,0,8,0,,,,,,,,,,,,,,,,,957.1396621000022,None,957.7896501999348,958.3900998998433,958.3732298999093,960.374523999868,None,1,0.6132100902032107,2.6145465900190175,increament,0.6,15,standard,None,100,,,,,,,,m,23,206,fr,r,0,raw,2022-05-18_14h58.06.087,oddball,2022.1.2,59.97303611313711,
5,,,,,0,0,0,1,8,0,8,0,9,0,9,0,,,,,,,,,,,,,,,,,960.391753599979,None,961.0741448998451,961.6743916999549,961.6578978998587,963.6585593998898,None,1,0.613098890054971,2.613771890057251,increament,0.6,15,standard,None,100,,,,,,,,m,23,206,fr,r,0,raw,2022-05-18_14h58.06.087,oddball,2022.1.2,59.97303611313711,
5,,,,,0,0,0,1,8,0,8,0,10,0,10,0,,,,,,,,,,,,,,,,,963.675629499834,None,964.2921679997817,964.892773799831,964.8759002999868,966.8764667999931,None,1,0.6134216899517924,2.613953090040013,increament,0.6,15,standard,None,100,,,,,,,,m,23,206,fr,r,0,raw,2022-05-18_14h58.06.087,oddball,2022.1.2,59.97303611313711,
5,,,,,0,0,0,1,8,0,8,0,11,0,11,0,,,,,,,,,,,,,,,,,966.8930646998342,None,967.4599311999045,968.060530899791,968.0440450999886,970.0447015999816,None,1,0.6131521898787469,2.613785390043631,increament,0.6,15,standard,None,100,,,,,,,,m,23,206,fr,r,0,raw,2022-05-18_14h58.06.087,oddball,2022.1.2,59.97303611313711,
5,,,,,0,0,0,1,8,0,8,0,12,0,12,0,,,,,,,,,,,,,,,,,970.0609865000006,None,970.678324899869,971.4116099998355,971.3786429997999,973.3787665998098,j,1,0.7279334897175431,2.7279583897907287,increament,0.72,16,oddball,j,120,,,0.49777050013653934,,,,,m,23,206,fr,r,0,raw,2022-05-18_14h58.06.087,oddball,2022.1.2,59.97303611313711,
5,,,,,0,0,0,1,8,0,8,0,13,0,13,0,,,,,,,,,,,,,,,,,973.3955555998255,None,974.1294529999141,974.7294675000012,974.7129107997753,976.7137784999795,None,1,0.6093839902896434,2.610247890232131,increament,0.6,15,standard,None,100,,,,,,,,m,23,206,fr,r,0,raw,2022-05-18_14h58.06.087,oddball,2022.1.2,59.97303611313711,
5,,,,,0,0,0,1,8,0,8,0,14,0,14,0,,,,,,,,,,,,,,,,,976.730194499949,None,977.3471700998489,977.9474569999147,977.9311548999976,979.9317170998547,None,1,0.6130670900456607,2.613219690043479,increament,0.6,15,standard,None,100,,,,,,,,m,23,206,fr,r,0,raw,2022-05-18_14h58.06.087,oddball,2022.1.2,59.97303611313711,
5,,,,,0,0,0,1,8,0,8,0,15,0,15,0,,,,,,,,,,,,,,,,,979.9481637999415,None,980.5818089998793,981.1821416998282,981.1650996999815,983.1657385998406,None,1,0.6124898900743574,2.6131431902758777,increament,0.6,15,standard,None,100,,,,,,,,m,23,206,fr,r,0,raw,2022-05-18_14h58.06.087,oddball,2022.1.2,59.97303611313711,
5,,,,,0,0,0,1,8,0,8,0,16,0,16,0,,,,,,,,,,,,,,,,,983.1825277998578,None,983.7496236998122,984.3499706999864,984.3332908998709,986.3341811997816,None,1,0.612008289899677,2.6129225899931043,increament,0.6,15,standard,None,100,,,,,,,,m,23,206,fr,r,0,raw,2022-05-18_14h58.06.087,oddball,2022.1.2,59.97303611313711,
5,,,,,0,0,0,1,8,0,8,0,17,0,17,0,,,,,,,,,,,,,,,,,986.3516894998029,None,986.9841453998815,987.5841577998362,987.5677113998681,989.568654499948,None,1,0.6134452901314944,2.614477389957756,increament,0.6,15,standard,None,100,,,,,,,,m,23,206,fr,r,0,raw,2022-05-18_14h58.06.087,oddball,2022.1.2,59.97303611313711,
5,,,,,0,0,0,1,8,0,8,0,18,0,18,0,,,,,,,,,,,,,,,,,989.585843199864,None,990.2023900998756,990.8023273998406,990.7859254998621,992.7863382999785,None,1,0.6109072901308537,2.6113414901774377,increament,0.6,15,standard,None,100,,,,,,,,m,23,206,fr,r,0,raw,2022-05-18_14h58.06.087,oddball,2022.1.2,59.97303611313711,
5,,,,,0,0,0,1,8,0,8,0,19,0,19,0,,,,,,,,,,,,,,,,,992.8031492999289,None,993.402812999906,994.2533490997739,994.2199565998744,996.2208699998446,j,1,0.8485700902529061,2.8495325902476907,increament,0.84,17,oddball,j,140,,,0.641567800194025,,,,,m,23,206,fr,r,0,raw,2022-05-18_14h58.06.087,oddball,2022.1.2,59.97303611313711,
5,,,,,0,0,0,1,8,0,8,0,20,0,20,0,,,,,,,,,,,,,,,,,996.2375291998032,None,996.9544656998478,997.5547865999397,997.5379967999179,999.5391153998207,None,1,0.6133235900197178,2.6145174901466817,increament,0.6,15,standard,None,100,,,,,,,,m,23,206,fr,r,0,raw,2022-05-18_14h58.06.087,oddball,2022.1.2,59.97303611313711,
5,,,,,0,0,0,1,8,0,8,0,21,0,21,0,,,,,,,,,,,,,,,,,999.555609199917,None,1000.2057238998823,1000.8058317999821,1000.7893892999273,1002.7904468998313,None,1,0.6127168901730329,2.6138327901717275,increament,0.6,15,standard,None,100,,,,,,,,m,23,206,fr,r,0,raw,2022-05-18_14h58.06.087,oddball,2022.1.2,59.97303611313711,
5,,,,,0,0,0,1,8,0,8,0,22,0,22,0,,,,,,,,,,,,,,,,,1002.8077410999686,None,1003.5238990997896,1004.1240336999763,1004.1072823998984,1006.1075891999062,None,1,0.6090712898876518,2.6093246897216886,increament,0.6,15,standard,None,100,,,,,,,,m,23,206,fr,r,0,raw,2022-05-18_14h58.06.087,oddball,2022.1.2,59.97303611313711,
5,,,,,0,0,0,1,8,0,8,0,23,0,23,0,,,,,,,,,,,,,,,,,1006.1244400998112,None,1006.875366399996,1007.4749436997809,1007.4587564999238,1009.4592501998413,None,1,0.6105163898319006,2.611059289658442,increament,0.6,15,standard,None,100,,,,,,,,m,23,206,fr,r,0,raw,2022-05-18_14h58.06.087,oddball,2022.1.2,59.97303611313711,
5,,,,,0,0,0,1,8,0,8,0,24,0,24,0,,,,,,,,,,,,,,,,,1009.4761638999917,None,1010.0764724998735,1010.6763841998763,1010.6600943999365,1012.6610308999661,None,1,0.6090430899057537,2.6100943898782134,increament,0.6,15,standard,None,100,,,,,,,,m,23,206,fr,r,0,raw,2022-05-18_14h58.06.087,oddball,2022.1.2,59.97303611313711,
5,,,,,0,0,0,1,8,0,8,0,25,0,25,0,,,,,,,,,,,,,,,,,1012.6786259999499,None,1013.5106563000008,1014.1110599997919,1014.0942889999133,1016.0952243998181,None,1,0.6111959898844361,2.612247289856896,increament,0.6,15,standard,None,100,,,,,,,,m,23,206,fr,r,0,raw,2022-05-18_14h58.06.087,oddball,2022.1.2,59.97303611313711,
5,,,,,0,0,0,1,8,0,8,0,26,0,26,0,,,,,,,,,,,,,,,,,1016.1116083997767,None,1016.6454654999543,1017.2458487998229,1017.2288520999718,1019.2299070998561,None,1,0.6122919898480177,2.6133765899576247,increament,0.6,15,standard,None,100,,,,,,,,m,23,206,fr,r,0,raw,2022-05-18_14h58.06.087,oddball,2022.1.2,59.97303611313711,
5,,,,,0,0,0,1,8,0,8,0,27,0,27,0,,,,,,,,,,,,,,,,,1019.2462502999697,None,1019.8634014998097,1020.4634340999182,1020.4468297997955,1022.4474216999952,None,1,0.6091744899749756,2.60976798995398,increament,0.6,15,standard,None,100,,,,,,,,m,23,206,fr,r,0,raw,2022-05-18_14h58.06.087,oddball,2022.1.2,59.97303611313711,
5,,,,,0,0,0,1,8,0,8,0,28,0,28,0,,,,,,,,,,,,,,,,,1022.4641622998752,None,1022.997733599972,1023.5981505999807,1023.5816675999667,1025.5821498997975,None,1,0.6133728900458664,2.6138351899571717,increament,0.6,15,standard,None,100,,,,,,,,m,23,206,fr,r,0,raw,2022-05-18_14h58.06.087,oddball,2022.1.2,59.97303611313711,
5,,,,,0,0,0,1,8,0,8,0,29,0,29,0,,,,,,,,,,,,,,,,,1025.5987548998091,None,1026.282727099955,1027.249561799923,1027.2326212998014,1029.2339522999246,j,1,0.9742902901489288,2.9757396900095046,increament,0.96,18,oddball,j,160,,,0.6043004000093788,,,,,m,23,206,fr,r,0,raw,2022-05-18_14h58.06.087,oddball,2022.1.2,59.97303611313711,
5,,,,,0,0,0,1,9,0,9,0,0,0,0,0,,,,,,,,,,,,,,,1046.1285673999228,None,1048.6409281999804,None,1049.2580598997883,1049.8578231998254,1049.8412557998672,1051.8419931998942,None,1,0.6092876901384443,2.6100660902448,decreament,0.6,11,standard,None,100,1029.2542042999994,None,,,,,,m,23,206,fr,r,0,raw,2022-05-18_14h58.06.087,oddball,2022.1.2,59.97303611313711,
5,,,,,0,0,0,1,9,0,9,0,1,0,1,0,,,,,,,,,,,,,,,,,1051.858730699867,None,1052.6592833998147,1053.2597957998514,1053.242810699856,1055.2430682999548,None,1,0.6094018900766969,2.6095987900625914,decreament,0.6,11,standard,None,100,,,,,,,,m,23,206,fr,r,0,raw,2022-05-18_14h58.06.087,oddball,2022.1.2,59.97303611313711,
5,,,,,0,0,0,1,9,0,9,0,2,0,2,0,,,,,,,,,,,,,,,,,1055.2598086998332,None,1055.9771427998785,1056.5769774999935,1056.5608615998644,1058.5614264998585,None,1,0.6121656899340451,2.6127209898550063,decreament,0.6,11,standard,None,100,,,,,,,,m,23,206,fr,r,0,raw,2022-05-18_14h58.06.087,oddball,2022.1.2,59.97303611313711,
5,,,,,0,0,0,1,9,0,9,0,3,0,3,0,,,,,,,,,,,,,,,,,1058.5778224999085,None,1059.3447607997805,1059.9449821999297,1059.9284937998746,1061.9291770998389,None,1,0.6136194900609553,2.6142874900251627,decreament,0.6,11,standard,None,100,,,,,,,,m,23,206,fr,r,0,raw,2022-05-18_14h58.06.087,oddball,2022.1.2,59.97303611313711,
5,,,,,0,0,0,1,9,0,9,0,4,0,4,0,,,,,,,,,,,,,,,,,1061.945768199861,None,1062.5797827998176,1063.179647399811,1063.1629810999148,1065.1636641998775,None,1,0.6106081900652498,2.611268490087241,decreament,0.6,11,standard,None,100,,,,,,,,m,23,206,fr,r,0,raw,2022-05-18_14h58.06.087,oddball,2022.1.2,59.97303611313711,
5,,,,,0,0,0,1,9,0,9,0,5,0,5,0,,,,,,,,,,,,,,,,,1065.18029199983,None,1065.9139984999783,1066.514474599855,1066.4977033999749,1068.4985526998062,None,1,0.6083577899262309,2.609266590094194,decreament,0.6,11,standard,None,100,,,,,,,,m,23,206,fr,r,0,raw,2022-05-18_14h58.06.087,oddball,2022.1.2,59.97303611313711,
5,,,,,0,0,0,1,9,0,9,0,6,0,6,0,,,,,,,,,,,,,,,,,1068.515216899803,None,1069.0984556998592,1069.6989189998712,1069.682413799921,1071.6830237999093,None,1,0.6129296901635826,2.6135002900846303,decreament,0.6,11,standard,None,100,,,,,,,,m,23,206,fr,r,0,raw,2022-05-18_14h58.06.087,oddball,2022.1.2,59.97303611313711,
5,,,,,0,0,0,1,9,0,9,0,7,0,7,0,,,,,,,,,,,,,,,,,1071.6995859998278,None,1072.2997129999567,1072.9001397998072,1072.8836599998176,1074.8838191998657,None,1,0.6133013900835067,2.6133544899057597,decreament,0.6,11,standard,None,100,,,,,,,,m,23,206,fr,r,0,raw,2022-05-18_14h58.06.087,oddball,2022.1.2,59.97303611313711,
5,,,,,0,0,0,1,9,0,9,0,8,0,8,0,,,,,,,,,,,,,,,,,1074.9008565999102,None,1075.6511535998434,1076.2517527998425,1076.234560499899,1078.2357274999376,None,1,0.6103023898322135,2.6114866898860782,decreament,0.6,11,standard,None,100,,,,,,,,m,23,206,fr,r,0,raw,2022-05-18_14h58.06.087,oddball,2022.1.2,59.97303611313711,
5,,,,,0,0,0,1,9,0,9,0,9,0,9,0,,,,,,,,,,,,,,,,,1078.251868599793,None,1078.9024248998612,1079.502118999837,1079.4861751999706,1081.4863717998378,None,1,0.612668989924714,2.612835389794782,decreament,0.6,11,standard,None,100,,,,,,,,m,23,206,fr,r,0,raw,2022-05-18_14h58.06.087,oddball,2022.1.2,59.97303611313711,
5,,,,,0,0,0,1,9,0,9,0,10,0,10,0,,,,,,,,,,,,,,,,,1081.5032083999831,None,1082.1704229000024,1082.7705276999623,1082.7536469998304,1084.754857899854,None,1,0.6092640899587423,2.6105199898593128,decreament,0.6,11,standard,None,100,,,,,,,,m,23,206,fr,r,0,raw,2022-05-18_14h58.06.087,oddball,2022.1.2,59.97303611313711,
5,,,,,0,0,0,1,9,0,9,0,11,0,11,0,,,,,,,,,,,,,,,,,1084.7717438999098,None,1085.4384524999186,1086.0380740999244,1086.021553199971,1088.022505799774,None,1,0.6113539899233729,2.6123628898058087,decreament,0.6,11,standard,None,100,,,,,,,,m,23,206,fr,r,0,raw,2022-05-18_14h58.06.087,oddball,2022.1.2,59.97303611313711,
5,,,,,0,0,0,1,9,0,9,0,12,0,12,0,,,,,,,,,,,,,,,,,1088.0395228997804,None,1088.8232863999438,1089.4230605999473,1089.4063637999352,1091.4070035999175,None,1,0.6095824900548905,2.610203590011224,decreament,0.6,11,standard,None,100,,,,,,,,m,23,206,fr,r,0,raw,2022-05-18_14h58.06.087,oddball,2022.1.2,59.97303611313711,
5,,,,,0,0,0,1,9,0,9,0,13,0,13,0,,,,,,,,,,,,,,,,,1091.4238038999029,None,1092.073937199777,1092.6741078998893,1092.6574675999582,1094.6581500999164,None,1,0.612761789932847,2.6134492899291217,decreament,0.6,11,standard,None,100,,,,,,,,m,23,206,fr,r,0,raw,2022-05-18_14h58.06.087,oddball,2022.1.2,59.97303611313711,
5,,,,,0,0,0,1,9,0,9,0,14,0,14,0,,,,,,,,,,,,,,,,,1094.6749168999959,None,1095.2917961999774,1095.892307400005,1095.8755226999056,1097.8760209998582,None,1,0.613258589990437,2.6137200898956507,decreament,0.6,11,standard,None,100,,,,,,,,m,23,206,fr,r,0,raw,2022-05-18_14h58.06.087,oddball,2022.1.2,59.97303611313711,
5,,,,,0,0,0,1,9,0,9,0,15,0,15,0,,,,,,,,,,,,,,,,,1097.8928811999504,None,1098.593056099955,1099.1933336998336,1099.1768723998684,1101.1773509997874,None,1,0.6126998900435865,2.613123090006411,decreament,0.6,11,standard,None,100,,,,,,,,m,23,206,fr,r,0,raw,2022-05-18_14h58.06.087,oddball,2022.1.2,59.97303611313711,
5,,,,,0,0,0,1,9,0,9,0,16,0,16,0,,,,,,,,,,,,,,,,,1101.1939205999952,None,1101.8442791998386,1102.4444955999497,1102.4278446999379,1104.4283338999376,None,1,0.6136514898389578,2.614103589905426,decreament,0.6,11,standard,None,100,,,,,,,,m,23,206,fr,r,0,raw,2022-05-18_14h58.06.087,oddball,2022.1.2,59.97303611313711,
5,,,,,0,0,0,1,9,0,9,0,17,0,17,0,,,,,,,,,,,,,,,,,1104.4452809998766,None,1104.9955135998316,1105.3623633999377,1105.3292105998844,1107.3299343998078,j,1,0.3610708899796009,2.3622580899391323,decreament,0.36,13,oddball,j,60,,,0.9553835003171116,,,,,m,23,206,fr,r,0,raw,2022-05-18_14h58.06.087,oddball,2022.1.2,59.97303611313711,
5,,,,,0,0,0,1,9,0,9,0,18,0,18,0,,,,,,,,,,,,,,,,,1107.3463282999583,None,1107.9634223999456,1108.5633444997948,1108.546828799881,1110.547456299886,None,1,0.6130880897399038,2.6137130898423493,decreament,0.6,11,standard,None,100,,,,,,,,m,23,206,fr,r,0,raw,2022-05-18_14h58.06.087,oddball,2022.1.2,59.97303611313711,
5,,,,,0,0,0,1,9,0,9,0,19,0,19,0,,,,,,,,,,,,,,,,,1110.5643119998276,None,1111.1147598999087,1111.7147293000016,1111.6979867999908,1113.6992395999841,None,1,0.6091012901160866,2.6104225900489837,decreament,0.6,11,standard,None,100,,,,,,,,m,23,206,fr,r,0,raw,2022-05-18_14h58.06.087,oddball,2022.1.2,59.97303611313711,
5,,,,,0,0,0,1,9,0,9,0,20,0,20,0,,,,,,,,,,,,,,,,,1113.7164164998103,None,1114.382192299934,1114.9826279999688,1114.9659921999555,1116.9665695999283,None,1,0.6117889899760485,2.6123179900459945,decreament,0.6,11,standard,None,100,,,,,,,,m,23,206,fr,r,0,raw,2022-05-18_14h58.06.087,oddball,2022.1.2,59.97303611313711,
5,,,,,0,0,0,1,9,0,9,0,21,0,21,0,,,,,,,,,,,,,,,,,1116.9831679998897,None,1117.7004902998451,1117.9501382999588,1117.917225799989,1119.9176829999778,j,1,0.24400038993917406,2.2444341899827123,decreament,0.24,12,oddball,j,40,,,0.902994500240311,,,,,m,23,206,fr,r,0,raw,2022-05-18_14h58.06.087,oddball,2022.1.2,59.97303611313711,
5,,,,,0,0,0,1,9,0,9,0,22,0,22,0,,,,,,,,,,,,,,,,,1119.9342208998278,None,1120.818582399981,1121.4184514998924,1121.4017499999609,1123.4025508998893,None,1,0.6098210897762328,2.6106197896879166,decreament,0.6,11,standard,None,100,,,,,,,,m,23,206,fr,r,0,raw,2022-05-18_14h58.06.087,oddball,2022.1.2,59.97303611313711,
5,,,,,0,0,0,1,9,0,9,0,23,0,23,0,,,,,,,,,,,,,,,,,1123.419184499886,None,1124.219657999929,1124.8198861998972,1124.803242099937,1126.804018399911,None,1,0.6103384897578508,2.6110980899538845,decreament,0.6,11,standard,None,100,,,,,,,,m,23,206,fr,r,0,raw,2022-05-18_14h58.06.087,oddball,2022.1.2,59.97303611313711,
5,,,,,0,0,0,1,9,0,9,0,24,0,24,0,,,,,,,,,,,,,,,,,1126.820322799962,None,1127.487187599996,1128.088095399784,1128.0709802999627,1130.0716468999162,None,1,0.6133948899805546,2.614028190029785,decreament,0.6,11,standard,None,100,,,,,,,,m,23,206,fr,r,0,raw,2022-05-18_14h58.06.087,oddball,2022.1.2,59.97303611313711,
5,,,,,0,0,0,1,9,0,9,0,25,0,25,0,,,,,,,,,,,,,,,,,1130.0883540997747,None,1130.8552544999402,1131.4552501998842,1131.4392537998501,1133.4395875998307,None,1,0.6133438898250461,2.613661089912057,decreament,0.6,11,standard,None,100,,,,,,,,m,23,206,fr,r,0,raw,2022-05-18_14h58.06.087,oddball,2022.1.2,59.97303611313711,
5,,,,,0,0,0,1,9,0,9,0,26,0,26,0,,,,,,,,,,,,,,,,,1133.456365399994,None,1134.3733254999388,1134.9733515998814,1134.9570831998717,1136.9577738998923,None,1,0.6127688898704946,2.6134701897390187,decreament,0.6,11,standard,None,100,,,,,,,,m,23,206,fr,r,0,raw,2022-05-18_14h58.06.087,oddball,2022.1.2,59.97303611313711,
5,,,,,0,0,0,1,9,0,9,0,27,0,27,0,,,,,,,,,,,,,,,,,1136.974097599974,None,1137.6080285999924,1138.2081434999127,1138.1914710998535,1140.1920945998281,None,1,0.6124107900541276,2.613047890132293,decreament,0.6,11,standard,None,100,,,,,,,,m,23,206,fr,r,0,raw,2022-05-18_14h58.06.087,oddball,2022.1.2,59.97303611313711,
5,,,,,0,0,0,1,9,0,9,0,28,0,28,0,,,,,,,,,,,,,,,,,1140.209100899985,None,1140.8756669999566,1141.3593732998706,1141.32604179997,1143.3265155998524,j,1,0.48109078989364207,2.481585789937526,decreament,0.48,14,oddball,j,80,,,1.134080700110644,,,,,m,23,206,fr,r,0,raw,2022-05-18_14h58.06.087,oddball,2022.1.2,59.97303611313711,
5,,,,,0,0,0,1,9,0,9,0,29,0,29,0,,,,,,,,,,,,,,,,,1143.3434187998064,None,1144.1602627998218,1144.7603687997907,1144.744094699854,1146.7444733998273,None,1,0.61034419038333,2.610744090285152,decreament,0.6,11,standard,None,100,,,,,,,,m,23,206,fr,r,0,raw,2022-05-18_14h58.06.087,oddball,2022.1.2,59.97303611313711,
0,,,,,0,1,1,0,0,0,0,0,0,0,0,0,,,,,,,,,,,,,,,1328.2191592999734,None,1329.831230999902,None,1330.5311547999736,1331.1312001999468,1331.114561199909,1333.1150993998162,None,1,0.6083933901973069,2.6089254901744425,increament,0.6,5,standard,None,100,1326.7795628998429,None,,1146.7752490998246,None,,,m,23,206,fr,r,0,raw,2022-05-18_14h58.06.087,oddball,2022.1.2,59.97303611313711,
0,,,,,0,1,1,0,0,0,0,0,1,0,1,0,,,,,,,,,,,,,,,,,1333.1319734998979,None,1333.665535699809,1334.2661833998282,1334.2492107998114,1336.249909899896,None,1,0.6129428900312632,2.613636489957571,increament,0.6,5,standard,None,100,,,,,,,,m,23,206,fr,r,0,raw,2022-05-18_14h58.06.087,oddball,2022.1.2,59.97303611313711,
0,,,,,0,1,1,0,0,0,0,0,2,0,2,0,,,,,,,,,,,,,,,,,1336.2664864999242,None,1337.0999594999012,1337.7001569999848,1337.683712599799,1339.6849146999884,None,1,0.61261789011769,2.6139506900217384,increament,0.6,5,standard,None,100,,,,,,,,m,23,206,fr,r,0,raw,2022-05-18_14h58.06.087,oddball,2022.1.2,59.97303611313711,
0,,,,,0,1,1,0,0,0,0,0,3,0,3,0,,,,,,,,,,,,,,,,,1339.7010065999348,None,1340.3350644998718,1340.9352164999582,1340.9186648000032,1342.918758199783,None,1,0.6098574898205698,2.609868889907375,increament,0.6,5,standard,None,100,,,,,,,,m,23,206,fr,r,0,raw,2022-05-18_14h58.06.087,oddball,2022.1.2,59.97303611313711,
0,,,,,0,1,1,0,0,0,0,0,4,0,4,0,,,,,,,,,,,,,,,,,1342.9356830997858,None,1343.6862408998422,1344.2862113998272,1344.2696345997974,1346.2702681999654,None,1,0.6096838901285082,2.6102553899399936,increament,0.6,5,standard,None,100,,,,,,,,m,23,206,fr,r,0,raw,2022-05-18_14h58.06.087,oddball,2022.1.2,59.97303611313711,
0,,,,,0,1,1,0,0,0,0,0,5,0,5,0,,,,,,,,,,,,,,,,,1346.2868099999614,None,1346.8040136999916,1347.4039399998728,1347.3874454998877,1349.3883117998485,None,1,0.6106374899391085,2.6115542899351567,increament,0.6,5,standard,None,100,,,,,,,,m,23,206,fr,r,0,raw,2022-05-18_14h58.06.087,oddball,2022.1.2,59.97303611313711,
0,,,,,0,1,1,0,0,0,0,0,6,0,6,0,,,,,,,,,,,,,,,,,1349.4047431999352,None,1350.0052139000036,1350.9720340999775,1350.9390684999526,1352.939259499777,j,1,0.9597474900074303,2.95993609004654,increament,0.96,8,oddball,j,160,,,0.8649595000315458,,,,,m,23,206,fr,r,0,raw,2022-05-18_14h58.06.087,oddball,2022.1.2,59.97303611313711,
0,,,,,0,1,1,0,0,0,0,0,7,0,7,0,,,,,,,,,,,,,,,,,1352.9560167999007,None,1353.7232443999965,1354.322985699866,1354.3065542997792,1356.3075481997803,None,1,0.6102867901790887,2.6113383900374174,increament,0.6,5,standard,None,100,,,,,,,,m,23,206,fr,r,0,raw,2022-05-18_14h58.06.087,oddball,2022.1.2,59.97303611313711,
0,,,,,0,1,1,0,0,0,0,0,8,0,8,0,,,,,,,,,,,,,,,,,1356.3245498999022,None,1356.9743236999493,1357.574282999849,1357.55778669985,1359.5585994999856,None,1,0.6094603899400681,2.61028898996301,increament,0.6,5,standard,None,100,,,,,,,,m,23,206,fr,r,0,raw,2022-05-18_14h58.06.087,oddball,2022.1.2,59.97303611313711,
0,,,,,0,1,1,0,0,0,0,0,9,0,9,0,,,,,,,,,,,,,,,,,1359.575199799845,None,1360.25906439987,1360.8592662999872,1360.842700399924,1362.8430023998953,None,1,0.6120018898509443,2.612249889643863,increament,0.6,5,standard,None,100,,,,,,,,m,23,206,fr,r,0,raw,2022-05-18_14h58.06.087,oddball,2022.1.2,59.97303611313711,
0,,,,,0,1,1,0,0,0,0,0,10,0,10,0,,,,,,,,,,,,,,,,,1362.8595378999598,None,1363.476986899972,1364.076890999917,1364.0604145999532,1366.0610203999095,None,1,0.6113095900509506,2.6119363899342716,increament,0.6,5,standard,None,100,,,,,,,,m,23,206,fr,r,0,raw,2022-05-18_14h58.06.087,oddball,2022.1.2,59.97303611313711,
0,,,,,0,1,1,0,0,0,0,0,11,0,11,0,,,,,,,,,,,,,,,,,1366.07764709997,None,1366.7282323997933,1367.3284814998042,1367.3114981998224,1369.3120740999002,None,1,0.6121695900801569,2.6127195900771767,increament,0.6,5,standard,None,100,,,,,,,,m,23,206,fr,r,0,raw,2022-05-18_14h58.06.087,oddball,2022.1.2,59.97303611313711,
0,,,,,0,1,1,0,0,0,0,0,12,0,12,0,,,,,,,,,,,,,,,,,1369.3289086997975,None,1369.9793468997814,1370.5795228998177,1370.5631093999837,1372.5633723998908,None,1,0.6103899902664125,2.6106115903239697,increament,0.6,5,standard,None,100,,,,,,,,m,23,206,fr,r,0,raw,2022-05-18_14h58.06.087,oddball,2022.1.2,59.97303611313711,
0,,,,,0,1,1,0,0,0,0,0,13,0,13,0,,,,,,,,,,,,,,,,,1372.5801778999157,None,1373.3472265999299,1373.947725799866,1373.9309111998882,1375.9317158998456,None,1,0.6125958901830018,2.613381290109828,increament,0.6,5,standard,None,100,,,,,,,,m,23,206,fr,r,0,raw,2022-05-18_14h58.06.087,oddball,2022.1.2,59.97303611313711,
0,,,,,0,1,1,0,0,0,0,0,14,0,14,0,,,,,,,,,,,,,,,,,1375.9484400998335,None,1376.6652578997891,1377.2657836999279,1377.248654199997,1379.2493038999382,None,1,0.610226389952004,2.6108328900299966,increament,0.6,5,standard,None,100,,,,,,,,m,23,206,fr,r,0,raw,2022-05-18_14h58.06.087,oddball,2022.1.2,59.97303611313711,
