grating_freq,blocks_prac.thisRepN,blocks_prac.thisTrialN,blocks_prac.thisN,blocks_prac.thisIndex,blocks.thisRepN,blocks.thisTrialN,blocks.thisN,blocks.thisIndex,repeat_freq.thisRepN,repeat_freq.thisTrialN,repeat_freq.thisN,repeat_freq.thisIndex,trials.thisRepN,trials.thisTrialN,trials.thisN,trials.thisIndex,break_loop.thisRepN,break_loop.thisTrialN,break_loop.thisN,break_loop.thisIndex,rest_loop.thisRepN,rest_loop.thisTrialN,rest_loop.thisN,rest_loop.thisIndex,instruct_prac_text.started,instruct_prac_text.stopped,b_instruct_text_2_.started,b_instruct_text_2_.stopped,prac_done_text.started,prac_done_text.stopped,instruct_text.started,instruct_text.stopped,fixation.started,fixation.stopped,grating.started,grating.stopped,blank.started,blank.stopped,resp.keys,resp.corr,resp.started,resp.stopped,direction,duration,trigger,stim_type,corr_ans,scaling,resp.rt,rest_text.started,rest_text.stopped,text_2.started,text_2.stopped,thx_txt.started,thx_txt.stopped,gender,age,participant,language,main_hand,nBlock_prac,file_suffix,date,expName,psychopyVersion,frameRate,
0,,,,,0,0,0,0,0,0,0,0,0,0,0,0,,,,,,,,,35.21768260002136,None,131.08045090013184,None,144.74013340007514,None,161.27858830010518,None,169.7277846999932,None,170.48152910009958,171.09490090003237,171.04540170007385,173.04591720015742,None,1,0.6146328900940716,2.615167090203613,increament,0.6,5,standard,None,100,,,,,,,,m,22,209,fr,r,0,raw,2022-05-20_14h22.25.056,oddball,2022.1.2,59.91450201025426,
0,,,,,0,0,0,0,0,0,0,0,1,0,1,0,,,,,,,,,,,,,,,,,173.06487340014428,None,173.7295314001385,174.32956110010855,174.31312580010854,176.31390890013427,None,1,0.6127537901047617,2.613569990033284,increament,0.6,5,standard,None,100,,,,,,,,m,22,209,fr,r,0,raw,2022-05-20_14h22.25.056,oddball,2022.1.2,59.91450201025426,
0,,,,,0,0,0,0,0,0,0,0,2,0,2,0,,,,,,,,,,,,,,,,,176.3302373001352,None,177.14761880016886,177.74735940014943,177.73076590010896,179.73168770014308,None,1,0.6120104901492596,2.612945589935407,increament,0.6,5,standard,None,100,,,,,,,,m,22,209,fr,r,0,raw,2022-05-20_14h22.25.056,oddball,2022.1.2,59.91450201025426,
0,,,,,0,0,0,0,0,0,0,0,3,0,3,0,,,,,,,,,,,,,,,,,179.7483143999707,None,180.54913119995035,181.14932920015417,181.13221950014122,183.1331015001051,None,1,0.6096005900762975,2.6105023899581283,increament,0.6,5,standard,None,100,,,,,,,,m,22,209,fr,r,0,raw,2022-05-20_14h22.25.056,oddball,2022.1.2,59.91450201025426,
0,,,,,0,0,0,0,0,0,0,0,4,0,4,0,,,,,,,,,,,,,,,,,183.1505573000759,None,183.74984579999,184.35015990003012,184.3338085000869,186.33428670000285,None,1,0.612005989998579,2.6124855899251997,increament,0.6,5,standard,None,100,,,,,,,,m,22,209,fr,r,0,raw,2022-05-20_14h22.25.056,oddball,2022.1.2,59.91450201025426,
0,,,,,0,0,0,0,0,0,0,0,5,0,5,0,,,,,,,,,,,,,,,,,186.35189180006273,None,186.9510371000506,187.55134780006483,187.53500360017642,189.5353182000108,None,1,0.6127269901335239,2.6129747899249196,increament,0.6,5,standard,None,100,,,,,,,,m,22,209,fr,r,0,raw,2022-05-20_14h22.25.056,oddball,2022.1.2,59.91450201025426,
0,,,,,0,0,0,0,0,0,0,0,6,0,6,0,,,,,,,,,,,,,,,,,189.55192280001938,None,190.15232640015893,190.752961399965,190.73609929997474,192.73669690010138,None,1,0.6126202901359648,2.613173290155828,increament,0.6,5,standard,None,100,,,,,,,,m,22,209,fr,r,0,raw,2022-05-20_14h22.25.056,oddball,2022.1.2,59.91450201025426,
0,,,,,0,0,0,0,0,0,0,0,7,0,7,0,,,,,,,,,,,,,,,,,192.75342510011978,None,193.536837000167,194.50380680011585,194.4704931001179,196.47191020008177,j,1,0.9592760899104178,2.960784289985895,increament,0.96,8,oddball,j,160,1.2116319998167455,,,,,,,m,22,209,fr,r,0,raw,2022-05-20_14h22.25.056,oddball,2022.1.2,59.91450201025426,
0,,,,,0,0,0,0,0,0,0,0,8,0,8,0,,,,,,,,,,,,,,,,,196.49097279994749,None,197.0382739000488,197.63852509995922,197.62166850012727,199.6229191001039,None,1,0.6103704900015146,2.611683189868927,increament,0.6,5,standard,None,100,,,,,,,,m,22,209,fr,r,0,raw,2022-05-20_14h22.25.056,oddball,2022.1.2,59.91450201025426,
0,,,,,0,0,0,0,0,0,0,0,9,0,9,0,,,,,,,,,,,,,,,,,199.63985370006412,None,200.32322759996168,200.9235094001051,200.90681549999863,202.90734170004725,j,0,0.612838689936325,2.6133624899666756,increament,0.6,5,standard,None,100,0.941575099946931,,,,,,,m,22,209,fr,r,0,raw,2022-05-20_14h22.25.056,oddball,2022.1.2,59.91450201025426,
0,,,,,0,0,0,0,0,0,0,0,10,0,10,0,,,,,,,,,,,,,,,,,202.92470269999467,None,203.64134880015627,204.2409926999826,204.22438660007901,206.22503880015574,None,1,0.6103026899509132,2.6109346898738295,increament,0.6,5,standard,None,100,,,,,,,,m,22,209,fr,r,0,raw,2022-05-20_14h22.25.056,oddball,2022.1.2,59.91450201025426,
0,,,,,0,0,0,0,0,0,0,0,11,0,11,0,,,,,,,,,,,,,,,,,206.24191470001824,None,206.99240320012905,207.59209350007586,207.5756690001581,209.5765362000093,None,1,0.6124649900011718,2.6133857897948474,increament,0.6,5,standard,None,100,,,,,,,,m,22,209,fr,r,0,raw,2022-05-20_14h22.25.056,oddball,2022.1.2,59.91450201025426,
0,,,,,0,0,0,0,0,0,0,0,12,0,12,0,,,,,,,,,,,,,,,,,209.59307659999467,None,210.1267457001377,210.72700710012577,210.71020960016176,212.71126230014488,None,1,0.6112846899777651,2.612404089886695,increament,0.6,5,standard,None,100,,,,,,,,m,22,209,fr,r,0,raw,2022-05-20_14h22.25.056,oddball,2022.1.2,59.91450201025426,
0,,,,,0,0,0,0,0,0,0,0,13,0,13,0,,,,,,,,,,,,,,,,,212.7284697999712,None,213.4448991001118,214.04516270011663,214.02814520010725,216.02881809999235,None,1,0.609354390297085,2.609990290366113,increament,0.6,5,standard,None,100,,,,,,,,m,22,209,fr,r,0,raw,2022-05-20_14h22.25.056,oddball,2022.1.2,59.91450201025426,
0,,,,,0,0,0,0,0,0,0,0,14,0,14,0,,,,,,,,,,,,,,,,,216.04545990005136,None,216.64575859997422,217.24573450000025,217.22928850003518,219.2301710001193,j,0,0.6087605899665505,2.609814489958808,increament,0.6,5,standard,None,100,0.9955666000023484,,,,,,,m,22,209,fr,r,0,raw,2022-05-20_14h22.25.056,oddball,2022.1.2,59.91450201025426,
0,,,,,0,0,0,0,0,0,0,0,15,0,15,0,,,,,,,,,,,,,,,,,219.24658500007354,None,219.93019960005768,220.53043860010803,220.51367050013505,222.51438140007667,None,1,0.6101481900550425,2.610906290123239,increament,0.6,5,standard,None,100,,,,,,,,m,22,209,fr,r,0,raw,2022-05-20_14h22.25.056,oddball,2022.1.2,59.91450201025426,
0,,,,,0,0,0,0,0,0,0,0,16,0,16,0,,,,,,,,,,,,,,,,,222.53135620011017,None,223.11525600007735,223.7147778000217,223.69827890000306,225.69927940005437,None,1,0.6093202899210155,2.610447690123692,increament,0.6,5,standard,None,100,,,,,,,,m,22,209,fr,r,0,raw,2022-05-20_14h22.25.056,oddball,2022.1.2,59.91450201025426,
0,,,,,0,0,0,0,0,0,0,0,17,0,17,0,,,,,,,,,,,,,,,,,225.7163659001235,None,226.4992315999698,227.23302570008673,227.1999802000355,229.2008410000708,j,1,0.7315784899983555,2.7324309898540378,increament,0.72,6,oddball,j,120,0.47260340000502765,,,,,,,m,22,209,fr,r,0,raw,2022-05-20_14h22.25.056,oddball,2022.1.2,59.91450201025426,
0,,,,,0,0,0,0,0,0,0,0,18,0,18,0,,,,,,,,,,,,,,,,,229.21697299997322,None,230.00094010005705,230.6005745001603,230.5839315999765,232.58554610004649,None,1,0.609169390052557,2.610884489957243,increament,0.6,5,standard,None,100,,,,,,,,m,22,209,fr,r,0,raw,2022-05-20_14h22.25.056,oddball,2022.1.2,59.91450201025426,
0,,,,,0,0,0,0,0,0,0,0,19,0,19,0,,,,,,,,,,,,,,,,,232.6025044999551,None,233.13515700004064,233.73557560006157,233.7190406001173,235.71996500017121,None,1,0.6143774900119752,2.615303189959377,increament,0.6,5,standard,None,100,,,,,,,,m,22,209,fr,r,0,raw,2022-05-20_14h22.25.056,oddball,2022.1.2,59.91450201025426,
0,,,,,0,0,0,0,0,0,0,0,20,0,20,0,,,,,,,,,,,,,,,,,235.73618470015936,None,236.28659310005605,236.88688910007477,236.8702847000677,238.87093500001356,None,1,0.6123723902273923,2.6130569900851697,increament,0.6,5,standard,None,100,,,,,,,,m,22,209,fr,r,0,raw,2022-05-20_14h22.25.056,oddball,2022.1.2,59.91450201025426,
0,,,,,0,0,0,0,0,0,0,0,21,0,21,0,,,,,,,,,,,,,,,,,238.88840549997985,None,239.5211672000587,240.12101160013117,240.10452800011262,242.1054072000552,None,1,0.6123120898846537,2.613285389961675,increament,0.6,5,standard,None,100,,,,,,,,m,22,209,fr,r,0,raw,2022-05-20_14h22.25.056,oddball,2022.1.2,59.91450201025426,
0,,,,,0,0,0,0,0,0,0,0,22,0,22,0,,,,,,,,,,,,,,,,,242.12177229998633,None,243.10552770015784,243.70633359998465,243.68938860017806,245.69043670012616,None,1,0.6108667901717126,2.61192659009248,increament,0.6,5,standard,None,100,,,,,,,,m,22,209,fr,r,0,raw,2022-05-20_14h22.25.056,oddball,2022.1.2,59.91450201025426,
0,,,,,0,0,0,0,0,0,0,0,23,0,23,0,,,,,,,,,,,,,,,,,245.70648539997637,None,246.49031749996357,247.0909589000512,247.07414539996535,249.07482770015486,None,1,0.6092984899878502,2.6099013900384307,increament,0.6,5,standard,None,100,,,,,,,,m,22,209,fr,r,0,raw,2022-05-20_14h22.25.056,oddball,2022.1.2,59.91450201025426,
0,,,,,0,0,0,0,0,0,0,0,24,0,24,0,,,,,,,,,,,,,,,,,249.09130820003338,None,249.79153709998354,250.39169259998016,250.3749744000379,252.37566739995964,None,1,0.6105944898445159,2.6112900897860527,increament,0.6,5,standard,None,100,,,,,,,,m,22,209,fr,r,0,raw,2022-05-20_14h22.25.056,oddball,2022.1.2,59.91450201025426,
0,,,,,0,0,0,0,0,0,0,0,25,0,25,0,,,,,,,,,,,,,,,,,252.39246060000733,None,253.19281650008634,253.79295080015436,253.77655509999022,255.7771707000211,None,1,0.6125961900688708,2.6132065900601447,increament,0.6,5,standard,None,100,,,,,,,,m,22,209,fr,r,0,raw,2022-05-20_14h22.25.056,oddball,2022.1.2,59.91450201025426,
0,,,,,0,0,0,0,0,0,0,0,26,0,26,0,,,,,,,,,,,,,,,,,255.79388070013374,None,256.46094799996354,257.0607472001575,257.0442703999579,259.0447830001358,None,1,0.6091868898365647,2.609638090012595,increament,0.6,5,standard,None,100,,,,,,,,m,22,209,fr,r,0,raw,2022-05-20_14h22.25.056,oddball,2022.1.2,59.91450201025426,
0,,,,,0,0,0,0,0,0,0,0,27,0,27,0,,,,,,,,,,,,,,,,,259.06151260016486,None,259.7789479000494,260.37891600001603,260.3624609000981,262.36321229999885,None,1,0.6112871901132166,2.612118490273133,increament,0.6,5,standard,None,100,,,,,,,,m,22,209,fr,r,0,raw,2022-05-20_14h22.25.056,oddball,2022.1.2,59.91450201025426,
0,,,,,0,0,0,0,0,0,0,0,28,0,28,0,,,,,,,,,,,,,,,,,262.38058939995244,None,263.0134958999697,263.6134313000366,263.59729099995457,265.5974604000803,None,1,0.6098690899088979,2.60995148983784,increament,0.6,5,standard,None,100,,,,,,,,m,22,209,fr,r,0,raw,2022-05-20_14h22.25.056,oddball,2022.1.2,59.91450201025426,
0,,,,,0,0,0,0,0,0,0,0,29,0,29,0,,,,,,,,,,,,,,,,,265.61392690008506,None,266.431137500098,267.2816002999898,267.24815500015393,269.2489448999986,j,1,0.8457209898624569,2.8465755900833756,increament,0.84,7,oddball,j,140,0.496631900081411,,,,,,,m,22,209,fr,r,0,raw,2022-05-20_14h22.25.056,oddball,2022.1.2,59.91450201025426,
0,,,,,0,0,0,0,1,0,1,0,0,0,0,0,,,,,,,,,,,,,,,290.8233682999853,None,296.4757848000154,None,297.0599857000634,297.6596232999582,297.6431859000586,299.64373890007846,None,1,0.6086396898608655,2.609215789940208,decreament,0.6,1,standard,None,100,,269.26780310017057,None,,,,,m,22,209,fr,r,0,raw,2022-05-20_14h22.25.056,oddball,2022.1.2,59.91450201025426,
0,,,,,0,0,0,0,1,0,1,0,1,0,1,0,,,,,,,,,,,,,,,,,299.66069869999774,None,300.21053150016814,300.8110946000088,300.7944571999833,302.7951589000877,None,1,0.613996289903298,2.6147103898692876,decreament,0.6,1,standard,None,100,,,,,,,,m,22,209,fr,r,0,raw,2022-05-20_14h22.25.056,oddball,2022.1.2,59.91450201025426,
0,,,,,0,0,0,0,1,0,1,0,2,0,2,0,,,,,,,,,,,,,,,,,302.81140620005317,None,303.3455001001712,303.94531830004416,303.9287209000904,305.9298273001332,None,1,0.610844390001148,2.6119947899132967,decreament,0.6,1,standard,None,100,,,,,,,,m,22,209,fr,r,0,raw,2022-05-20_14h22.25.056,oddball,2022.1.2,59.91450201025426,
0,,,,,0,0,0,0,1,0,1,0,3,0,3,0,,,,,,,,,,,,,,,,,305.9462223001756,None,306.62968780007213,307.229714800138,307.2131026999559,309.21390570001677,None,1,0.6122891900595278,2.6131175900809467,decreament,0.6,1,standard,None,100,,,,,,,,m,22,209,fr,r,0,raw,2022-05-20_14h22.25.056,oddball,2022.1.2,59.91450201025426,
0,,,,,0,0,0,0,1,0,1,0,4,0,4,0,,,,,,,,,,,,,,,,,309.2306149001233,None,309.84748670016415,310.4477264001034,310.43161229998805,312.4320174001623,None,1,0.6127595899160951,2.6131646898575127,decreament,0.6,1,standard,None,100,,,,,,,,m,22,209,fr,r,0,raw,2022-05-20_14h22.25.056,oddball,2022.1.2,59.91450201025426,
0,,,,,0,0,0,0,1,0,1,0,5,0,5,0,,,,,,,,,,,,,,,,,312.44865250005387,None,313.1328263999894,313.49881290015765,313.4655941000674,315.46628709998913,j,1,0.3605601896997541,2.361245189793408,decreament,0.36,3,oddball,j,60,0.7817695999983698,,,,,,,m,22,209,fr,r,0,raw,2022-05-20_14h22.25.056,oddball,2022.1.2,59.91450201025426,
0,,,,,0,0,0,0,1,0,1,0,6,0,6,0,,,,,,,,,,,,,,,,,315.4833921000827,None,316.1668128001038,316.7668372001499,316.75016500009224,318.7507719001733,None,1,0.6104175900109112,2.611004190053791,decreament,0.6,1,standard,None,100,,,,,,,,m,22,209,fr,r,0,raw,2022-05-20_14h22.25.056,oddball,2022.1.2,59.91450201025426,
0,,,,,0,0,0,0,1,0,1,0,7,0,7,0,,,,,,,,,,,,,,,,,318.7677044000011,None,319.48479480016977,320.0851414001081,320.0683065999765,322.06882710009813,None,1,0.6094420899171382,2.6099263897631317,decreament,0.6,1,standard,None,100,,,,,,,,m,22,209,fr,r,0,raw,2022-05-20_14h22.25.056,oddball,2022.1.2,59.91450201025426,
0,,,,,0,0,0,0,1,0,1,0,8,0,8,0,,,,,,,,,,,,,,,,,322.085573800141,None,322.68618680001236,323.2861474000383,323.2696724999696,325.27062120009214,None,1,0.6113788897637278,2.6123454896733165,decreament,0.6,1,standard,None,100,,,,,,,,m,22,209,fr,r,0,raw,2022-05-20_14h22.25.056,oddball,2022.1.2,59.91450201025426,
0,,,,,0,0,0,0,1,0,1,0,9,0,9,0,,,,,,,,,,,,,,,,,325.28727930015884,None,326.08718749997206,326.6874230999965,326.6707961000502,328.6715472000651,None,1,0.6132971895858645,2.6139998896978796,decreament,0.6,1,standard,None,100,,,,,,,,m,22,209,fr,r,0,raw,2022-05-20_14h22.25.056,oddball,2022.1.2,59.91450201025426,
0,,,,,0,0,0,0,1,0,1,0,10,0,10,0,,,,,,,,,,,,,,,,,328.68827400007285,None,329.2381613000762,329.83817850006744,329.8216758000199,331.82273540017195,None,1,0.6134751897770911,2.6146586898248643,decreament,0.6,1,standard,None,100,,,,,,,,m,22,209,fr,r,0,raw,2022-05-20_14h22.25.056,oddball,2022.1.2,59.91450201025426,
0,,,,,0,0,0,0,1,0,1,0,11,0,11,0,,,,,,,,,,,,,,,,,331.8391229000408,None,332.42287899996154,333.02301180013455,333.00642750016414,335.00701010017656,None,1,0.6118088900111616,2.612389490008354,decreament,0.6,1,standard,None,100,,,,,,,,m,22,209,fr,r,0,raw,2022-05-20_14h22.25.056,oddball,2022.1.2,59.91450201025426,
0,,,,,0,0,0,0,1,0,1,0,12,0,12,0,,,,,,,,,,,,,,,,,335.02387559995987,None,335.6411026001442,336.241179500008,336.2244454000611,338.22516300017014,None,1,0.6113786899950355,2.6120800899807364,decreament,0.6,1,standard,None,100,,,,,,,,m,22,209,fr,r,0,raw,2022-05-20_14h22.25.056,oddball,2022.1.2,59.91450201025426,
0,,,,,0,0,0,0,1,0,1,0,13,0,13,0,,,,,,,,,,,,,,,,,338.2416354001034,None,338.7587983000558,339.3589378001634,339.34254480013624,341.34298590011895,j,0,0.6113279899582267,2.6117687900550663,decreament,0.6,1,standard,None,100,1.457484200131148,,,,,,,m,22,209,fr,r,0,raw,2022-05-20_14h22.25.056,oddball,2022.1.2,59.91450201025426,
0,,,,,0,0,0,0,1,0,1,0,14,0,14,0,,,,,,,,,,,,,,,,,341.3601724000182,None,342.0934025000315,342.6933657999616,342.6771591999568,344.677507000044,None,1,0.6111519902478904,2.6114690902177244,decreament,0.6,1,standard,None,100,,,,,,,,m,22,209,fr,r,0,raw,2022-05-20_14h22.25.056,oddball,2022.1.2,59.91450201025426,
0,,,,,0,0,0,0,1,0,1,0,15,0,15,0,,,,,,,,,,,,,,,,,344.6942543000914,None,345.29423250001855,345.8946659001522,345.8781242000405,347.8784323001746,None,1,0.6133236901368946,2.613612290006131,decreament,0.6,1,standard,None,100,,,,,,,,m,22,209,fr,r,0,raw,2022-05-20_14h22.25.056,oddball,2022.1.2,59.91450201025426,
0,,,,,0,0,0,0,1,0,1,0,16,0,16,0,,,,,,,,,,,,,,,,,347.8953038000036,None,348.5789987000171,349.1791987000033,349.16244280012324,351.1629135000985,j,0,0.6127123900223523,2.6131682901177555,decreament,0.6,1,standard,None,100,0.8940808000043035,,,,,,,m,22,209,fr,r,0,raw,2022-05-20_14h22.25.056,oddball,2022.1.2,59.91450201025426,
0,,,,,0,0,0,0,1,0,1,0,17,0,17,0,,,,,,,,,,,,,,,,,351.1795487999916,None,351.8303050000686,352.43021240015514,352.4139358999673,354.41417450015433,None,1,0.6112343901768327,2.611446290044114,decreament,0.6,1,standard,None,100,,,,,,,,m,22,209,fr,r,0,raw,2022-05-20_14h22.25.056,oddball,2022.1.2,59.91450201025426,
0,,,,,0,0,0,0,1,0,1,0,18,0,18,0,,,,,,,,,,,,,,,,,354.4310221001506,None,355.0647672000341,355.66499640000984,355.64842630014755,357.6491857999936,None,1,0.6143619900103658,2.615107989870012,decreament,0.6,1,standard,None,100,,,,,,,,m,22,209,fr,r,0,raw,2022-05-20_14h22.25.056,oddball,2022.1.2,59.91450201025426,
0,,,,,0,0,0,0,1,0,1,0,19,0,19,0,,,,,,,,,,,,,,,,,357.66571690002456,None,358.3494555000216,358.94919100007974,358.93254399998114,360.93358199996874,None,1,0.6121508898213506,2.6131995897740126,decreament,0.6,1,standard,None,100,,,,,,,,m,22,209,fr,r,0,raw,2022-05-20_14h22.25.056,oddball,2022.1.2,59.91450201025426,
0,,,,,0,0,0,0,1,0,1,0,20,0,20,0,,,,,,,,,,,,,,,,,360.95066520012915,None,361.48434740002267,362.0840553001035,362.06764030014165,364.0683051000815,None,1,0.6095253899693489,2.6101724898908287,decreament,0.6,1,standard,None,100,,,,,,,,m,22,209,fr,r,0,raw,2022-05-20_14h22.25.056,oddball,2022.1.2,59.91450201025426,
0,,,,,0,0,0,0,1,0,1,0,21,0,21,0,,,,,,,,,,,,,,,,,364.08474440011196,None,364.7518070000224,365.0016085000243,364.9686410999857,366.9692273000255,None,0,0.24484989000484347,2.245406090049073,decreament,0.24,2,oddball,j,40,,,,,,,,m,22,209,fr,r,0,raw,2022-05-20_14h22.25.056,oddball,2022.1.2,59.91450201025426,
0,,,,,0,0,0,0,1,0,1,0,22,0,22,0,,,,,,,,,,,,,,,,,366.9856930000242,None,367.7699651999865,368.36970100016333,368.3533465000801,370.35369070013985,None,1,0.6111176901031286,2.6114964899607003,decreament,0.6,1,standard,None,100,,,,,,,,m,22,209,fr,r,0,raw,2022-05-20_14h22.25.056,oddball,2022.1.2,59.91450201025426,
0,,,,,0,0,0,0,1,0,1,0,23,0,23,0,,,,,,,,,,,,,,,,,370.37074539996684,None,371.0209059000481,371.6212689001113,371.60459879995324,373.6051819999702,j,0,0.6130953899119049,2.613624389981851,decreament,0.6,1,standard,None,100,0.9716922999359667,,,,,,,m,22,209,fr,r,0,raw,2022-05-20_14h22.25.056,oddball,2022.1.2,59.91450201025426,
0,,,,,0,0,0,0,1,0,1,0,24,0,24,0,,,,,,,,,,,,,,,,,373.62171690003015,None,374.2385931001045,374.83881840016693,374.82225179998204,376.822955599986,None,1,0.6124534902628511,2.613160890294239,decreament,0.6,1,standard,None,100,,,,,,,,m,22,209,fr,r,0,raw,2022-05-20_14h22.25.056,oddball,2022.1.2,59.91450201025426,
0,,,,,0,0,0,0,1,0,1,0,25,0,25,0,,,,,,,,,,,,,,,,,376.83959090011194,None,377.57388589996845,378.17335609998554,378.156769100111,380.1573563001584,None,1,0.608987889951095,2.6095786900259554,decreament,0.6,1,standard,None,100,,,,,,,,m,22,209,fr,r,0,raw,2022-05-20_14h22.25.056,oddball,2022.1.2,59.91450201025426,
0,,,,,0,0,0,0,1,0,1,0,26,0,26,0,,,,,,,,,,,,,,,,,380.1743340000976,None,380.7244508001022,381.20822930010036,381.1916663001757,383.1921491001267,None,0,0.4935723899397999,2.4938236901070923,decreament,0.48,4,oddball,j,80,,,,,,,,m,22,209,fr,r,0,raw,2022-05-20_14h22.25.056,oddball,2022.1.2,59.91450201025426,
0,,,,,0,0,0,0,1,0,1,0,27,0,27,0,,,,,,,,,,,,,,,,,383.2086416000966,None,383.94242010009475,384.542504100129,384.52606189996004,386.52672319998965,None,1,0.6124770899768919,2.613127090036869,decreament,0.6,1,standard,None,100,,,,,,,,m,22,209,fr,r,0,raw,2022-05-20_14h22.25.056,oddball,2022.1.2,59.91450201025426,
0,,,,,0,0,0,0,1,0,1,0,28,0,28,0,,,,,,,,,,,,,,,,,386.54342909995466,None,387.2270611000713,387.8275745001156,387.8107181000523,389.8114426000975,None,1,0.6123093897476792,2.61300038988702,decreament,0.6,1,standard,None,100,,,,,,,,m,22,209,fr,r,0,raw,2022-05-20_14h22.25.056,oddball,2022.1.2,59.91450201025426,
0,,,,,0,0,0,0,1,0,1,0,29,0,29,0,,,,,,,,,,,,,,,,,389.82795860012993,None,390.59494290011935,391.1952154999599,391.1786192001309,393.179176799953,None,1,0.6106153901200742,2.611075090011582,decreament,0.6,1,standard,None,100,,,,,,,,m,22,209,fr,r,0,raw,2022-05-20_14h22.25.056,oddball,2022.1.2,59.91450201025426,
0,,,,,0,0,0,0,2,0,2,0,0,0,0,0,,,,,,,,,,,,,,,499.84275770001113,None,506.53900049999356,None,507.30573990009725,507.906079800101,507.8894186001271,509.89026829996146,None,1,0.6121599900070578,2.613050490152091,increament,0.6,5,standard,None,100,,393.1959514999762,None,,,,,m,22,209,fr,r,0,raw,2022-05-20_14h22.25.056,oddball,2022.1.2,59.91450201025426,
0,,,,,0,0,0,0,2,0,2,0,1,0,1,0,,,,,,,,,,,,,,,,,509.9071933000814,None,510.5070803000126,511.1073129000142,511.0907972001005,513.0914990999736,None,1,0.6104861900676042,2.6111966900061816,increament,0.6,5,standard,None,100,,,,,,,,m,22,209,fr,r,0,raw,2022-05-20_14h22.25.056,oddball,2022.1.2,59.91450201025426,
0,,,,,0,0,0,0,2,0,2,0,2,0,2,0,,,,,,,,,,,,,,,,,513.1080779000185,None,513.858159000054,514.4583684999961,514.4417818000074,516.4425834000576,None,1,0.6091289902105927,2.6099475901573896,increament,0.6,5,standard,None,100,,,,,,,,m,22,209,fr,r,0,raw,2022-05-20_14h22.25.056,oddball,2022.1.2,59.91450201025426,
0,,,,,0,0,0,0,2,0,2,0,3,0,3,0,,,,,,,,,,,,,,,,,516.4591256000567,None,517.059556200169,517.6597548001446,517.6431009001099,519.644347500056,None,1,0.6104592902120203,2.6117642901372164,increament,0.6,5,standard,None,100,,,,,,,,m,22,209,fr,r,0,raw,2022-05-20_14h22.25.056,oddball,2022.1.2,59.91450201025426,
0,,,,,0,0,0,0,2,0,2,0,4,0,4,0,,,,,,,,,,,,,,,,,519.6605430000927,None,520.460771900136,521.0611706001218,521.0445711000357,523.0448737000115,None,1,0.6128348899073899,2.61308259004727,increament,0.6,5,standard,None,100,,,,,,,,m,22,209,fr,r,0,raw,2022-05-20_14h22.25.056,oddball,2022.1.2,59.91450201025426,
0,,,,,0,0,0,0,2,0,2,0,5,0,5,0,,,,,,,,,,,,,,,,,523.0616920001339,None,523.5951978999656,524.1954924000893,524.1787604000419,526.1795123999473,None,1,0.6080888900905848,2.6088247899897397,increament,0.6,5,standard,None,100,,,,,,,,m,22,209,fr,r,0,raw,2022-05-20_14h22.25.056,oddball,2022.1.2,59.91450201025426,
0,,,,,0,0,0,0,2,0,2,0,6,0,6,0,,,,,,,,,,,,,,,,,526.1963719001506,None,526.9301396999508,527.5299546001479,527.513430400053,529.5144025001209,None,1,0.6094577899202704,2.6105166899506003,increament,0.6,5,standard,None,100,,,,,,,,m,22,209,fr,r,0,raw,2022-05-20_14h22.25.056,oddball,2022.1.2,59.91450201025426,
0,,,,,0,0,0,0,2,0,2,0,7,0,7,0,,,,,,,,,,,,,,,,,529.5314178001136,None,530.0645628999919,530.9147006000858,530.8815405999776,532.881973200012,None,0,0.8439479898661375,2.8443781898822635,increament,0.84,7,oddball,j,140,,,,,,,,m,22,209,fr,r,0,raw,2022-05-20_14h22.25.056,oddball,2022.1.2,59.91450201025426,
0,,,,,0,0,0,0,2,0,2,0,8,0,8,0,,,,,,,,,,,,,,,,,532.8991396999918,None,533.6325287001673,534.2325296001509,534.2157900000457,536.216519900132,None,1,0.6129520901013166,2.6136553899850696,increament,0.6,5,standard,None,100,,,,,,,,m,22,209,fr,r,0,raw,2022-05-20_14h22.25.056,oddball,2022.1.2,59.91450201025426,
0,,,,,0,0,0,0,2,0,2,0,9,0,9,0,,,,,,,,,,,,,,,,,536.2332051000558,None,536.9169225001242,537.5171616000589,537.5005044999998,539.501553799957,j,0,0.6117023897822946,2.6127837898675352,increament,0.6,5,standard,None,100,1.3543200001586229,,,,,,,m,22,209,fr,r,0,raw,2022-05-20_14h22.25.056,oddball,2022.1.2,59.91450201025426,
0,,,,,0,0,0,0,2,0,2,0,10,0,10,0,,,,,,,,,,,,,,,,,539.5179471001029,None,540.1678202999756,540.7684627999552,540.7520447999705,542.7525311999489,None,1,0.6147027900442481,2.615072490181774,increament,0.6,5,standard,None,100,,,,,,,,m,22,209,fr,r,0,raw,2022-05-20_14h22.25.056,oddball,2022.1.2,59.91450201025426,
0,,,,,0,0,0,0,2,0,2,0,11,0,11,0,,,,,,,,,,,,,,,,,542.7693805000745,None,543.3361635999754,543.9364547000732,543.9195912000723,545.920686500147,None,1,0.6127366900909692,2.6139186900109053,increament,0.6,5,standard,None,100,,,,,,,,m,22,209,fr,r,0,raw,2022-05-20_14h22.25.056,oddball,2022.1.2,59.91450201025426,
0,,,,,0,0,0,0,2,0,2,0,12,0,12,0,,,,,,,,,,,,,,,,,545.9386577999685,None,546.6375474999659,547.3707839001436,547.3375601000153,549.3385548000224,None,0,0.7271333900280297,2.728240189841017,increament,0.72,6,oddball,j,120,,,,,,,,m,22,209,fr,r,0,raw,2022-05-20_14h22.25.056,oddball,2022.1.2,59.91450201025426,
0,,,,,0,0,0,0,2,0,2,0,13,0,13,0,,,,,,,,,,,,,,,,,549.3551874000113,None,550.0051574001554,550.6054104000796,550.5890232999809,552.5897339000367,None,1,0.6135806899983436,2.6142353899776936,increament,0.6,5,standard,None,100,,,,,,,,m,22,209,fr,r,0,raw,2022-05-20_14h22.25.056,oddball,2022.1.2,59.91450201025426,
0,,,,,0,0,0,0,2,0,2,0,14,0,14,0,,,,,,,,,,,,,,,,,552.6061138000805,None,553.2566935000941,553.8569034000393,553.8404753000941,555.8413359001279,None,1,0.6129614897072315,2.6138020898215473,increament,0.6,5,standard,None,100,,,,,,,,m,22,209,fr,r,0,raw,2022-05-20_14h22.25.056,oddball,2022.1.2,59.91450201025426,
0,,,,,0,0,0,0,2,0,2,0,15,0,15,0,,,,,,,,,,,,,,,,,555.8575252001174,None,556.6077958000824,557.2081733001396,557.1916323001496,559.191938900156,None,1,0.6106180897913873,2.6109469898510724,increament,0.6,5,standard,None,100,,,,,,,,m,22,209,fr,r,0,raw,2022-05-20_14h22.25.056,oddball,2022.1.2,59.91450201025426,
0,,,,,0,0,0,0,2,0,2,0,16,0,16,0,,,,,,,,,,,,,,,,,559.2090696999803,None,559.8257335000671,560.425770800095,560.4091252000071,562.4098539999686,None,1,0.6128489898983389,2.6135996899101883,increament,0.6,5,standard,None,100,,,,,,,,m,22,209,fr,r,0,raw,2022-05-20_14h22.25.056,oddball,2022.1.2,59.91450201025426,
0,,,,,0,0,0,0,2,0,2,0,17,0,17,0,,,,,,,,,,,,,,,,,562.426849800162,None,563.1271564001217,563.7271513000596,563.7105976999737,565.7110171001405,None,1,0.6127128901425749,2.613092790124938,increament,0.6,5,standard,None,100,,,,,,,,m,22,209,fr,r,0,raw,2022-05-20_14h22.25.056,oddball,2022.1.2,59.91450201025426,
0,,,,,0,0,0,0,2,0,2,0,18,0,18,0,,,,,,,,,,,,,,,,,565.7276084001642,None,566.2616507001221,566.8613861999474,566.8448075000197,568.8454313999973,None,1,0.6090236899908632,2.6096113899257034,increament,0.6,5,standard,None,100,,,,,,,,m,22,209,fr,r,0,raw,2022-05-20_14h22.25.056,oddball,2022.1.2,59.91450201025426,
0,,,,,0,0,0,0,2,0,2,0,19,0,19,0,,,,,,,,,,,,,,,,,568.8622210000176,None,569.5626954000909,570.1630780000705,570.1465649001766,572.1473298999481,None,1,0.6129234896507114,2.6136883897706866,increament,0.6,5,standard,None,100,,,,,,,,m,22,209,fr,r,0,raw,2022-05-20_14h22.25.056,oddball,2022.1.2,59.91450201025426,
0,,,,,0,0,0,0,2,0,2,0,20,0,20,0,,,,,,,,,,,,,,,,,572.1645766000729,None,572.8307799000759,573.4307238000911,573.4143574000336,575.415010600118,None,1,0.6097259900998324,2.6103694899939,increament,0.6,5,standard,None,100,,,,,,,,m,22,209,fr,r,0,raw,2022-05-20_14h22.25.056,oddball,2022.1.2,59.91450201025426,
0,,,,,0,0,0,0,2,0,2,0,21,0,21,0,,,,,,,,,,,,,,,,,575.4314664001577,None,576.0483809001744,576.6487670999486,576.6320017999969,578.633193799993,None,1,0.6104420898482203,2.6117043897975236,increament,0.6,5,standard,None,100,,,,,,,,m,22,209,fr,r,0,raw,2022-05-20_14h22.25.056,oddball,2022.1.2,59.91450201025426,
0,,,,,0,0,0,0,2,0,2,0,22,0,22,0,,,,,,,,,,,,,,,,,578.6493706000037,None,579.3330898000859,579.9329368001781,579.9165920000523,581.9171597999521,None,1,0.6091565901879221,2.6097614902537316,increament,0.6,5,standard,None,100,,,,,,,,m,22,209,fr,r,0,raw,2022-05-20_14h22.25.056,oddball,2022.1.2,59.91450201025426,
0,,,,,0,0,0,0,2,0,2,0,23,0,23,0,,,,,,,,,,,,,,,,,581.9341007000767,None,582.7177482000552,583.317766000051,583.3011185000651,585.3018871999811,j,0,0.6104995897039771,2.611258889781311,increament,0.6,5,standard,None,100,0.5620500000659376,,,,,,,m,22,209,fr,r,0,raw,2022-05-20_14h22.25.056,oddball,2022.1.2,59.91450201025426,
0,,,,,0,0,0,0,2,0,2,0,24,0,24,0,,,,,,,,,,,,,,,,,585.3185291001573,None,585.9360940000042,586.9026607000269,586.8694854001515,588.870139000006,j,1,0.9599350898060948,2.9605882898904383,increament,0.96,8,oddball,j,160,0.6647427999414504,,,,,,,m,22,209,fr,r,0,raw,2022-05-20_14h22.25.056,oddball,2022.1.2,59.91450201025426,
0,,,,,0,0,0,0,2,0,2,0,25,0,25,0,,,,,,,,,,,,,,,,,588.8876605001278,None,589.5536041001324,590.1536646999884,590.1370622001123,592.1381308999844,None,1,0.612664690008387,2.6138069899752736,increament,0.6,5,standard,None,100,,,,,,,,m,22,209,fr,r,0,raw,2022-05-20_14h22.25.056,oddball,2022.1.2,59.91450201025426,
0,,,,,0,0,0,0,2,0,2,0,26,0,26,0,,,,,,,,,,,,,,,,,592.1546975001693,None,592.8211147000547,593.4216477000155,593.4051952001173,595.4057044000365,None,1,0.6143429898656905,2.614852590020746,increament,0.6,5,standard,None,100,,,,,,,,m,22,209,fr,r,0,raw,2022-05-20_14h22.25.056,oddball,2022.1.2,59.91450201025426,
0,,,,,0,0,0,0,2,0,2,0,27,0,27,0,,,,,,,,,,,,,,,,,595.4223468001001,None,596.056331400061,596.6562416001689,596.6396292001009,598.6400397000834,None,1,0.6101042898371816,2.61044238996692,increament,0.6,5,standard,None,100,,,,,,,,m,22,209,fr,r,0,raw,2022-05-20_14h22.25.056,oddball,2022.1.2,59.91450201025426,
0,,,,,0,0,0,0,2,0,2,0,28,0,28,0,,,,,,,,,,,,,,,,,598.6567608001642,None,599.4739253001753,600.0740654000547,600.0574817999732,602.0582435999531,None,1,0.6132943900302052,2.614107789937407,increament,0.6,5,standard,None,100,,,,,,,,m,22,209,fr,r,0,raw,2022-05-20_14h22.25.056,oddball,2022.1.2,59.91450201025426,
0,,,,,0,0,0,0,2,0,2,0,29,0,29,0,,,,,,,,,,,,,,,,,602.0751338000409,None,602.7754365000874,603.3756883000024,603.3591386999469,605.3599600000307,None,1,0.6117326898965985,2.6125970899593085,increament,0.6,5,standard,None,100,,,,,,,,m,22,209,fr,r,0,raw,2022-05-20_14h22.25.056,oddball,2022.1.2,59.91450201025426,
0,,,,,0,0,0,0,3,0,3,0,0,0,0,0,,,,,,,,,,,,,,,609.3821426001377,None,610.3447680000681,None,610.9616259001195,611.5621372000314,611.5452710001264,613.5464042001404,None,1,0.6130982898175716,2.6142788897268474,decreament,0.6,1,standard,None,100,,605.378316000104,None,,,,,m,22,209,fr,r,0,raw,2022-05-20_14h22.25.056,oddball,2022.1.2,59.91450201025426,
0,,,,,0,0,0,0,3,0,3,0,1,0,1,0,,,,,,,,,,,,,,,,,613.5648554000072,None,614.2632361000869,614.8631119001657,614.8464703999925,616.8470042999834,None,1,0.6111895898357034,2.611707289936021,decreament,0.6,1,standard,None,100,,,,,,,,m,22,209,fr,r,0,raw,2022-05-20_14h22.25.056,oddball,2022.1.2,59.91450201025426,
0,,,,,0,0,0,0,3,0,3,0,2,0,2,0,,,,,,,,,,,,,,,,,616.8640354999807,None,617.4640232000966,618.0641767999623,618.0478785999585,620.0483800000511,None,1,0.6128113898448646,2.613318189745769,decreament,0.6,1,standard,None,100,,,,,,,,m,22,209,fr,r,0,raw,2022-05-20_14h22.25.056,oddball,2022.1.2,59.91450201025426,
0,,,,,0,0,0,0,3,0,3,0,3,0,3,0,,,,,,,,,,,,,,,,,620.0650894001592,None,620.6820453000255,621.2824991000816,621.2660634000786,623.2661374001764,None,1,0.6100835897959769,2.6100984897930175,decreament,0.6,1,standard,None,100,,,,,,,,m,22,209,fr,r,0,raw,2022-05-20_14h22.25.056,oddball,2022.1.2,59.91450201025426,
0,,,,,0,0,0,0,3,0,3,0,4,0,4,0,,,,,,,,,,,,,,,,,623.28295230004,None,624.0001471999567,624.600168999983,624.5836186001543,626.5846935000736,None,1,0.6122526901308447,2.6134151900187135,decreament,0.6,1,standard,None,100,,,,,,,,m,22,209,fr,r,0,raw,2022-05-20_14h22.25.056,oddball,2022.1.2,59.91450201025426,
0,,,,,0,0,0,0,3,0,3,0,5,0,5,0,,,,,,,,,,,,,,,,,626.6008482000325,None,627.3845574001316,627.9847079999745,627.9683850000147,629.9690711000003,None,1,0.6133274901658297,2.6140348901972175,decreament,0.6,1,standard,None,100,,,,,,,,m,22,209,fr,r,0,raw,2022-05-20_14h22.25.056,oddball,2022.1.2,59.91450201025426,
0,,,,,0,0,0,0,3,0,3,0,6,0,6,0,,,,,,,,,,,,,,,,,629.9865626001265,None,630.6025549999904,631.2025904001202,631.1859621000476,633.186912199948,None,1,0.6127283899113536,2.6137369899079204,decreament,0.6,1,standard,None,100,,,,,,,,m,22,209,fr,r,0,raw,2022-05-20_14h22.25.056,oddball,2022.1.2,59.91450201025426,
0,,,,,0,0,0,0,3,0,3,0,7,0,7,0,,,,,,,,,,,,,,,,,633.2033898001537,None,633.7536168999504,634.120547400089,634.0873404000886,636.0877354999539,j,1,0.3605378898791969,2.3609164899680763,decreament,0.36,3,oddball,j,60,0.8790879000443965,,,,,,,m,22,209,fr,r,0,raw,2022-05-20_14h22.25.056,oddball,2022.1.2,59.91450201025426,
0,,,,,0,0,0,0,3,0,3,0,8,0,8,0,,,,,,,,,,,,,,,,,636.1043814001605,None,636.7047113000881,637.3050476000644,637.2883729001042,639.289110200014,None,1,0.6123004897963256,2.613099889829755,decreament,0.6,1,standard,None,100,,,,,,,,m,22,209,fr,r,0,raw,2022-05-20_14h22.25.056,oddball,2022.1.2,59.91450201025426,
0,,,,,0,0,0,0,3,0,3,0,9,0,9,0,,,,,,,,,,,,,,,,,639.3058466999792,None,639.8391331001185,640.4393756999634,640.4229250999633,642.4234470000956,None,1,0.6120857899077237,2.6126210899092257,decreament,0.6,1,standard,None,100,,,,,,,,m,22,209,fr,r,0,raw,2022-05-20_14h22.25.056,oddball,2022.1.2,59.91450201025426,
0,,,,,0,0,0,0,3,0,3,0,10,0,10,0,,,,,,,,,,,,,,,,,642.4401761000045,None,643.1908104000613,643.7908283001743,643.7740780999884,645.7753796000034,None,1,0.6127583899069577,2.6141255900729448,decreament,0.6,1,standard,None,100,,,,,,,,m,22,209,fr,r,0,raw,2022-05-20_14h22.25.056,oddball,2022.1.2,59.91450201025426,
0,,,,,0,0,0,0,3,0,3,0,11,0,11,0,,,,,,,,,,,,,,,,,645.7915346000809,None,646.3750639001373,646.9750653000083,646.9588373999577,648.9593638000078,None,1,0.6128329900093377,2.6133972899988294,decreament,0.6,1,standard,None,100,,,,,,,,m,22,209,fr,r,0,raw,2022-05-20_14h22.25.056,oddball,2022.1.2,59.91450201025426,
0,,,,,0,0,0,0,3,0,3,0,12,0,12,0,,,,,,,,,,,,,,,,,648.9763693001587,None,649.7261020001024,650.3262668000534,650.3101753999945,652.3110061001498,None,1,0.6130939901340753,2.6140013900585473,decreament,0.6,1,standard,None,100,,,,,,,,m,22,209,fr,r,0,raw,2022-05-20_14h22.25.056,oddball,2022.1.2,59.91450201025426,
0,,,,,0,0,0,0,3,0,3,0,13,0,13,0,,,,,,,,,,,,,,,,,652.3281984000932,None,652.8611167999916,653.461002800148,653.4443892999552,655.4454737000633,None,1,0.6125931900460273,2.6137627901043743,decreament,0.6,1,standard,None,100,,,,,,,,m,22,209,fr,r,0,raw,2022-05-20_14h22.25.056,oddball,2022.1.2,59.91450201025426,
0,,,,,0,0,0,0,3,0,3,0,14,0,14,0,,,,,,,,,,,,,,,,,655.4631060999818,None,656.1120303000789,656.7123903001193,656.6956889999565,658.6968175000511,None,1,0.612398189958185,2.613683389965445,decreament,0.6,1,standard,None,100,,,,,,,,m,22,209,fr,r,0,raw,2022-05-20_14h22.25.056,oddball,2022.1.2,59.91450201025426,
0,,,,,0,0,0,0,3,0,3,0,15,0,15,0,,,,,,,,,,,,,,,,,658.7133512999862,None,659.3970429999754,659.99700079998,659.9804638000205,661.9809384001419,None,1,0.6091025900095701,2.6095297900028527,decreament,0.6,1,standard,None,100,,,,,,,,m,22,209,fr,r,0,raw,2022-05-20_14h22.25.056,oddball,2022.1.2,59.91450201025426,
0,,,,,0,0,0,0,3,0,3,0,16,0,16,0,,,,,,,,,,,,,,,,,661.9976938001346,None,662.6812689001672,663.28186070011,663.2648692999501,665.2658041999675,None,1,0.6124642898794264,2.6134123897645622,decreament,0.6,1,standard,None,100,,,,,,,,m,22,209,fr,r,0,raw,2022-05-20_14h22.25.056,oddball,2022.1.2,59.91450201025426,
0,,,,,0,0,0,0,3,0,3,0,17,0,17,0,,,,,,,,,,,,,,,,,665.2833692999557,None,665.8828080999665,666.482435700018,666.4660720999818,668.4672134001739,None,1,0.6094403900206089,2.61069459002465,decreament,0.6,1,standard,None,100,,,,,,,,m,22,209,fr,r,0,raw,2022-05-20_14h22.25.056,oddball,2022.1.2,59.91450201025426,
0,,,,,0,0,0,0,3,0,3,0,18,0,18,0,,,,,,,,,,,,,,,,,668.4837571999524,None,669.0505435001105,669.6509916000068,669.6341359000653,671.6350901999976,j,0,0.6098335897549987,2.6104600897524506,decreament,0.6,1,standard,None,100,0.5879141998011619,,,,,,,m,22,209,fr,r,0,raw,2022-05-20_14h22.25.056,oddball,2022.1.2,59.91450201025426,
0,,,,,0,0,0,0,3,0,3,0,19,0,19,0,,,,,,,,,,,,,,,,,671.6527573999483,None,672.3680937001482,672.9685720000416,672.9521435999777,674.952787999995,None,1,0.6127007899340242,2.6133512898813933,decreament,0.6,1,standard,None,100,,,,,,,,m,22,209,fr,r,0,raw,2022-05-20_14h22.25.056,oddball,2022.1.2,59.91450201025426,
0,,,,,0,0,0,0,3,0,3,0,20,0,20,0,,,,,,,,,,,,,,,,,674.969331700122,None,675.7031737000216,676.3030199001078,676.2864594000857,678.2870869000908,None,1,0.6106027900241315,2.6112075899727643,decreament,0.6,1,standard,None,100,,,,,,,,m,22,209,fr,r,0,raw,2022-05-20_14h22.25.056,oddball,2022.1.2,59.91450201025426,
0,,,,,0,0,0,0,3,0,3,0,21,0,21,0,,,,,,,,,,,,,,,,,678.304055100074,None,678.9040139000863,679.5042047000024,679.4875076999888,681.4883583001792,None,1,0.6122860901523381,2.61315549002029,decreament,0.6,1,standard,None,100,,,,,,,,m,22,209,fr,r,0,raw,2022-05-20_14h22.25.056,oddball,2022.1.2,59.91450201025426,
0,,,,,0,0,0,0,3,0,3,0,22,0,22,0,,,,,,,,,,,,,,,,,681.5051649999805,None,682.1388199001085,682.7387888999656,682.7222876001615,684.7228125999682,None,1,0.6106683898251504,2.611185989808291,decreament,0.6,1,standard,None,100,,,,,,,,m,22,209,fr,r,0,raw,2022-05-20_14h22.25.056,oddball,2022.1.2,59.91450201025426,
0,,,,,0,0,0,0,3,0,3,0,23,0,23,0,,,,,,,,,,,,,,,,,684.7396919000894,None,685.4063456000295,685.8899537001271,685.8570075000171,687.8574946001172,None,0,0.47937128972262144,2.479805989889428,decreament,0.48,4,oddball,j,80,,,,,,,,m,22,209,fr,r,0,raw,2022-05-20_14h22.25.056,oddball,2022.1.2,59.91450201025426,
0,,,,,0,0,0,0,3,0,3,0,24,0,24,0,,,,,,,,,,,,,,,,,687.8740016000811,None,688.4246199000627,689.0245956000872,689.007786600152,691.0086179000791,None,1,0.6094319901894778,2.6102769901044667,decreament,0.6,1,standard,None,100,,,,,,,,m,22,209,fr,r,0,raw,2022-05-20_14h22.25.056,oddball,2022.1.2,59.91450201025426,
0,,,,,0,0,0,0,3,0,3,0,25,0,25,0,,,,,,,,,,,,,,,,,691.0254035999533,None,691.6920758001506,692.2923145999666,692.2759301001206,694.2766963001341,None,1,0.6132053898181766,2.6140547897666693,decreament,0.6,1,standard,None,100,,,,,,,,m,22,209,fr,r,0,raw,2022-05-20_14h22.25.056,oddball,2022.1.2,59.91450201025426,
0,,,,,0,0,0,0,3,0,3,0,26,0,26,0,,,,,,,,,,,,,,,,,694.2930383000057,None,694.9273286999669,695.5267048999667,695.5102532000747,697.5112533001229,None,1,0.6105309899430722,2.6115897898562253,decreament,0.6,1,standard,None,100,,,,,,,,m,22,209,fr,r,0,raw,2022-05-20_14h22.25.056,oddball,2022.1.2,59.91450201025426,
0,,,,,0,0,0,0,3,0,3,0,27,0,27,0,,,,,,,,,,,,,,,,,697.5279836000409,None,698.1283311999869,698.3780700999778,698.3451281001326,700.3459326999728,j,1,0.24282158981077373,2.2436490897089243,decreament,0.24,2,oddball,j,40,0.8528412999585271,,,,,,,m,22,209,fr,r,0,raw,2022-05-20_14h22.25.056,oddball,2022.1.2,59.91450201025426,
0,,,,,0,0,0,0,3,0,3,0,28,0,28,0,,,,,,,,,,,,,,,,,700.3637530000415,None,701.1290762000717,701.7296732000541,701.7131382999942,703.7135785999708,j,0,0.6108380898367614,2.6112808897159994,decreament,0.6,1,standard,None,100,0.6698593001347035,,,,,,,m,22,209,fr,r,0,raw,2022-05-20_14h22.25.056,oddball,2022.1.2,59.91450201025426,
0,,,,,0,0,0,0,3,0,3,0,29,0,29,0,,,,,,,,,,,,,,,,,703.7302872000728,None,704.3134155001026,704.9139346999582,704.8973693000153,706.8980003001634,None,1,0.6118157899472862,2.612464090110734,decreament,0.6,1,standard,None,100,,,,,,,,m,22,209,fr,r,0,raw,2022-05-20_14h22.25.056,oddball,2022.1.2,59.91450201025426,
0,,,,,0,0,0,0,4,0,4,0,0,0,0,0,,,,,,,,,,,,,,,711.7758885000367,None,714.1341367000714,None,714.8176512999926,715.4181757001206,715.4012873000465,717.4018858000636,None,1,0.6106374899391085,2.6112497900612652,increament,0.6,5,standard,None,100,,706.9148333000485,None,,,,,m,22,209,fr,r,0,raw,2022-05-20_14h22.25.056,oddball,2022.1.2,59.91450201025426,
0,,,,,0,0,0,0,4,0,4,0,1,0,1,0,,,,,,,,,,,,,,,,,717.4187942000572,None,718.0521538001485,718.6525817001238,718.6360612001736,720.6369086001068,None,1,0.6136942899320275,2.6145585901103914,increament,0.6,5,standard,None,100,,,,,,,,m,22,209,fr,r,0,raw,2022-05-20_14h22.25.056,oddball,2022.1.2,59.91450201025426,
0,,,,,0,0,0,0,4,0,4,0,2,0,2,0,,,,,,,,,,,,,,,,,720.6543378001079,None,721.3370149000548,721.9369175001048,721.9203093000688,723.921415100107,None,1,0.6121528898365796,2.6132866898551583,increament,0.6,5,standard,None,100,,,,,,,,m,22,209,fr,r,0,raw,2022-05-20_14h22.25.056,oddball,2022.1.2,59.91450201025426,
0,,,,,0,0,0,0,4,0,4,0,3,0,3,0,,,,,,,,,,,,,,,,,723.9376332999673,None,724.6715677999891,725.2718442999758,725.2554012001492,727.2557056001388,None,1,0.6125801899470389,2.6128192900214344,increament,0.6,5,standard,None,100,,,,,,,,m,22,209,fr,r,0,raw,2022-05-20_14h22.25.056,oddball,2022.1.2,59.91450201025426,
0,,,,,0,0,0,0,4,0,4,0,4,0,4,0,,,,,,,,,,,,,,,,,727.272290199995,None,727.8225306000095,728.4228509999812,728.4062616000883,730.4069775999524,None,1,0.6094352898653597,2.6100957898888737,increament,0.6,5,standard,None,100,,,,,,,,m,22,209,fr,r,0,raw,2022-05-20_14h22.25.056,oddball,2022.1.2,59.91450201025426,
0,,,,,0,0,0,0,4,0,4,0,5,0,5,0,,,,,,,,,,,,,,,,,730.4234452999663,None,730.9738827000838,731.5738917000126,731.5573196001351,733.5581049001776,None,1,0.6125801901798695,2.613371890038252,increament,0.6,5,standard,None,100,,,,,,,,m,22,209,fr,r,0,raw,2022-05-20_14h22.25.056,oddball,2022.1.2,59.91450201025426,
0,,,,,0,0,0,0,4,0,4,0,6,0,6,0,,,,,,,,,,,,,,,,,733.5747297001071,None,734.1585737999994,734.7588782000821,734.742143600015,736.7428896001074,None,1,0.612666989909485,2.613388189813122,increament,0.6,5,standard,None,100,,,,,,,,m,22,209,fr,r,0,raw,2022-05-20_14h22.25.056,oddball,2022.1.2,59.91450201025426,
0,,,,,0,0,0,0,4,0,4,0,7,0,7,0,,,,,,,,,,,,,,,,,736.75938770012,None,737.4598189999815,738.0596708001103,738.0435548000969,740.0438717000652,None,1,0.6128181898966432,2.6130942900199443,increament,0.6,5,standard,None,100,,,,,,,,m,22,209,fr,r,0,raw,2022-05-20_14h22.25.056,oddball,2022.1.2,59.91450201025426,
0,,,,,0,0,0,0,4,0,4,0,8,0,8,0,,,,,,,,,,,,,,,,,740.0605191001669,None,740.6773856000509,741.2776296001393,741.2611126999836,743.2618075001519,j,0,0.6095933900214732,2.6103318901732564,increament,0.6,5,standard,None,100,0.3631615999620408,,,,,,,m,22,209,fr,r,0,raw,2022-05-20_14h22.25.056,oddball,2022.1.2,59.91450201025426,
0,,,,,0,0,0,0,4,0,4,0,9,0,9,0,,,,,,,,,,,,,,,,,743.2786745999474,None,743.9456342000049,744.9122878001072,744.8792799999937,746.8795750001445,None,0,0.9626866900362074,2.962925790110603,increament,0.96,8,oddball,j,160,,,,,,,,m,22,209,fr,r,0,raw,2022-05-20_14h22.25.056,oddball,2022.1.2,59.91450201025426,
0,,,,,0,0,0,0,4,0,4,0,10,0,10,0,,,,,,,,,,,,,,,,,746.896320699947,None,747.5131062001456,748.1135408000555,748.0973637001589,750.097559100017,None,1,0.6127352898474783,2.612844989867881,increament,0.6,5,standard,None,100,,,,,,,,m,22,209,fr,r,0,raw,2022-05-20_14h22.25.056,oddball,2022.1.2,59.91450201025426,
0,,,,,0,0,0,0,4,0,4,0,11,0,11,0,,,,,,,,,,,,,,,,,750.114436800126,None,750.8980321001727,751.4981200001203,751.4818436000496,753.4824761000928,None,1,0.6117804900277406,2.6123790899291635,increament,0.6,5,standard,None,100,,,,,,,,m,22,209,fr,r,0,raw,2022-05-20_14h22.25.056,oddball,2022.1.2,59.91450201025426,
0,,,,,0,0,0,0,4,0,4,0,12,0,12,0,,,,,,,,,,,,,,,,,753.4991506000515,None,754.1826901000459,754.7828226001002,754.7662869000342,756.767050600145,None,1,0.6115154901053756,2.612265089992434,increament,0.6,5,standard,None,100,,,,,,,,m,22,209,fr,r,0,raw,2022-05-20_14h22.25.056,oddball,2022.1.2,59.91450201025426,
0,,,,,0,0,0,0,4,0,4,0,13,0,13,0,,,,,,,,,,,,,,,,,756.7834557001479,None,757.3843257001135,757.9838602000382,757.9672793000937,759.9679157000501,None,1,0.6090039901901037,2.6095727900974452,increament,0.6,5,standard,None,100,,,,,,,,m,22,209,fr,r,0,raw,2022-05-20_14h22.25.056,oddball,2022.1.2,59.91450201025426,
0,,,,,0,0,0,0,4,0,4,0,14,0,14,0,,,,,,,,,,,,,,,,,759.984527700115,None,760.851566700032,761.5853546001017,761.5522668000776,763.5530077000149,j,1,0.7291250901762396,2.729906090302393,increament,0.72,6,oddball,j,120,0.43028440000489354,,,,,,,m,22,209,fr,r,0,raw,2022-05-20_14h22.25.056,oddball,2022.1.2,59.91450201025426,
0,,,,,0,0,0,0,4,0,4,0,15,0,15,0,,,,,,,,,,,,,,,,,763.5707584000193,None,764.1864182001445,764.7864304000977,764.7699651001021,766.7708599001635,j,0,0.6105788899585605,2.61154208984226,increament,0.6,5,standard,None,100,0.48548760008998215,,,,,,,m,22,209,fr,r,0,raw,2022-05-20_14h22.25.056,oddball,2022.1.2,59.91450201025426,
0,,,,,0,0,0,0,4,0,4,0,16,0,16,0,,,,,,,,,,,,,,,,,766.7883258000948,None,767.3543094999623,767.9546199000906,767.9379118999932,769.9386269999668,None,1,0.6123167900368571,2.6129992899950594,increament,0.6,5,standard,None,100,,,,,,,,m,22,209,fr,r,0,raw,2022-05-20_14h22.25.056,oddball,2022.1.2,59.91450201025426,
0,,,,,0,0,0,0,4,0,4,0,17,0,17,0,,,,,,,,,,,,,,,,,769.9551155001391,None,770.5721818001475,771.1721906999592,771.1555701000616,773.156306500081,None,1,0.6118781899567693,2.6125778898131102,increament,0.6,5,standard,None,100,,,,,,,,m,22,209,fr,r,0,raw,2022-05-20_14h22.25.056,oddball,2022.1.2,59.91450201025426,
0,,,,,0,0,0,0,4,0,4,0,18,0,18,0,,,,,,,,,,,,,,,,,773.1730727001559,None,773.7232303000055,774.3235325000715,774.3068083000835,776.3077941001393,j,0,0.6112467900384218,2.6125423898920417,increament,0.6,5,standard,None,100,0.7720246999524534,,,,,,,m,22,209,fr,r,0,raw,2022-05-20_14h22.25.056,oddball,2022.1.2,59.91450201025426,
0,,,,,0,0,0,0,4,0,4,0,19,0,19,0,,,,,,,,,,,,,,,,,776.324363599997,None,776.9077298999764,777.7579431000631,777.725379700074,779.725847300142,j,1,0.8462512898258865,2.8467200899031013,increament,0.84,7,oddball,j,140,0.4888230001088232,,,,,,,m,22,209,fr,r,0,raw,2022-05-20_14h22.25.056,oddball,2022.1.2,59.91450201025426,
0,,,,,0,0,0,0,4,0,4,0,20,0,20,0,,,,,,,,,,,,,,,,,779.7423825000878,None,780.3426131999586,780.9428900000639,780.9262526000384,782.9270439001266,None,1,0.6118022901937366,2.612597290193662,increament,0.6,5,standard,None,100,,,,,,,,m,22,209,fr,r,0,raw,2022-05-20_14h22.25.056,oddball,2022.1.2,59.91450201025426,
0,,,,,0,0,0,0,4,0,4,0,21,0,21,0,,,,,,,,,,,,,,,,,782.9443431999534,None,783.6105335999746,784.210806200048,784.1941766999662,786.1945136000868,None,1,0.6097724898718297,2.6100169899873435,increament,0.6,5,standard,None,100,,,,,,,,m,22,209,fr,r,0,raw,2022-05-20_14h22.25.056,oddball,2022.1.2,59.91450201025426,
0,,,,,0,0,0,0,4,0,4,0,22,0,22,0,,,,,,,,,,,,,,,,,786.2110929000191,None,786.8617497000378,787.4615984000266,787.4452319999691,789.4458268999588,None,1,0.610832589911297,2.6114770900458097,increament,0.6,5,standard,None,100,,,,,,,,m,22,209,fr,r,0,raw,2022-05-20_14h22.25.056,oddball,2022.1.2,59.91450201025426,
0,,,,,0,0,0,0,4,0,4,0,23,0,23,0,,,,,,,,,,,,,,,,,789.4627480001654,None,790.1462002999615,790.746459200047,790.7300844001584,792.7304118999746,None,1,0.6137207900173962,2.613970289938152,increament,0.6,5,standard,None,100,,,,,,,,m,22,209,fr,r,0,raw,2022-05-20_14h22.25.056,oddball,2022.1.2,59.91450201025426,
0,,,,,0,0,0,0,4,0,4,0,24,0,24,0,,,,,,,,,,,,,,,,,792.747030199971,None,793.3640944000799,793.964735600166,793.947837700136,795.9483441000339,None,1,0.6113329897634685,2.6117833899334073,increament,0.6,5,standard,None,100,,,,,,,,m,22,209,fr,r,0,raw,2022-05-20_14h22.25.056,oddball,2022.1.2,59.91450201025426,
0,,,,,0,0,0,0,4,0,4,0,25,0,25,0,,,,,,,,,,,,,,,,,795.9652842001524,None,796.5486135999672,797.1489592001308,797.1326264000963,799.1328349001706,None,1,0.6144098900258541,2.614579590037465,increament,0.6,5,standard,None,100,,,,,,,,m,22,209,fr,r,0,raw,2022-05-20_14h22.25.056,oddball,2022.1.2,59.91450201025426,
0,,,,,0,0,0,0,4,0,4,0,26,0,26,0,,,,,,,,,,,,,,,,,799.1497743001673,None,799.8334286999889,800.4336556999478,800.4167234001216,802.4178319000639,None,1,0.6124632898718119,2.6136475899256766,increament,0.6,5,standard,None,100,,,,,,,,m,22,209,fr,r,0,raw,2022-05-20_14h22.25.056,oddball,2022.1.2,59.91450201025426,
0,,,,,0,0,0,0,4,0,4,0,27,0,27,0,,,,,,,,,,,,,,,,,802.4340874000918,None,803.117978299968,803.7179054000881,803.7012740001082,805.7022441001609,None,1,0.6121805899310857,2.6131951899733394,increament,0.6,5,standard,None,100,,,,,,,,m,22,209,fr,r,0,raw,2022-05-20_14h22.25.056,oddball,2022.1.2,59.91450201025426,
0,,,,,0,0,0,0,4,0,4,0,28,0,28,0,,,,,,,,,,,,,,,,,805.7189247000497,None,806.3357482999563,806.9360313999932,806.9193812999874,808.9199716001749,None,1,0.6119959899224341,2.612606389913708,increament,0.6,5,standard,None,100,,,,,,,,m,22,209,fr,r,0,raw,2022-05-20_14h22.25.056,oddball,2022.1.2,59.91450201025426,
0,,,,,0,0,0,0,4,0,4,0,29,0,29,0,,,,,,,,,,,,,,,,,808.9367278001737,None,809.7203880001325,810.3202856001444,810.3037749000359,812.3043655001093,None,1,0.6128335897810757,2.6133768898434937,increament,0.6,5,standard,None,100,,,,,,,,m,22,209,fr,r,0,raw,2022-05-20_14h22.25.056,oddball,2022.1.2,59.91450201025426,
0,,,,,0,0,0,0,5,0,5,0,0,0,0,0,,,,,,,,,,,,,,,826.2183642999735,None,827.0599946000148,None,827.6939069000073,828.2941970000975,828.2773702000268,830.2781803000253,None,1,0.6122680900152773,2.613100989954546,decreament,0.6,1,standard,None,100,,812.3216226999648,None,,,,,m,22,209,fr,r,0,raw,2022-05-20_14h22.25.056,oddball,2022.1.2,59.91450201025426,
0,,,,,0,0,0,0,5,0,5,0,1,0,1,0,,,,,,,,,,,,,,,,,830.296718900092,None,830.9952205000445,831.5952043000143,831.5785316999536,833.5791717001703,None,1,0.6093670898117125,2.609961989801377,decreament,0.6,1,standard,None,100,,,,,,,,m,22,209,fr,r,0,raw,2022-05-20_14h22.25.056,oddball,2022.1.2,59.91450201025426,
0,,,,,0,0,0,0,5,0,5,0,2,0,2,0,,,,,,,,,,,,,,,,,833.5959218000062,None,834.2959867999889,834.8962650999893,834.8798180001322,836.8805470000952,None,1,0.6140989901032299,2.6148715901654214,decreament,0.6,1,standard,None,100,,,,,,,,m,22,209,fr,r,0,raw,2022-05-20_14h22.25.056,oddball,2022.1.2,59.91450201025426,
0,,,,,0,0,0,0,5,0,5,0,3,0,3,0,,,,,,,,,,,,,,,,,836.8973763999529,None,837.5976138999686,838.1978675001301,838.1811144000385,840.181927200174,None,1,0.6113272900693119,2.612183190183714,decreament,0.6,1,standard,None,100,,,,,,,,m,22,209,fr,r,0,raw,2022-05-20_14h22.25.056,oddball,2022.1.2,59.91450201025426,
0,,,,,0,0,0,0,5,0,5,0,4,0,4,0,,,,,,,,,,,,,,,,,840.1990442001261,None,840.7985829000827,841.3989355999511,841.3822933000047,843.383168600034,None,1,0.6129888901486993,2.6139344901312143,decreament,0.6,1,standard,None,100,,,,,,,,m,22,209,fr,r,0,raw,2022-05-20_14h22.25.056,oddball,2022.1.2,59.91450201025426,
0,,,,,0,0,0,0,5,0,5,0,5,0,5,0,,,,,,,,,,,,,,,,,843.3998082000762,None,844.2168394001201,844.8168155001476,844.8002893000375,846.800920000067,None,1,0.613045189762488,2.613681089831516,decreament,0.6,1,standard,None,100,,,,,,,,m,22,209,fr,r,0,raw,2022-05-20_14h22.25.056,oddball,2022.1.2,59.91450201025426,
0,,,,,0,0,0,0,5,0,5,0,6,0,6,0,,,,,,,,,,,,,,,,,846.8175987000577,None,847.5182070999872,848.1180998000782,848.1013800001238,850.1022510000039,None,1,0.6104713899549097,2.611426889896393,decreament,0.6,1,standard,None,100,,,,,,,,m,22,209,fr,r,0,raw,2022-05-20_14h22.25.056,oddball,2022.1.2,59.91450201025426,
0,,,,,0,0,0,0,5,0,5,0,7,0,7,0,,,,,,,,,,,,,,,,,850.1187980000395,None,850.7192896001507,851.2028379000258,851.1861489999574,853.1868817999493,None,0,0.4930990901775658,2.4938330901786685,decreament,0.48,4,oddball,j,80,,,,,,,,m,22,209,fr,r,0,raw,2022-05-20_14h22.25.056,oddball,2022.1.2,59.91450201025426,
0,,,,,0,0,0,0,5,0,5,0,8,0,8,0,,,,,,,,,,,,,,,,,853.2038418999873,None,853.8373738999944,854.4372726001311,854.4205177000258,856.4215164000634,None,1,0.6123352900613099,2.6133365901187062,decreament,0.6,1,standard,None,100,,,,,,,,m,22,209,fr,r,0,raw,2022-05-20_14h22.25.056,oddball,2022.1.2,59.91450201025426,
0,,,,,0,0,0,0,5,0,5,0,9,0,9,0,,,,,,,,,,,,,,,,,856.438024100149,None,857.0383071999531,857.6384298000485,857.6219121001195,859.6224277999718,None,1,0.6111579902935773,2.61167159024626,decreament,0.6,1,standard,None,100,,,,,,,,m,22,209,fr,r,0,raw,2022-05-20_14h22.25.056,oddball,2022.1.2,59.91450201025426,
0,,,,,0,0,0,0,5,0,5,0,10,0,10,0,,,,,,,,,,,,,,,,,859.639117800165,None,860.2059721001424,860.8064487001393,860.789805599954,862.7903203000315,None,1,0.6118862899020314,2.612348089925945,decreament,0.6,1,standard,None,100,,,,,,,,m,22,209,fr,r,0,raw,2022-05-20_14h22.25.056,oddball,2022.1.2,59.91450201025426,
0,,,,,0,0,0,0,5,0,5,0,11,0,11,0,,,,,,,,,,,,,,,,,862.8069672000129,None,863.4239076999947,864.0239840000868,864.008207899984,866.0086246000137,None,1,0.6131035899743438,2.613578089978546,decreament,0.6,1,standard,None,100,,,,,,,,m,22,209,fr,r,0,raw,2022-05-20_14h22.25.056,oddball,2022.1.2,59.91450201025426,
0,,,,,0,0,0,0,5,0,5,0,12,0,12,0,,,,,,,,,,,,,,,,,866.0249348999932,None,866.7084709000774,867.3088840001728,867.2924037999474,869.2928247000091,None,1,0.6137704900465906,2.614155689952895,decreament,0.6,1,standard,None,100,,,,,,,,m,22,209,fr,r,0,raw,2022-05-20_14h22.25.056,oddball,2022.1.2,59.91450201025426,
0,,,,,0,0,0,0,5,0,5,0,13,0,13,0,,,,,,,,,,,,,,,,,869.3098345000762,None,869.8929704001639,870.4931976001244,870.4765775001142,872.4773995000869,j,0,0.6125172900501639,2.6133706900291145,decreament,0.6,1,standard,None,100,0.5454235998913646,,,,,,,m,22,209,fr,r,0,raw,2022-05-20_14h22.25.056,oddball,2022.1.2,59.91450201025426,
0,,,,,0,0,0,0,5,0,5,0,14,0,14,0,,,,,,,,,,,,,,,,,872.4940488000866,None,873.2447645000648,873.6109776999801,873.5777146001346,875.5786527001765,j,1,0.36020619003102183,2.361224489985034,decreament,0.36,3,oddball,j,60,0.8518691000062972,,,,,,,m,22,209,fr,r,0,raw,2022-05-20_14h22.25.056,oddball,2022.1.2,59.91450201025426,
0,,,,,0,0,0,0,5,0,5,0,15,0,15,0,,,,,,,,,,,,,,,,,875.5952669000253,None,876.3289556000382,876.9291903001722,876.9126236999873,878.9132893001661,None,1,0.6123406901024282,2.6130103901959956,decreament,0.6,1,standard,None,100,,,,,,,,m,22,209,fr,r,0,raw,2022-05-20_14h22.25.056,oddball,2022.1.2,59.91450201025426,
0,,,,,0,0,0,0,5,0,5,0,16,0,16,0,,,,,,,,,,,,,,,,,878.9300198999699,None,879.4968626999762,880.0969630000181,880.0804689000361,882.0810444001108,None,1,0.6089940897654742,2.6095653898082674,decreament,0.6,1,standard,None,100,,,,,,,,m,22,209,fr,r,0,raw,2022-05-20_14h22.25.056,oddball,2022.1.2,59.91450201025426,
0,,,,,0,0,0,0,5,0,5,0,17,0,17,0,,,,,,,,,,,,,,,,,882.0973708000965,None,882.7815616000444,883.3816611000802,883.3650577000808,885.3656266999897,None,1,0.6129428900312632,2.613489290000871,decreament,0.6,1,standard,None,100,,,,,,,,m,22,209,fr,r,0,raw,2022-05-20_14h22.25.056,oddball,2022.1.2,59.91450201025426,
0,,,,,0,0,0,0,5,0,5,0,18,0,18,0,,,,,,,,,,,,,,,,,885.3824444999918,None,885.9657076001167,886.5659030000679,886.549517000094,888.5506227000151,None,1,0.6125264901202172,2.6137162900995463,decreament,0.6,1,standard,None,100,,,,,,,,m,22,209,fr,r,0,raw,2022-05-20_14h22.25.056,oddball,2022.1.2,59.91450201025426,
0,,,,,0,0,0,0,5,0,5,0,19,0,19,0,,,,,,,,,,,,,,,,,888.5677451000083,None,889.283577100141,889.8837427999824,889.8679250001442,891.8682852999773,None,1,0.6137504898943007,2.6142615899443626,decreament,0.6,1,standard,None,100,,,,,,,,m,22,209,fr,r,0,raw,2022-05-20_14h22.25.056,oddball,2022.1.2,59.91450201025426,
0,,,,,0,0,0,0,5,0,5,0,20,0,20,0,,,,,,,,,,,,,,,,,891.8849760000594,None,892.5681728001218,893.1685399000999,893.1517477000598,895.1529192000162,None,1,0.6129135901574045,2.614131190115586,decreament,0.6,1,standard,None,100,,,,,,,,m,22,209,fr,r,0,raw,2022-05-20_14h22.25.056,oddball,2022.1.2,59.91450201025426,
0,,,,,0,0,0,0,5,0,5,0,21,0,21,0,,,,,,,,,,,,,,,,,895.1693263000343,None,895.8031639000401,896.4028906000312,896.3865642000455,898.3871081001125,None,1,0.6096635898575187,2.6102152897510678,decreament,0.6,1,standard,None,100,,,,,,,,m,22,209,fr,r,0,raw,2022-05-20_14h22.25.056,oddball,2022.1.2,59.91450201025426,
0,,,,,0,0,0,0,5,0,5,0,22,0,22,0,,,,,,,,,,,,,,,,,898.4038197000045,None,899.2880610001739,899.8879398000427,899.8711588999722,901.8718561001588,None,1,0.6092797899618745,2.609937089961022,decreament,0.6,1,standard,None,100,,,,,,,,m,22,209,fr,r,0,raw,2022-05-20_14h22.25.056,oddball,2022.1.2,59.91450201025426,
0,,,,,0,0,0,0,5,0,5,0,23,0,23,0,,,,,,,,,,,,,,,,,901.8885644001421,None,902.6554458001629,903.2556509999558,903.2392776000779,905.2397412999999,None,1,0.611225790111348,2.6116308900527656,decreament,0.6,1,standard,None,100,,,,,,,,m,22,209,fr,r,0,raw,2022-05-20_14h22.25.056,oddball,2022.1.2,59.91450201025426,
0,,,,,0,0,0,0,5,0,5,0,24,0,24,0,,,,,,,,,,,,,,,,,905.2567489000503,None,905.8235508000944,906.0735399001278,906.0400315001607,908.0406651000958,j,1,0.24415428983047605,2.24477058975026,decreament,0.24,2,oddball,j,40,0.5103069001343101,,,,,,,m,22,209,fr,r,0,raw,2022-05-20_14h22.25.056,oddball,2022.1.2,59.91450201025426,
0,,,,,0,0,0,0,5,0,5,0,25,0,25,0,,,,,,,,,,,,,,,,,908.0576750000473,None,908.6746696999762,909.2745116001461,909.2578805000521,911.2586241001263,None,1,0.6097057899460196,2.6104093899484724,decreament,0.6,1,standard,None,100,,,,,,,,m,22,209,fr,r,0,raw,2022-05-20_14h22.25.056,oddball,2022.1.2,59.91450201025426,
0,,,,,0,0,0,0,5,0,5,0,26,0,26,0,,,,,,,,,,,,,,,,,911.2755762999877,None,911.9257370000705,912.5259857000783,912.5094723000657,914.5098236999474,None,1,0.6096779899671674,2.609943490009755,decreament,0.6,1,standard,None,100,,,,,,,,m,22,209,fr,r,0,raw,2022-05-20_14h22.25.056,oddball,2022.1.2,59.91450201025426,
0,,,,,0,0,0,0,5,0,5,0,27,0,27,0,,,,,,,,,,,,,,,,,914.5265359999612,None,915.1271932001691,915.7270214001182,915.7103701001033,917.7110008001328,None,1,0.6125853899866343,2.6131908900570124,decreament,0.6,1,standard,None,100,,,,,,,,m,22,209,fr,r,0,raw,2022-05-20_14h22.25.056,oddball,2022.1.2,59.91450201025426,
0,,,,,0,0,0,0,5,0,5,0,28,0,28,0,,,,,,,,,,,,,,,,,917.727810600074,None,918.6116095001344,919.2119231000543,919.1951606001239,921.1960780001245,None,1,0.6123526899609715,2.6132792900316417,decreament,0.6,1,standard,None,100,,,,,,,,m,22,209,fr,r,0,raw,2022-05-20_14h22.25.056,oddball,2022.1.2,59.91450201025426,
0,,,,,0,0,0,0,5,0,5,0,29,0,29,0,,,,,,,,,,,,,,,,,921.2124181999825,None,921.812885900028,922.412592299981,922.3960434000473,924.3975379001349,None,1,0.6125539899803698,2.6141078900545835,decreament,0.6,1,standard,None,100,,,,,,,,m,22,209,fr,r,0,raw,2022-05-20_14h22.25.056,oddball,2022.1.2,59.91450201025426,
0,,,,,0,0,0,0,6,0,6,0,0,0,0,0,,,,,,,,,,,,,,,925.27639740007,None,928.9822486001067,None,929.7823427000549,930.3829386001453,930.3659103000537,932.36694860016,None,1,0.6083196899853647,2.609418589854613,increament,0.6,5,standard,None,100,,924.4139267001301,None,,,,,m,22,209,fr,r,0,raw,2022-05-20_14h22.25.056,oddball,2022.1.2,59.91450201025426,
0,,,,,0,0,0,0,6,0,6,0,1,0,1,0,,,,,,,,,,,,,,,,,932.3837862999644,None,933.0835251000244,933.6839527001139,933.6673681000248,935.6680588000454,None,1,0.6132857899647206,2.613929789979011,increament,0.6,5,standard,None,100,,,,,,,,m,22,209,fr,r,0,raw,2022-05-20_14h22.25.056,oddball,2022.1.2,59.91450201025426,
0,,,,,0,0,0,0,6,0,6,0,2,0,2,0,,,,,,,,,,,,,,,,,935.6844991000835,None,936.4349460999947,937.0353692001663,937.0187493001577,939.0192605000921,None,1,0.613133889855817,2.6136677898466587,increament,0.6,5,standard,None,100,,,,,,,,m,22,209,fr,r,0,raw,2022-05-20_14h22.25.056,oddball,2022.1.2,59.91450201025426,
0,,,,,0,0,0,0,6,0,6,0,3,0,3,0,,,,,,,,,,,,,,,,,939.0361452000216,None,939.9027227000333,940.5030433000065,940.4868308000732,942.4873697999865,None,1,0.6145751900039613,2.6151084899902344,increament,0.6,5,standard,None,100,,,,,,,,m,22,209,fr,r,0,raw,2022-05-20_14h22.25.056,oddball,2022.1.2,59.91450201025426,
0,,,,,0,0,0,0,6,0,6,0,4,0,4,0,,,,,,,,,,,,,,,,,942.5045086001046,None,943.0875079999678,943.6876521999948,943.6709736001212,945.671550200088,None,1,0.6136891900096089,2.6142757900524884,increament,0.6,5,standard,None,100,,,,,,,,m,22,209,fr,r,0,raw,2022-05-20_14h22.25.056,oddball,2022.1.2,59.91450201025426,
0,,,,,0,0,0,0,6,0,6,0,5,0,5,0,,,,,,,,,,,,,,,,,945.6882676000241,None,946.2887470000423,946.888600599952,946.8724263999611,948.8732644000556,None,1,0.6134976900648326,2.6143925900105387,increament,0.6,5,standard,None,100,,,,,,,,m,22,209,fr,r,0,raw,2022-05-20_14h22.25.056,oddball,2022.1.2,59.91450201025426,
0,,,,,0,0,0,0,6,0,6,0,6,0,6,0,,,,,,,,,,,,,,,,,948.8897135001607,None,949.5735772999469,950.1737573000137,950.156766399974,952.1576609001495,None,1,0.6098495901096612,2.6108210901729763,increament,0.6,5,standard,None,100,,,,,,,,m,22,209,fr,r,0,raw,2022-05-20_14h22.25.056,oddball,2022.1.2,59.91450201025426,
0,,,,,0,0,0,0,6,0,6,0,7,0,7,0,,,,,,,,,,,,,,,,,952.174107800005,None,952.8577384999953,953.4579274000134,953.4416885999963,955.441772500053,None,1,0.6112773900385946,2.611290590139106,increament,0.6,5,standard,None,100,,,,,,,,m,22,209,fr,r,0,raw,2022-05-20_14h22.25.056,oddball,2022.1.2,59.91450201025426,
0,,,,,0,0,0,0,6,0,6,0,8,0,8,0,,,,,,,,,,,,,,,,,955.4584684001748,None,956.1425667000003,956.7428194000386,956.7263952000067,958.7266325000674,j,0,0.6106817899271846,2.6108395899645984,increament,0.6,5,standard,None,100,1.0790635999292135,,,,,,,m,22,209,fr,r,0,raw,2022-05-20_14h22.25.056,oddball,2022.1.2,59.91450201025426,
0,,,,,0,0,0,0,6,0,6,0,9,0,9,0,,,,,,,,,,,,,,,,,958.7433418000583,None,959.427215800155,960.0272059000563,960.0106999999844,962.0113063000608,None,1,0.6093773900065571,2.609925289871171,increament,0.6,5,standard,None,100,,,,,,,,m,22,209,fr,r,0,raw,2022-05-20_14h22.25.056,oddball,2022.1.2,59.91450201025426,
0,,,,,0,0,0,0,6,0,6,0,10,0,10,0,,,,,,,,,,,,,,,,,962.0280496000778,None,962.6615727001335,963.2615120001137,963.2450787001289,965.2460565001238,None,1,0.6124647897668183,2.6134999897331,increament,0.6,5,standard,None,100,,,,,,,,m,22,209,fr,r,0,raw,2022-05-20_14h22.25.056,oddball,2022.1.2,59.91450201025426,
0,,,,,0,0,0,0,6,0,6,0,11,0,11,0,,,,,,,,,,,,,,,,,965.2631465001032,None,965.8294131001458,966.4298113000114,966.4133083999623,968.413927000016,None,1,0.6128543901722878,2.613443490350619,increament,0.6,5,standard,None,100,,,,,,,,m,22,209,fr,r,0,raw,2022-05-20_14h22.25.056,oddball,2022.1.2,59.91450201025426,
0,,,,,0,0,0,0,6,0,6,0,12,0,12,0,,,,,,,,,,,,,,,,,968.4305754001252,None,969.2140804999508,969.9478959001135,969.9143998001236,971.9149768000934,j,1,0.7279863902367651,2.7285280900541693,increament,0.72,6,oddball,j,120,0.45176459988579154,,,,,,,m,22,209,fr,r,0,raw,2022-05-20_14h22.25.056,oddball,2022.1.2,59.91450201025426,
0,,,,,0,0,0,0,6,0,6,0,13,0,13,0,,,,,,,,,,,,,,,,,971.9319728000555,None,972.5818303001579,973.1824195999652,973.1653905001003,975.166522399988,None,1,0.6126398900523782,2.6138071899767965,increament,0.6,5,standard,None,100,,,,,,,,m,22,209,fr,r,0,raw,2022-05-20_14h22.25.056,oddball,2022.1.2,59.91450201025426,
0,,,,,0,0,0,0,6,0,6,0,14,0,14,0,,,,,,,,,,,,,,,,,975.18300430011,None,975.8000861001201,976.4002469000407,976.3836852000095,978.3845636001788,None,1,0.6094983902294189,2.6103781901765615,increament,0.6,5,standard,None,100,,,,,,,,m,22,209,fr,r,0,raw,2022-05-20_14h22.25.056,oddball,2022.1.2,59.91450201025426,
0,,,,,0,0,0,0,6,0,6,0,15,0,15,0,,,,,,,,,,,,,,,,,978.4009530001786,None,978.984773500124,979.5843486001249,979.5679252999835,981.5685962999705,None,1,0.6093438901007175,2.610060889972374,increament,0.6,5,standard,None,100,,,,,,,,m,22,209,fr,r,0,raw,2022-05-20_14h22.25.056,oddball,2022.1.2,59.91450201025426,
0,,,,,0,0,0,0,6,0,6,0,16,0,16,0,,,,,,,,,,,,,,,,,981.5853751001414,None,982.2026611999609,982.8026389000006,982.7860195001122,984.7869522999972,None,1,0.6097388898488134,2.6106909897644073,increament,0.6,5,standard,None,100,,,,,,,,m,22,209,fr,r,0,raw,2022-05-20_14h22.25.056,oddball,2022.1.2,59.91450201025426,
0,,,,,0,0,0,0,6,0,6,0,17,0,17,0,,,,,,,,,,,,,,,,,984.8031917000189,None,985.4369412001688,986.0369480999652,986.0204819000792,988.0210486000869,None,1,0.6101947901770473,2.610784590244293,increament,0.6,5,standard,None,100,,,,,,,,m,22,209,fr,r,0,raw,2022-05-20_14h22.25.056,oddball,2022.1.2,59.91450201025426,
0,,,,,0,0,0,0,6,0,6,0,18,0,18,0,,,,,,,,,,,,,,,,,988.0377867000643,None,988.6050454999786,989.2049408999737,989.1883046999574,991.1888570999727,None,1,0.6108969901688397,2.6114188900683075,increament,0.6,5,standard,None,100,,,,,,,,m,22,209,fr,r,0,raw,2022-05-20_14h22.25.056,oddball,2022.1.2,59.91450201025426,
0,,,,,0,0,0,0,6,0,6,0,19,0,19,0,,,,,,,,,,,,,,,,,991.2058238000609,None,991.8727452000603,992.4728650001343,992.4564479000401,994.4567351001315,j,0,0.612867389805615,2.613116889959201,increament,0.6,5,standard,None,100,1.4364163000136614,,,,,,,m,22,209,fr,r,0,raw,2022-05-20_14h22.25.056,oddball,2022.1.2,59.91450201025426,
0,,,,,0,0,0,0,6,0,6,0,20,0,20,0,,,,,,,,,,,,,,,,,994.4736381999683,None,995.1074551001657,995.7072831001133,995.690685100155,997.6916873999871,None,1,0.6093738898634911,2.6104075899347663,increament,0.6,5,standard,None,100,,,,,,,,m,22,209,fr,r,0,raw,2022-05-20_14h22.25.056,oddball,2022.1.2,59.91450201025426,
0,,,,,0,0,0,0,6,0,6,0,21,0,21,0,,,,,,,,,,,,,,,,,997.7086773000192,None,998.4583298000507,999.0587389001157,999.0422904000152,1001.0425343001261,None,1,0.612100490136072,2.6122801899909973,increament,0.6,5,standard,None,100,,,,,,,,m,22,209,fr,r,0,raw,2022-05-20_14h22.25.056,oddball,2022.1.2,59.91450201025426,
0,,,,,0,0,0,0,6,0,6,0,22,0,22,0,,,,,,,,,,,,,,,,,1001.0593236000277,None,1001.826398300007,1002.4269385000225,1002.4099634001032,1004.410497300094,None,1,0.6127763900440186,2.6132487901486456,increament,0.6,5,standard,None,100,,,,,,,,m,22,209,fr,r,0,raw,2022-05-20_14h22.25.056,oddball,2022.1.2,59.91450201025426,
0,,,,,0,0,0,0,6,0,6,0,23,0,23,0,,,,,,,,,,,,,,,,,1004.4275679001585,None,1005.1775285999756,1006.1446728999726,1006.1112324001733,1008.1120569000486,j,1,0.9622892900370061,2.9631333900615573,increament,0.96,8,oddball,j,160,0.8627122000325471,,,,,,,m,22,209,fr,r,0,raw,2022-05-20_14h22.25.056,oddball,2022.1.2,59.91450201025426,
0,,,,,0,0,0,0,6,0,6,0,24,0,24,0,,,,,,,,,,,,,,,,,1008.1288380001206,None,1008.8122156001627,1009.4127569999546,1009.3961418999825,1011.3969141000416,None,1,0.6131286898162216,2.6138619899284095,increament,0.6,5,standard,None,100,,,,,,,,m,22,209,fr,r,0,raw,2022-05-20_14h22.25.056,oddball,2022.1.2,59.91450201025426,
0,,,,,0,0,0,0,6,0,6,0,25,0,25,0,,,,,,,,,,,,,,,,,1011.4133411999792,None,1012.096802999964,1012.6969759000931,1012.6807085999753,1014.681195900077,None,1,0.6131861901376396,2.6136816900689155,increament,0.6,5,standard,None,100,,,,,,,,m,22,209,fr,r,0,raw,2022-05-20_14h22.25.056,oddball,2022.1.2,59.91450201025426,
0,,,,,0,0,0,0,6,0,6,0,26,0,26,0,,,,,,,,,,,,,,,,,1014.6990209999494,None,1015.347928600153,1015.9484838000499,1015.9319244001526,1017.9325713999569,None,1,0.6147821901831776,2.6153645901940763,increament,0.6,5,standard,None,100,,,,,,,,m,22,209,fr,r,0,raw,2022-05-20_14h22.25.056,oddball,2022.1.2,59.91450201025426,
0,,,,,0,0,0,0,6,0,6,0,27,0,27,0,,,,,,,,,,,,,,,,,1017.9490482001565,None,1018.5660735000856,1019.1660601000767,1019.149729500059,1021.1503008001018,None,1,0.611728890100494,2.6123116901144385,increament,0.6,5,standard,None,100,,,,,,,,m,22,209,fr,r,0,raw,2022-05-20_14h22.25.056,oddball,2022.1.2,59.91450201025426,
0,,,,,0,0,0,0,6,0,6,0,28,0,28,0,,,,,,,,,,,,,,,,,1021.1669219001196,None,1021.717548500048,1022.5677813000511,1022.5345308999531,1024.5347865000367,j,1,0.8442819900810719,2.8444886901415884,increament,0.84,7,oddball,j,140,0.5990422000177205,,,,,,,m,22,209,fr,r,0,raw,2022-05-20_14h22.25.056,oddball,2022.1.2,59.91450201025426,
0,,,,,0,0,0,0,6,0,6,0,29,0,29,0,,,,,,,,,,,,,,,,,1024.5517971999943,None,1025.1184088001028,1025.7189971001353,1025.7025921000168,1027.7029134000186,None,1,0.6136827901937068,2.613943290198222,increament,0.6,5,standard,None,100,,,,,,,,m,22,209,fr,r,0,raw,2022-05-20_14h22.25.056,oddball,2022.1.2,59.91450201025426,
0,,,,,0,0,0,0,7,0,7,0,0,0,0,0,,,,,,,,,,,,,,,1037.3295112000778,None,1047.0945457001217,None,1047.8272190999705,1048.4274569000117,1048.4109368999489,1050.4114771999884,None,1,0.6129514898639172,2.6134944898076355,decreament,0.6,1,standard,None,100,,1027.719674400054,None,,,,,m,22,209,fr,r,0,raw,2022-05-20_14h22.25.056,oddball,2022.1.2,59.91450201025426,
0,,,,,0,0,0,0,7,0,7,0,1,0,1,0,,,,,,,,,,,,,,,,,1050.428206600016,None,1051.0618739000056,1051.662103699986,1051.6453379001468,1053.6461247000843,None,1,0.6126980900298804,2.6134386900812387,decreament,0.6,1,standard,None,100,,,,,,,,m,22,209,fr,r,0,raw,2022-05-20_14h22.25.056,oddball,2022.1.2,59.91450201025426,
0,,,,,0,0,0,0,7,0,7,0,2,0,2,0,,,,,,,,,,,,,,,,,1053.6628857001197,None,1054.3962199001107,1054.996715300018,1054.980337300105,1056.980785700027,None,1,0.6096254901494831,2.6100667901337147,decreament,0.6,1,standard,None,100,,,,,,,,m,22,209,fr,r,0,raw,2022-05-20_14h22.25.056,oddball,2022.1.2,59.91450201025426,
0,,,,,0,0,0,0,7,0,7,0,3,0,3,0,,,,,,,,,,,,,,,,,1056.9983892000746,None,1057.764143000124,1058.3642541000154,1058.347825200064,1060.3486242999788,None,1,0.6127763900440186,2.6136392902117223,decreament,0.6,1,standard,None,100,,,,,,,,m,22,209,fr,r,0,raw,2022-05-20_14h22.25.056,oddball,2022.1.2,59.91450201025426,
0,,,,,0,0,0,0,7,0,7,0,4,0,4,0,,,,,,,,,,,,,,,,,1060.3651279001497,None,1060.9322059999686,1061.5326356999576,1061.5158472000621,1063.5168223001529,None,1,0.6088492898270488,2.609798489836976,decreament,0.6,1,standard,None,100,,,,,,,,m,22,209,fr,r,0,raw,2022-05-20_14h22.25.056,oddball,2022.1.2,59.91450201025426,
0,,,,,0,0,0,0,7,0,7,0,5,0,5,0,,,,,,,,,,,,,,,,,1063.5330686001107,None,1064.0833294000477,1064.6835321001709,1064.6667504000943,1066.6677543001715,None,1,0.6094620900694281,2.610486689954996,decreament,0.6,1,standard,None,100,,,,,,,,m,22,209,fr,r,0,raw,2022-05-20_14h22.25.056,oddball,2022.1.2,59.91450201025426,
0,,,,,0,0,0,0,7,0,7,0,6,0,6,0,,,,,,,,,,,,,,,,,1066.6845513000153,None,1067.3510670000687,1067.951522000134,1067.9346271001268,1069.935374099994,None,1,0.6131004900671542,2.613850489957258,decreament,0.6,1,standard,None,100,,,,,,,,m,22,209,fr,r,0,raw,2022-05-20_14h22.25.056,oddball,2022.1.2,59.91450201025426,
0,,,,,0,0,0,0,7,0,7,0,7,0,7,0,,,,,,,,,,,,,,,,,1069.952308200067,None,1070.7026625999715,1071.302815800067,1071.2863098001108,1073.2867551001254,None,1,0.6115663901437074,2.611994090024382,decreament,0.6,1,standard,None,100,,,,,,,,m,22,209,fr,r,0,raw,2022-05-20_14h22.25.056,oddball,2022.1.2,59.91450201025426,
0,,,,,0,0,0,0,7,0,7,0,8,0,8,0,,,,,,,,,,,,,,,,,1073.303471500054,None,1074.0038430001587,1074.604270900134,1074.5874344001058,1076.5878290000837,None,1,0.6122193897608668,2.6126179897692055,decreament,0.6,1,standard,None,100,,,,,,,,m,22,209,fr,r,0,raw,2022-05-20_14h22.25.056,oddball,2022.1.2,59.91450201025426,
0,,,,,0,0,0,0,7,0,7,0,9,0,9,0,,,,,,,,,,,,,,,,,1076.6046881000511,None,1077.1887854000088,1077.7888204001356,1077.7722756001167,1079.77239440009,None,1,0.6097549900878221,2.609771389979869,decreament,0.6,1,standard,None,100,,,,,,,,m,22,209,fr,r,0,raw,2022-05-20_14h22.25.056,oddball,2022.1.2,59.91450201025426,
0,,,,,0,0,0,0,7,0,7,0,10,0,10,0,,,,,,,,,,,,,,,,,1079.7892462001182,None,1080.4727700999938,1081.0731937000528,1081.056649000151,1083.0572498000693,None,1,0.6098104901611805,2.610423990059644,decreament,0.6,1,standard,None,100,,,,,,,,m,22,209,fr,r,0,raw,2022-05-20_14h22.25.056,oddball,2022.1.2,59.91450201025426,
0,,,,,0,0,0,0,7,0,7,0,11,0,11,0,,,,,,,,,,,,,,,,,1083.0744658000767,None,1083.7075011001434,1084.1905322000384,1084.1739020000678,1086.1749315999914,None,0,0.49330179020762444,2.4943891901057214,decreament,0.48,4,oddball,j,80,,,,,,,,m,22,209,fr,r,0,raw,2022-05-20_14h22.25.056,oddball,2022.1.2,59.91450201025426,
0,,,,,0,0,0,0,7,0,7,0,12,0,12,0,,,,,,,,,,,,,,,,,1086.1918586001266,None,1086.8588779000565,1087.4592721001245,1087.4423323001247,1089.4430160999764,None,1,0.6105768897105008,2.6111828899011016,decreament,0.6,1,standard,None,100,,,,,,,,m,22,209,fr,r,0,raw,2022-05-20_14h22.25.056,oddball,2022.1.2,59.91450201025426,
0,,,,,0,0,0,0,7,0,7,0,13,0,13,0,,,,,,,,,,,,,,,,,1089.46046880004,None,1090.2934614000842,1090.8932378001045,1090.8769656999502,1092.8773507000878,None,1,0.6097682898398489,2.6100847898051143,decreament,0.6,1,standard,None,100,,,,,,,,m,22,209,fr,r,0,raw,2022-05-20_14h22.25.056,oddball,2022.1.2,59.91450201025426,
0,,,,,0,0,0,0,7,0,7,0,14,0,14,0,,,,,,,,,,,,,,,,,1092.8940245001577,None,1093.4942743000574,1094.0944475000724,1094.07801320008,1096.0785877001472,None,1,0.6133570899255574,2.61395149002783,decreament,0.6,1,standard,None,100,,,,,,,,m,22,209,fr,r,0,raw,2022-05-20_14h22.25.056,oddball,2022.1.2,59.91450201025426,
0,,,,,0,0,0,0,7,0,7,0,15,0,15,0,,,,,,,,,,,,,,,,,1096.0952337000053,None,1096.6793341999874,1097.2793085000012,1097.2625255000312,1099.2631712001748,None,1,0.6102265899535269,2.6108897901140153,decreament,0.6,1,standard,None,100,,,,,,,,m,22,209,fr,r,0,raw,2022-05-20_14h22.25.056,oddball,2022.1.2,59.91450201025426,
0,,,,,0,0,0,0,7,0,7,0,16,0,16,0,,,,,,,,,,,,,,,,,1099.2801177001093,None,1099.8803743000608,1100.4802687000483,1100.4635356999934,1102.464726000093,None,1,0.6104061901569366,2.6116947901900858,decreament,0.6,1,standard,None,100,,,,,,,,m,22,209,fr,r,0,raw,2022-05-20_14h22.25.056,oddball,2022.1.2,59.91450201025426,
0,,,,,0,0,0,0,7,0,7,0,17,0,17,0,,,,,,,,,,,,,,,,,1102.4811923999805,None,1103.198357900139,1103.7982266000472,1103.7816491001286,1105.7825029001106,None,1,0.6111577900592238,2.6120855899062008,decreament,0.6,1,standard,None,100,,,,,,,,m,22,209,fr,r,0,raw,2022-05-20_14h22.25.056,oddball,2022.1.2,59.91450201025426,
0,,,,,0,0,0,0,7,0,7,0,18,0,18,0,,,,,,,,,,,,,,,,,1105.7993813999929,None,1106.3993361000903,1106.6493015000597,1106.615976500092,1108.6167342001572,j,1,0.24399589002132416,2.2447084900923073,decreament,0.24,2,oddball,j,40,1.0528567000292242,,,,,,,m,22,209,fr,r,0,raw,2022-05-20_14h22.25.056,oddball,2022.1.2,59.91450201025426,
0,,,,,0,0,0,0,7,0,7,0,19,0,19,0,,,,,,,,,,,,,,,,,1108.6335207000375,None,1109.2172773000784,1109.8171218000352,1109.801040200051,1111.8013953000773,None,1,0.6117134899832308,2.6120736899320036,decreament,0.6,1,standard,None,100,,,,,,,,m,22,209,fr,r,0,raw,2022-05-20_14h22.25.056,oddball,2022.1.2,59.91450201025426,
0,,,,,0,0,0,0,7,0,7,0,20,0,20,0,,,,,,,,,,,,,,,,,1111.817983499961,None,1112.5850224001333,1113.1853328000288,1113.1689879000187,1115.1692196000367,None,1,0.610915589844808,2.6110702897422016,decreament,0.6,1,standard,None,100,,,,,,,,m,22,209,fr,r,0,raw,2022-05-20_14h22.25.056,oddball,2022.1.2,59.91450201025426,
0,,,,,0,0,0,0,7,0,7,0,21,0,21,0,,,,,,,,,,,,,,,,,1115.1858445999678,None,1115.8528762999922,1116.4530241000466,1116.4370282001328,1118.4373131999746,None,1,0.6130809900350869,2.613343490054831,decreament,0.6,1,standard,None,100,,,,,,,,m,22,209,fr,r,0,raw,2022-05-20_14h22.25.056,oddball,2022.1.2,59.91450201025426,
0,,,,,0,0,0,0,7,0,7,0,22,0,22,0,,,,,,,,,,,,,,,,,1118.453938700026,None,1119.1206770001445,1119.7211194001138,1119.7047757999972,1121.705107399961,None,1,0.6136955900583416,2.613994190003723,decreament,0.6,1,standard,None,100,,,,,,,,m,22,209,fr,r,0,raw,2022-05-20_14h22.25.056,oddball,2022.1.2,59.91450201025426,
0,,,,,0,0,0,0,7,0,7,0,23,0,23,0,,,,,,,,,,,,,,,,,1121.7218739001546,None,1122.2555615999736,1122.855596800102,1122.8390665999614,1124.8397517001722,None,1,0.6100213900208473,2.6106942899059504,decreament,0.6,1,standard,None,100,,,,,,,,m,22,209,fr,r,0,raw,2022-05-20_14h22.25.056,oddball,2022.1.2,59.91450201025426,
0,,,,,0,0,0,0,7,0,7,0,24,0,24,0,,,,,,,,,,,,,,,,,1124.856361699989,None,1125.4897557999939,1126.089891599957,1126.0733132001478,1128.0743364000227,j,0,0.6151224900968373,2.616170489927754,decreament,0.6,1,standard,None,100,0.5648006000556052,,,,,,,m,22,209,fr,r,0,raw,2022-05-20_14h22.25.056,oddball,2022.1.2,59.91450201025426,
0,,,,,0,0,0,0,7,0,7,0,25,0,25,0,,,,,,,,,,,,,,,,,1128.090875300113,None,1128.7075759000145,1129.3081243999768,1129.291583100101,1131.2921651999932,None,1,0.6128183898981661,2.61331958998926,decreament,0.6,1,standard,None,100,,,,,,,,m,22,209,fr,r,0,raw,2022-05-20_14h22.25.056,oddball,2022.1.2,59.91450201025426,
0,,,,,0,0,0,0,7,0,7,0,26,0,26,0,,,,,,,,,,,,,,,,,1131.30903210002,None,1131.9257434001192,1132.5258254001383,1132.50913999998,1134.5096897999756,None,1,0.6123978900723159,2.6129415901377797,decreament,0.6,1,standard,None,100,,,,,,,,m,22,209,fr,r,0,raw,2022-05-20_14h22.25.056,oddball,2022.1.2,59.91450201025426,
0,,,,,0,0,0,0,7,0,7,0,27,0,27,0,,,,,,,,,,,,,,,,,1134.5269224001095,None,1135.210164600052,1135.8103098000865,1135.79377009999,1137.794741100166,None,1,0.611619990086183,2.6126634899992496,decreament,0.6,1,standard,None,100,,,,,,,,m,22,209,fr,r,0,raw,2022-05-20_14h22.25.056,oddball,2022.1.2,59.91450201025426,
0,,,,,0,0,0,0,7,0,7,0,28,0,28,0,,,,,,,,,,,,,,,,,1137.8109534999821,None,1138.595061799977,1139.1952398000285,1139.1785296001472,1141.1792447001208,None,1,0.6095776897855103,2.6102860898245126,decreament,0.6,1,standard,None,100,,,,,,,,m,22,209,fr,r,0,raw,2022-05-20_14h22.25.056,oddball,2022.1.2,59.91450201025426,
0,,,,,0,0,0,0,7,0,7,0,29,0,29,0,,,,,,,,,,,,,,,,,1141.195756400004,None,1141.7130315001123,1142.079502500128,1142.0463103000075,1144.0466966000386,None,0,0.3606891897507012,2.3610111898742616,decreament,0.36,3,oddball,j,60,,,,,,,,m,22,209,fr,r,0,raw,2022-05-20_14h22.25.056,oddball,2022.1.2,59.91450201025426,
0,,,,,0,0,0,0,8,0,8,0,0,0,0,0,,,,,,,,,,,,,,,1159.9440830000676,None,1161.3700023000129,None,1162.137657900108,1162.7374844001606,1162.7205854000058,1164.7213051000144,None,1,0.6083725900389254,2.609086490003392,increament,0.6,5,standard,None,100,,1144.064010699978,None,,,,,m,22,209,fr,r,0,raw,2022-05-20_14h22.25.056,oddball,2022.1.2,59.91450201025426,
0,,,,,0,0,0,0,8,0,8,0,1,0,1,0,,,,,,,,,,,,,,,,,1164.7381861000322,None,1165.3216794000473,1165.9219607999548,1165.9052910001483,1167.9056941000745,None,1,0.6121364899445325,2.612515589920804,increament,0.6,5,standard,None,100,,,,,,,,m,22,209,fr,r,0,raw,2022-05-20_14h22.25.056,oddball,2022.1.2,59.91450201025426,
0,,,,,0,0,0,0,8,0,8,0,2,0,2,0,,,,,,,,,,,,,,,,,1167.9226496000774,None,1168.5729474001564,1169.173147500027,1169.1563868999947,1171.1574930001516,None,1,0.6114271897822618,2.612588489893824,increament,0.6,5,standard,None,100,,,,,,,,m,22,209,fr,r,0,raw,2022-05-20_14h22.25.056,oddball,2022.1.2,59.91450201025426,
0,,,,,0,0,0,0,8,0,8,0,3,0,3,0,,,,,,,,,,,,,,,,,1171.1740657000337,None,1171.8910870000254,1172.4911430999637,1172.474266699981,1174.475619400153,None,1,0.6100198898930103,2.6114291900303215,increament,0.6,5,standard,None,100,,,,,,,,m,22,209,fr,r,0,raw,2022-05-20_14h22.25.056,oddball,2022.1.2,59.91450201025426,
0,,,,,0,0,0,0,8,0,8,0,4,0,4,0,,,,,,,,,,,,,,,,,1174.4922442000825,None,1175.1253436000552,1175.7255675999913,1175.7088777001482,1177.7095323000103,None,1,0.6133459901902825,2.6139712904114276,increament,0.6,5,standard,None,100,,,,,,,,m,22,209,fr,r,0,raw,2022-05-20_14h22.25.056,oddball,2022.1.2,59.91450201025426,
0,,,,,0,0,0,0,8,0,8,0,5,0,5,0,,,,,,,,,,,,,,,,,1177.7261199001223,None,1178.4100730000064,1179.0102566001005,1178.993656200124,1180.9941724000964,None,1,0.6113868900574744,2.611876989947632,increament,0.6,5,standard,None,100,,,,,,,,m,22,209,fr,r,0,raw,2022-05-20_14h22.25.056,oddball,2022.1.2,59.91450201025426,
0,,,,,0,0,0,0,8,0,8,0,6,0,6,0,,,,,,,,,,,,,,,,,1181.0111496001482,None,1181.7445869999938,1182.7118115001358,1182.6782988000195,1184.6790545999538,j,1,0.9624590899329633,2.963211789727211,increament,0.96,8,oddball,j,160,0.6550179000478238,,,,,,,m,22,209,fr,r,0,raw,2022-05-20_14h22.25.056,oddball,2022.1.2,59.91450201025426,
0,,,,,0,0,0,0,8,0,8,0,7,0,7,0,,,,,,,,,,,,,,,,,1184.6956615000963,None,1185.3127621000167,1185.9125241001602,1185.896011200035,1187.8967961000744,None,1,0.6097523898351938,2.6105502899736166,increament,0.6,5,standard,None,100,,,,,,,,m,22,209,fr,r,0,raw,2022-05-20_14h22.25.056,oddball,2022.1.2,59.91450201025426,
0,,,,,0,0,0,0,8,0,8,0,8,0,8,0,,,,,,,,,,,,,,,,,1187.913618599996,None,1188.6640061000362,1189.2642341000028,1189.2474897999782,1191.2481939999852,None,1,0.6126217900309712,2.6132602898869663,increament,0.6,5,standard,None,100,,,,,,,,m,22,209,fr,r,0,raw,2022-05-20_14h22.25.056,oddball,2022.1.2,59.91450201025426,
0,,,,,0,0,0,0,8,0,8,0,9,0,9,0,,,,,,,,,,,,,,,,,1191.2647881000303,None,1192.1317902000155,1192.731917400146,1192.7153390999883,1194.7164392000996,None,1,0.612600089982152,2.613529589958489,increament,0.6,5,standard,None,100,,,,,,,,m,22,209,fr,r,0,raw,2022-05-20_14h22.25.056,oddball,2022.1.2,59.91450201025426,
0,,,,,0,0,0,0,8,0,8,0,10,0,10,0,,,,,,,,,,,,,,,,,1194.7331740001682,None,1195.38317860011,1195.9833202001173,1195.9667841000482,1197.967071400024,None,1,0.6128056899178773,2.6130095899570733,increament,0.6,5,standard,None,100,,,,,,,,m,22,209,fr,r,0,raw,2022-05-20_14h22.25.056,oddball,2022.1.2,59.91450201025426,
0,,,,,0,0,0,0,8,0,8,0,11,0,11,0,,,,,,,,,,,,,,,,,1197.9841557999607,None,1198.5675219001714,1199.1676821999718,1199.1512521000113,1201.1517476001754,None,1,0.6082976898178458,2.6088078897446394,increament,0.6,5,standard,None,100,,,,,,,,m,22,209,fr,r,0,raw,2022-05-20_14h22.25.056,oddball,2022.1.2,59.91450201025426,
0,,,,,0,0,0,0,8,0,8,0,12,0,12,0,,,,,,,,,,,,,,,,,1201.1686399001628,None,1201.769041000167,1202.5023032999597,1202.4689875999466,1204.469821000006,j,1,0.7264451899100095,2.7272670899983495,increament,0.72,6,oddball,j,120,0.4248647999484092,,,,,,,m,22,209,fr,r,0,raw,2022-05-20_14h22.25.056,oddball,2022.1.2,59.91450201025426,
0,,,,,0,0,0,0,8,0,8,0,13,0,13,0,,,,,,,,,,,,,,,,,1204.4865192000289,None,1205.2701249001548,1205.8704025000334,1205.8536030000541,1207.854497600114,None,1,0.6123834899626672,2.613294790033251,increament,0.6,5,standard,None,100,,,,,,,,m,22,209,fr,r,0,raw,2022-05-20_14h22.25.056,oddball,2022.1.2,59.91450201025426,
0,,,,,0,0,0,0,8,0,8,0,14,0,14,0,,,,,,,,,,,,,,,,,1207.8713158001192,None,1208.554598600138,1209.1550547999796,1209.1384268000256,1211.1390873000491,None,1,0.6097690898459405,2.610527589917183,increament,0.6,5,standard,None,100,,,,,,,,m,22,209,fr,r,0,raw,2022-05-20_14h22.25.056,oddball,2022.1.2,59.91450201025426,
0,,,,,0,0,0,0,8,0,8,0,15,0,15,0,,,,,,,,,,,,,,,,,1211.155490500154,None,1211.7060090999585,1212.3062191000208,1212.2898280001245,1214.2899452000856,None,1,0.6110074899625033,2.611094889929518,increament,0.6,5,standard,None,100,,,,,,,,m,22,209,fr,r,0,raw,2022-05-20_14h22.25.056,oddball,2022.1.2,59.91450201025426,
0,,,,,0,0,0,0,8,0,8,0,16,0,16,0,,,,,,,,,,,,,,,,,1214.3067120001651,None,1214.9405255001038,1215.5406727001537,1215.5238757999614,1217.5247380000073,j,0,0.61051528993994,2.6114132900256664,increament,0.6,5,standard,None,100,0.42518580006435513,,,,,,,m,22,209,fr,r,0,raw,2022-05-20_14h22.25.056,oddball,2022.1.2,59.91450201025426,
0,,,,,0,0,0,0,8,0,8,0,17,0,17,0,,,,,,,,,,,,,,,,,1217.5413893000223,None,1218.1754370001145,1218.7751851000357,1218.7587111000903,1220.7595238001086,None,1,0.6100327898748219,2.6108125899918377,increament,0.6,5,standard,None,100,,,,,,,,m,22,209,fr,r,0,raw,2022-05-20_14h22.25.056,oddball,2022.1.2,59.91450201025426,
0,,,,,0,0,0,0,8,0,8,0,18,0,18,0,,,,,,,,,,,,,,,,,1220.7763496001717,None,1221.4762004001532,1222.0766537999734,1222.060280600097,1224.060590900015,None,1,0.6103146898094565,2.6105691897682846,increament,0.6,5,standard,None,100,,,,,,,,m,22,209,fr,r,0,raw,2022-05-20_14h22.25.056,oddball,2022.1.2,59.91450201025426,
0,,,,,0,0,0,0,8,0,8,0,19,0,19,0,,,,,,,,,,,,,,,,,1224.0771248000674,None,1224.6106598000042,1225.2111095001455,1225.1943986001424,1227.1952138999477,None,1,0.6147956899367273,2.6155362899880856,increament,0.6,5,standard,None,100,,,,,,,,m,22,209,fr,r,0,raw,2022-05-20_14h22.25.056,oddball,2022.1.2,59.91450201025426,
0,,,,,0,0,0,0,8,0,8,0,20,0,20,0,,,,,,,,,,,,,,,,,1227.2117926001083,None,1227.762277700007,1228.3620500001125,1228.3454752999824,1230.3459994001314,None,1,0.6106306898873299,2.611153889913112,increament,0.6,5,standard,None,100,,,,,,,,m,22,209,fr,r,0,raw,2022-05-20_14h22.25.056,oddball,2022.1.2,59.91450201025426,
0,,,,,0,0,0,0,8,0,8,0,21,0,21,0,,,,,,,,,,,,,,,,,1230.3628553999588,None,1230.9632729000878,1231.5634557001758,1231.547009800095,1233.547367000021,j,0,0.6111359898932278,2.6114433899056166,increament,0.6,5,standard,None,100,0.337818699888885,,,,,,,m,22,209,fr,r,0,raw,2022-05-20_14h22.25.056,oddball,2022.1.2,59.91450201025426,
0,,,,,0,0,0,0,8,0,8,0,22,0,22,0,,,,,,,,,,,,,,,,,1233.564265300054,None,1234.3148223001044,1234.9145677001216,1234.8978701999877,1236.8989349999465,None,1,0.6104660900309682,2.6115829900372773,increament,0.6,5,standard,None,100,,,,,,,,m,22,209,fr,r,0,raw,2022-05-20_14h22.25.056,oddball,2022.1.2,59.91450201025426,
0,,,,,0,0,0,0,8,0,8,0,23,0,23,0,,,,,,,,,,,,,,,,,1236.9162010001019,None,1237.59911680012,1238.1997432999779,1238.1826740000397,1240.1836113999598,None,1,0.6120813901070505,2.6129905900452286,increament,0.6,5,standard,None,100,,,,,,,,m,22,209,fr,r,0,raw,2022-05-20_14h22.25.056,oddball,2022.1.2,59.91450201025426,
0,,,,,0,0,0,0,8,0,8,0,24,0,24,0,,,,,,,,,,,,,,,,,1240.199990699999,None,1240.9502081000246,1241.8004598000553,1241.7672419000883,1243.7679912999738,None,0,0.8458717900793999,2.8466594899073243,increament,0.84,7,oddball,j,140,,,,,,,,m,22,209,fr,r,0,raw,2022-05-20_14h22.25.056,oddball,2022.1.2,59.91450201025426,
0,,,,,0,0,0,0,8,0,8,0,25,0,25,0,,,,,,,,,,,,,,,,,1243.784981600009,None,1244.3685245001689,1244.9686304000206,1244.9517429000698,1246.952530000126,None,1,0.610371989896521,2.6111848896835,increament,0.6,5,standard,None,100,,,,,,,,m,22,209,fr,r,0,raw,2022-05-20_14h22.25.056,oddball,2022.1.2,59.91450201025426,
0,,,,,0,0,0,0,8,0,8,0,26,0,26,0,,,,,,,,,,,,,,,,,1246.9692243000027,None,1247.5365804000758,1248.136163600022,1248.119443200063,1250.1206905001309,None,1,0.609003690071404,2.6103902901522815,increament,0.6,5,standard,None,100,,,,,,,,m,22,209,fr,r,0,raw,2022-05-20_14h22.25.056,oddball,2022.1.2,59.91450201025426,
0,,,,,0,0,0,0,8,0,8,0,27,0,27,0,,,,,,,,,,,,,,,,,1250.1380086999852,None,1250.8543889999855,1251.4543206000235,1251.4377109000925,1253.4387296000496,j,0,0.6125570901203901,2.613581790123135,increament,0.6,5,standard,None,100,0.39106640010140836,,,,,,,m,22,209,fr,r,0,raw,2022-05-20_14h22.25.056,oddball,2022.1.2,59.91450201025426,
0,,,,,0,0,0,0,8,0,8,0,28,0,28,0,,,,,,,,,,,,,,,,,1253.4549301001243,None,1254.0717939001042,1254.672012800118,1254.6553718999494,1256.6558123000432,None,1,0.6120974898803979,2.612521689850837,increament,0.6,5,standard,None,100,,,,,,,,m,22,209,fr,r,0,raw,2022-05-20_14h22.25.056,oddball,2022.1.2,59.91450201025426,
0,,,,,0,0,0,0,8,0,8,0,29,0,29,0,,,,,,,,,,,,,,,,,1256.6724515000824,None,1257.4565359000117,1258.0568773001432,1258.0401151999831,1260.0409955000505,None,1,0.6123674898408353,2.6132656899280846,increament,0.6,5,standard,None,100,,,,,,,,m,22,209,fr,r,0,raw,2022-05-20_14h22.25.056,oddball,2022.1.2,59.91450201025426,
0,,,,,0,0,0,0,9,0,9,0,0,0,0,0,,,,,,,,,,,,,,,1273.2869782999624,None,1284.283105000155,None,1284.9505241001025,1285.5506953001022,1285.534435900161,1287.5346318001393,None,1,0.6096329898573458,2.609822090016678,decreament,0.6,1,standard,None,100,,1260.0580133001786,None,,,,,m,22,209,fr,r,0,raw,2022-05-20_14h22.25.056,oddball,2022.1.2,59.91450201025426,
0,,,,,0,0,0,0,9,0,9,0,1,0,1,0,,,,,,,,,,,,,,,,,1287.5513854001183,None,1288.368396700127,1288.9686388000846,1288.9520124001428,1290.9529139001388,None,1,0.6124048901256174,2.613325590034947,decreament,0.6,1,standard,None,100,,,,,,,,m,22,209,fr,r,0,raw,2022-05-20_14h22.25.056,oddball,2022.1.2,59.91450201025426,
0,,,,,0,0,0,0,9,0,9,0,2,0,2,0,,,,,,,,,,,,,,,,,1290.969284800114,None,1291.5866245999932,1292.1863933999557,1292.1697729001753,1294.1703351000324,None,1,0.6096992900129408,2.6102632901165634,decreament,0.6,1,standard,None,100,,,,,,,,m,22,209,fr,r,0,raw,2022-05-20_14h22.25.056,oddball,2022.1.2,59.91450201025426,
0,,,,,0,0,0,0,9,0,9,0,3,0,3,0,,,,,,,,,,,,,,,,,1294.186996200122,None,1294.7709991000593,1295.371074500028,1295.3543289999943,1297.3548787001055,None,1,0.60939248977229,2.6098902898374945,decreament,0.6,1,standard,None,100,,,,,,,,m,22,209,fr,r,0,raw,2022-05-20_14h22.25.056,oddball,2022.1.2,59.91450201025426,
0,,,,,0,0,0,0,9,0,9,0,4,0,4,0,,,,,,,,,,,,,,,,,1297.3718992001377,None,1298.0049930000678,1298.6058481000364,1298.588795500109,1300.5896040000953,None,1,0.6133643900975585,2.6141660900320858,decreament,0.6,1,standard,None,100,,,,,,,,m,22,209,fr,r,0,raw,2022-05-20_14h22.25.056,oddball,2022.1.2,59.91450201025426,
0,,,,,0,0,0,0,9,0,9,0,5,0,5,0,,,,,,,,,,,,,,,,,1300.6060975999571,None,1301.2896363001782,1301.8901263000444,1301.8735796001274,1303.8742822001223,None,1,0.6136350899469107,2.614372189855203,decreament,0.6,1,standard,None,100,,,,,,,,m,22,209,fr,r,0,raw,2022-05-20_14h22.25.056,oddball,2022.1.2,59.91450201025426,
0,,,,,0,0,0,0,9,0,9,0,6,0,6,0,,,,,,,,,,,,,,,,,1303.891575400019,None,1304.557649699971,1305.1578146000393,1305.1412510999944,1307.1421423000284,None,1,0.6095787899103016,2.6104785897769034,decreament,0.6,1,standard,None,100,,,,,,,,m,22,209,fr,r,0,raw,2022-05-20_14h22.25.056,oddball,2022.1.2,59.91450201025426,
0,,,,,0,0,0,0,9,0,9,0,7,0,7,0,,,,,,,,,,,,,,,,,1307.1586969001219,None,1307.942255700007,1308.5425857000519,1308.5260288000572,1310.5268523001578,None,1,0.6129131896886975,2.613752289908007,decreament,0.6,1,standard,None,100,,,,,,,,m,22,209,fr,r,0,raw,2022-05-20_14h22.25.056,oddball,2022.1.2,59.91450201025426,
0,,,,,0,0,0,0,9,0,9,0,8,0,8,0,,,,,,,,,,,,,,,,,1310.5435130000114,None,1311.2436685999855,1311.8439526001457,1311.8271619000006,1313.827948700171,None,1,0.6122254901565611,2.6129809899721295,decreament,0.6,1,standard,None,100,,,,,,,,m,22,209,fr,r,0,raw,2022-05-20_14h22.25.056,oddball,2022.1.2,59.91450201025426,
0,,,,,0,0,0,0,9,0,9,0,9,0,9,0,,,,,,,,,,,,,,,,,1313.8447877001017,None,1314.6782519000117,1315.2782242000103,1315.2619440001436,1317.262056000065,None,1,0.6111052900087088,2.6112113900016993,decreament,0.6,1,standard,None,100,,,,,,,,m,22,209,fr,r,0,raw,2022-05-20_14h22.25.056,oddball,2022.1.2,59.91450201025426,
0,,,,,0,0,0,0,9,0,9,0,10,0,10,0,,,,,,,,,,,,,,,,,1317.278789400123,None,1317.9798505001236,1318.462759300135,1318.4461906000506,1320.4470222000964,None,0,0.4942068897653371,2.4950785897672176,decreament,0.48,4,oddball,j,80,,,,,,,,m,22,209,fr,r,0,raw,2022-05-20_14h22.25.056,oddball,2022.1.2,59.91450201025426,
0,,,,,0,0,0,0,9,0,9,0,11,0,11,0,,,,,,,,,,,,,,,,,1320.4636132000014,None,1321.1475557000376,1321.7474803000223,1321.7308055001777,1323.7313870000653,None,1,0.6095568900927901,2.6101114901248366,decreament,0.6,1,standard,None,100,,,,,,,,m,22,209,fr,r,0,raw,2022-05-20_14h22.25.056,oddball,2022.1.2,59.91450201025426,
0,,,,,0,0,0,0,9,0,9,0,12,0,12,0,,,,,,,,,,,,,,,,,1323.7482613001484,None,1324.4316956000403,1325.032232500147,1325.01612689998,1327.0160058001056,None,1,0.6139875901862979,2.613792089978233,decreament,0.6,1,standard,None,100,,,,,,,,m,22,209,fr,r,0,raw,2022-05-20_14h22.25.056,oddball,2022.1.2,59.91450201025426,
0,,,,,0,0,0,0,9,0,9,0,13,0,13,0,,,,,,,,,,,,,,,,,1327.033048100071,None,1327.699954800075,1328.2999397001695,1328.2837213000748,1330.2844559000805,None,1,0.6133259900379926,2.614035189850256,decreament,0.6,1,standard,None,100,,,,,,,,m,22,209,fr,r,0,raw,2022-05-20_14h22.25.056,oddball,2022.1.2,59.91450201025426,
0,,,,,0,0,0,0,9,0,9,0,14,0,14,0,,,,,,,,,,,,,,,,,1330.301047099987,None,1331.1675740999635,1331.7679606000893,1331.7513067000546,1333.7519543000963,None,1,0.6132977902889252,2.613995290128514,decreament,0.6,1,standard,None,100,,,,,,,,m,22,209,fr,r,0,raw,2022-05-20_14h22.25.056,oddball,2022.1.2,59.91450201025426,
0,,,,,0,0,0,0,9,0,9,0,15,0,15,0,,,,,,,,,,,,,,,,,1333.7687083999626,None,1334.5188899999484,1335.1191652000416,1335.1033026999794,1337.10348540009,None,1,0.614244390046224,2.6144107901491225,decreament,0.6,1,standard,None,100,,,,,,,,m,22,209,fr,r,0,raw,2022-05-20_14h22.25.056,oddball,2022.1.2,59.91450201025426,
0,,,,,0,0,0,0,9,0,9,0,16,0,16,0,,,,,,,,,,,,,,,,,1337.1198891000822,None,1337.8371154000051,1338.4372934000567,1338.4208623000886,1340.421214299975,None,1,0.6121906901244074,2.612480590119958,decreament,0.6,1,standard,None,100,,,,,,,,m,22,209,fr,r,0,raw,2022-05-20_14h22.25.056,oddball,2022.1.2,59.91450201025426,
0,,,,,0,0,0,0,9,0,9,0,17,0,17,0,,,,,,,,,,,,,,,,,1340.438104599947,None,1341.1715882001445,1341.772322300123,1341.7553579001687,1343.7560841001105,None,1,0.6096641898620874,2.6103852898813784,decreament,0.6,1,standard,None,100,,,,,,,,m,22,209,fr,r,0,raw,2022-05-20_14h22.25.056,oddball,2022.1.2,59.91450201025426,
0,,,,,0,0,0,0,9,0,9,0,18,0,18,0,,,,,,,,,,,,,,,,,1343.772436000174,None,1344.4561642000917,1344.82275260007,1344.7898322001565,1346.7905524000525,j,1,0.360678989905864,2.3614065900910646,decreament,0.36,3,oddball,j,60,0.5180986002087593,,,,,,,m,22,209,fr,r,0,raw,2022-05-20_14h22.25.056,oddball,2022.1.2,59.91450201025426,
0,,,,,0,0,0,0,9,0,9,0,19,0,19,0,,,,,,,,,,,,,,,,,1346.8085116001312,None,1347.4742722001392,1348.0739439001773,1348.0574044999667,1350.0583832999691,None,1,0.6103086899966002,2.6113199901301414,decreament,0.6,1,standard,None,100,,,,,,,,m,22,209,fr,r,0,raw,2022-05-20_14h22.25.056,oddball,2022.1.2,59.91450201025426,
0,,,,,0,0,0,0,9,0,9,0,20,0,20,0,,,,,,,,,,,,,,,,,1350.0749184000306,None,1350.7419980000705,1351.342044300167,1351.3253232000861,1353.3265352000017,None,1,0.6115469899959862,2.612814089981839,decreament,0.6,1,standard,None,100,,,,,,,,m,22,209,fr,r,0,raw,2022-05-20_14h22.25.056,oddball,2022.1.2,59.91450201025426,
0,,,,,0,0,0,0,9,0,9,0,21,0,21,0,,,,,,,,,,,,,,,,,1353.3427563000005,None,1354.059555800166,1354.6598563001025,1354.6434703001287,1356.6440302000847,None,1,0.613349589984864,2.6139035900123417,decreament,0.6,1,standard,None,100,,,,,,,,m,22,209,fr,r,0,raw,2022-05-20_14h22.25.056,oddball,2022.1.2,59.91450201025426,
0,,,,,0,0,0,0,9,0,9,0,22,0,22,0,,,,,,,,,,,,,,,,,1356.660880099982,None,1357.3944389000535,1357.9948144000955,1357.9781230001245,1359.9789875999559,None,1,0.6127724898979068,2.6136601897887886,decreament,0.6,1,standard,None,100,,,,,,,,m,22,209,fr,r,0,raw,2022-05-20_14h22.25.056,oddball,2022.1.2,59.91450201025426,
0,,,,,0,0,0,0,9,0,9,0,23,0,23,0,,,,,,,,,,,,,,,,,1359.9953195000999,None,1360.7290962000843,1361.3293527001515,1361.3128921999596,1363.3134363000281,None,1,0.6110282898880541,2.6113818897865713,decreament,0.6,1,standard,None,100,,,,,,,,m,22,209,fr,r,0,raw,2022-05-20_14h22.25.056,oddball,2022.1.2,59.91450201025426,
0,,,,,0,0,0,0,9,0,9,0,24,0,24,0,,,,,,,,,,,,,,,,,1363.3299006000161,None,1364.0140800999943,1364.613777599996,1364.5971017000265,1366.5977295001503,None,1,0.6113679900299758,2.611987889977172,decreament,0.6,1,standard,None,100,,,,,,,,m,22,209,fr,r,0,raw,2022-05-20_14h22.25.056,oddball,2022.1.2,59.91450201025426,
0,,,,,0,0,0,0,9,0,9,0,25,0,25,0,,,,,,,,,,,,,,,,,1366.61456310004,None,1367.2645275001414,1367.8649298001546,1367.8486397999804,1369.8492970000952,None,1,0.614350289804861,2.615073589840904,decreament,0.6,1,standard,None,100,,,,,,,,m,22,209,fr,r,0,raw,2022-05-20_14h22.25.056,oddball,2022.1.2,59.91450201025426,
0,,,,,0,0,0,0,9,0,9,0,26,0,26,0,,,,,,,,,,,,,,,,,1369.8666626000777,None,1370.5159351001494,1371.11658599996,1371.0996610999573,1373.1003207999747,None,1,0.6122325898613781,2.612892990000546,decreament,0.6,1,standard,None,100,,,,,,,,m,22,209,fr,r,0,raw,2022-05-20_14h22.25.056,oddball,2022.1.2,59.91450201025426,
0,,,,,0,0,0,0,9,0,9,0,27,0,27,0,,,,,,,,,,,,,,,,,1373.1168661999982,None,1373.6837832001038,1374.2841442001518,1374.267663200153,1376.2682127000298,j,0,0.6129173901863396,2.613438789965585,decreament,0.6,1,standard,None,100,0.5762600000016391,,,,,,,m,22,209,fr,r,0,raw,2022-05-20_14h22.25.056,oddball,2022.1.2,59.91450201025426,
0,,,,,0,0,0,0,9,0,9,0,28,0,28,0,,,,,,,,,,,,,,,,,1376.2847850001417,None,1377.0186213999987,1377.2687509001698,1377.2354381000623,1379.2360005001538,j,1,0.24261468998156488,2.2431289898231626,decreament,0.24,2,oddball,j,40,0.42439229995943606,,,,,,,m,22,209,fr,r,0,raw,2022-05-20_14h22.25.056,oddball,2022.1.2,59.91450201025426,
0,,,,,0,0,0,0,9,0,9,0,29,0,29,0,,,,,,,,,,,,,,,,,1379.252555300016,None,1380.0866358999629,1380.6866767001338,1380.6702555001248,1382.6707012001425,None,1,0.6097102900967002,2.6101023899391294,decreament,0.6,1,standard,None,100,,,,,,,,m,22,209,fr,r,0,raw,2022-05-20_14h22.25.056,oddball,2022.1.2,59.91450201025426,
20,,,,,0,1,1,3,0,0,0,0,0,0,0,0,,,,,,,,,,,,,,,1592.472400400089,None,1604.9380769000854,None,1605.7549413000233,1606.3554134001024,1606.3388808001764,1608.3396590000484,None,1,0.6130264897365123,2.6138241896405816,increament,0.6,45,standard,None,100,,1562.7054606000893,None,1382.7046199000906,None,,,m,22,209,fr,r,0,raw,2022-05-20_14h22.25.056,oddball,2022.1.2,59.91450201025426,
20,,,,,0,1,1,3,0,0,0,0,1,0,1,0,,,,,,,,,,,,,,,,,1608.3559624000918,None,1609.056857699994,1609.6564098000526,1609.6397112000268,1611.6408275000285,None,1,0.6091988901607692,2.6104036902543157,increament,0.6,45,standard,None,100,,,,,,,,m,22,209,fr,r,0,raw,2022-05-20_14h22.25.056,oddball,2022.1.2,59.91450201025426,
20,,,,,0,1,1,3,0,0,0,0,2,0,2,0,,,,,,,,,,,,,,,,,1611.6571268001571,None,1612.340773300035,1612.9412559000775,1612.9249160001054,1614.925230300054,None,1,0.6136951898224652,2.613996389787644,increament,0.6,45,standard,None,100,,,,,,,,m,22,209,fr,r,0,raw,2022-05-20_14h22.25.056,oddball,2022.1.2,59.91450201025426,
20,,,,,0,1,1,3,0,0,0,0,3,0,3,0,,,,,,,,,,,,,,,,,1614.9420029001776,None,1615.7423575001303,1616.3426425000653,1616.3262633001432,1618.3266450001393,None,1,0.6122212898917496,2.612551989965141,increament,0.6,45,standard,None,100,,,,,,,,m,22,209,fr,r,0,raw,2022-05-20_14h22.25.056,oddball,2022.1.2,59.91450201025426,
20,,,,,0,1,1,3,0,0,0,0,4,0,4,0,,,,,,,,,,,,,,,,,1618.3433487000875,None,1618.976406800095,1619.5769114000723,1619.5606254001614,1621.561069500167,None,1,0.6152487900108099,2.615638490067795,increament,0.6,45,standard,None,100,,,,,,,,m,22,209,fr,r,0,raw,2022-05-20_14h22.25.056,oddball,2022.1.2,59.91450201025426,
20,,,,,0,1,1,3,0,0,0,0,5,0,5,0,,,,,,,,,,,,,,,,,1621.5776313000824,None,1622.2615657001734,1622.861983000068,1622.8453555000015,1624.845561800059,None,1,0.6111220899038017,2.6112961899489164,increament,0.6,45,standard,None,100,,,,,,,,m,22,209,fr,r,0,raw,2022-05-20_14h22.25.056,oddball,2022.1.2,59.91450201025426,
20,,,,,0,1,1,3,0,0,0,0,6,0,6,0,,,,,,,,,,,,,,,,,1624.8622032999992,None,1625.479268199997,1626.079412800027,1626.0627209001686,1628.0631318001542,None,1,0.6134405897464603,2.613792489748448,increament,0.6,45,standard,None,100,,,,,,,,m,22,209,fr,r,0,raw,2022-05-20_14h22.25.056,oddball,2022.1.2,59.91450201025426,
20,,,,,0,1,1,3,0,0,0,0,7,0,7,0,,,,,,,,,,,,,,,,,1628.0797759999987,None,1628.5971079000738,1629.1972710001282,1629.1806854000315,1631.1816037001554,None,1,0.6126096902880818,2.6135641902219504,increament,0.6,45,standard,None,100,,,,,,,,m,22,209,fr,r,0,raw,2022-05-20_14h22.25.056,oddball,2022.1.2,59.91450201025426,
20,,,,,0,1,1,3,0,0,0,0,8,0,8,0,,,,,,,,,,,,,,,,,1631.1979217000771,None,1631.9650856000371,1632.5653056001756,1632.548750600079,1634.549697099952,None,1,0.6126206901390105,2.6135896902997047,increament,0.6,45,standard,None,100,,,,,,,,m,22,209,fr,r,0,raw,2022-05-20_14h22.25.056,oddball,2022.1.2,59.91450201025426,
20,,,,,0,1,1,3,0,0,0,0,9,0,9,0,,,,,,,,,,,,,,,,,1634.5663452001754,None,1635.2328844000585,1635.8331142000388,1635.8163578000385,1637.817616699962,None,1,0.6095902898814529,2.6109084899071604,increament,0.6,45,standard,None,100,,,,,,,,m,22,209,fr,r,0,raw,2022-05-20_14h22.25.056,oddball,2022.1.2,59.91450201025426,
20,,,,,0,1,1,3,0,0,0,0,10,0,10,0,,,,,,,,,,,,,,,,,1637.8338061000686,None,1638.534331300063,1639.1348904999904,1639.117945099948,1641.1184213000815,None,1,0.6124352901242673,2.6128528900444508,increament,0.6,45,standard,None,100,,,,,,,,m,22,209,fr,r,0,raw,2022-05-20_14h22.25.056,oddball,2022.1.2,59.91450201025426,
20,,,,,0,1,1,3,0,0,0,0,11,0,11,0,,,,,,,,,,,,,,,,,1641.1355485001113,None,1641.7520723000634,1642.7192579000257,1642.6861169000622,1644.686341600027,j,1,0.9621673901565373,2.9623380901757628,increament,0.96,48,oddball,j,160,0.5173144000582397,,,,,,,m,22,209,fr,r,0,raw,2022-05-20_14h22.25.056,oddball,2022.1.2,59.91450201025426,
20,,,,,0,1,1,3,0,0,0,0,12,0,12,0,,,,,,,,,,,,,,,,,1644.7027861999813,None,1645.4365375000052,1646.0368302001152,1646.0204686000943,1648.0208680001087,None,1,0.6139099900610745,2.6142653899732977,increament,0.6,45,standard,None,100,,,,,,,,m,22,209,fr,r,0,raw,2022-05-20_14h22.25.056,oddball,2022.1.2,59.91450201025426,
20,,,,,0,1,1,3,0,0,0,0,13,0,13,0,,,,,,,,,,,,,,,,,1648.0378422001377,None,1648.688274800079,1649.2884619999677,1649.2719443000387,1651.2725019000936,None,1,0.6095094897318631,2.6100389899220318,increament,0.6,45,standard,None,100,,,,,,,,m,22,209,fr,r,0,raw,2022-05-20_14h22.25.056,oddball,2022.1.2,59.91450201025426,
20,,,,,0,1,1,3,0,0,0,0,14,0,14,0,,,,,,,,,,,,,,,,,1651.2889607001562,None,1652.0396422001068,1652.6394840001594,1652.6230773001444,1654.6237151999958,None,1,0.6113303897436708,2.611905289813876,increament,0.6,45,standard,None,100,,,,,,,,m,22,209,fr,r,0,raw,2022-05-20_14h22.25.056,oddball,2022.1.2,59.91450201025426,
