grating_freq,blocks_prac.thisRepN,blocks_prac.thisTrialN,blocks_prac.thisN,blocks_prac.thisIndex,blocks.thisRepN,blocks.thisTrialN,blocks.thisN,blocks.thisIndex,repeat_freq.thisRepN,repeat_freq.thisTrialN,repeat_freq.thisN,repeat_freq.thisIndex,trials.thisRepN,trials.thisTrialN,trials.thisN,trials.thisIndex,break_loop.thisRepN,break_loop.thisTrialN,break_loop.thisN,break_loop.thisIndex,rest_loop.thisRepN,rest_loop.thisTrialN,rest_loop.thisN,rest_loop.thisIndex,instruct_prac_text.started,instruct_prac_text.stopped,b_instruct_text_2_.started,b_instruct_text_2_.stopped,prac_done_text.started,prac_done_text.stopped,instruct_text.started,instruct_text.stopped,fixation.started,fixation.stopped,grating.started,grating.stopped,blank.started,blank.stopped,resp.keys,resp.corr,resp.started,resp.stopped,direction,duration,trigger,stim_type,corr_ans,scaling,resp.rt,rest_text.started,rest_text.stopped,text_2.started,text_2.stopped,thx_txt.started,thx_txt.stopped,gender,age,participant,language,main_hand,nBlock_prac,file_suffix,date,expName,psychopyVersion,frameRate,
5,,,,,0,0,0,1,0,0,0,0,0,0,0,0,,,,,,,,,24.975405500270426,None,31.166482700034976,None,32.28630070015788,None,36.442949099931866,None,40.75427469983697,None,41.374807900283486,41.98689049994573,41.93703859997913,43.93754430022091,None,1,0.6117993495427072,2.6122605497948825,decreament,0.6,11,standard,None,100,,,,,,,,f,24,211,fr,l,0,raw,2022-05-24_10h09.18.002,oddball,2022.1.2,60.000744042831414,
5,,,,,0,0,0,1,0,0,0,0,1,0,1,0,,,,,,,,,,,,,,,,,43.954222599975765,None,44.721499000210315,45.32126750005409,45.3047771002166,47.30539730004966,None,1,0.6103486502543092,2.6109725502319634,decreament,0.6,11,standard,None,100,,,,,,,,f,24,211,fr,l,0,raw,2022-05-24_10h09.18.002,oddball,2022.1.2,60.000744042831414,
5,,,,,0,0,0,1,0,0,0,0,2,0,2,0,,,,,,,,,,,,,,,,,47.32237310009077,None,47.956086200196296,48.55598049983382,48.539238600060344,50.54035700019449,None,1,0.6092086499556899,2.610367249697447,decreament,0.6,11,standard,None,100,,,,,,,,f,24,211,fr,l,0,raw,2022-05-24_10h09.18.002,oddball,2022.1.2,60.000744042831414,
5,,,,,0,0,0,1,0,0,0,0,3,0,3,0,,,,,,,,,,,,,,,,,50.55680949985981,None,51.307263399939984,51.90777420019731,51.89126760000363,53.891681800130755,None,1,0.612321849912405,2.6126905498094857,decreament,0.6,11,standard,None,100,,,,,,,,f,24,211,fr,l,0,raw,2022-05-24_10h09.18.002,oddball,2022.1.2,60.000744042831414,
5,,,,,0,0,0,1,0,0,0,0,4,0,4,0,,,,,,,,,,,,,,,,,53.908120800275356,None,54.42468390008435,55.02511820010841,55.00863240007311,57.009394499938935,None,1,0.6144909500144422,2.615282349754125,decreament,0.6,11,standard,None,100,,,,,,,,f,24,211,fr,l,0,raw,2022-05-24_10h09.18.002,oddball,2022.1.2,60.000744042831414,
5,,,,,0,0,0,1,0,0,0,0,5,0,5,0,,,,,,,,,,,,,,,,,57.02612080005929,None,57.559477200265974,57.809358899947256,57.77623749990016,59.77718670014292,j,1,0.24571574991568923,2.2466906500048935,decreament,0.24,12,oddball,j,40,0.6322578997351229,,,,,,,f,24,211,fr,l,0,raw,2022-05-24_10h09.18.002,oddball,2022.1.2,60.000744042831414,
5,,,,,0,0,0,1,0,0,0,0,6,0,6,0,,,,,,,,,,,,,,,,,59.79341770010069,None,60.56044750008732,61.16103080008179,61.14455919992179,63.14486340014264,None,1,0.6124295494519174,2.6126692495308816,decreament,0.6,11,standard,None,100,,,,,,,,f,24,211,fr,l,0,raw,2022-05-24_10h09.18.002,oddball,2022.1.2,60.000744042831414,
5,,,,,0,0,0,1,0,0,0,0,7,0,7,0,,,,,,,,,,,,,,,,,63.16183499991894,None,63.82859429996461,64.42849260009825,64.41187460022047,66.41321669984609,None,1,0.611971550155431,2.6133869499899447,decreament,0.6,11,standard,None,100,,,,,,,,f,24,211,fr,l,0,raw,2022-05-24_10h09.18.002,oddball,2022.1.2,60.000744042831414,
5,,,,,0,0,0,1,0,0,0,0,8,0,8,0,,,,,,,,,,,,,,,,,66.4293975001201,None,67.07999130012468,67.68010819982737,67.6635813000612,69.66393110016361,None,1,0.6105381506495178,2.6108540506102145,decreament,0.6,11,standard,None,100,,,,,,,,f,24,211,fr,l,0,raw,2022-05-24_10h09.18.002,oddball,2022.1.2,60.000744042831414,
5,,,,,0,0,0,1,0,0,0,0,9,0,9,0,,,,,,,,,,,,,,,,,69.68043990014121,None,70.46443249983713,71.06456630025059,71.04791000019759,73.04882160015404,None,1,0.6127835498191416,2.613735950086266,decreament,0.6,11,standard,None,100,,,,,,,,f,24,211,fr,l,0,raw,2022-05-24_10h09.18.002,oddball,2022.1.2,60.000744042831414,
5,,,,,0,0,0,1,0,0,0,0,10,0,10,0,,,,,,,,,,,,,,,,,73.06538699986413,None,73.59920730022714,74.19918309990317,74.18268720014021,76.18326959991828,None,1,0.6102474499493837,2.610827149823308,decreament,0.6,11,standard,None,100,,,,,,,,f,24,211,fr,l,0,raw,2022-05-24_10h09.18.002,oddball,2022.1.2,60.000744042831414,
5,,,,,0,0,0,1,0,0,0,0,11,0,11,0,,,,,,,,,,,,,,,,,76.19962800014764,None,76.90002979990095,77.50028679985553,77.48392400005832,79.48433869984001,None,1,0.6116224499419332,2.611957849934697,decreament,0.6,11,standard,None,100,,,,,,,,f,24,211,fr,l,0,raw,2022-05-24_10h09.18.002,oddball,2022.1.2,60.000744042831414,
5,,,,,0,0,0,1,0,0,0,0,12,0,12,0,,,,,,,,,,,,,,,,,79.50083420006558,None,80.21856250008568,80.70170750003308,80.68492270028219,82.68556659994647,j,1,0.4950276496820152,2.4956465498544276,decreament,0.48,14,oddball,j,80,0.9561244999058545,,,,,,,f,24,211,fr,l,0,raw,2022-05-24_10h09.18.002,oddball,2022.1.2,60.000744042831414,
5,,,,,0,0,0,1,0,0,0,0,13,0,13,0,,,,,,,,,,,,,,,,,82.70226019993424,None,83.2691616001539,83.8692012000829,83.85300939995795,85.85371149983257,None,1,0.609701749868691,2.6104805497452617,decreament,0.6,11,standard,None,100,,,,,,,,f,24,211,fr,l,0,raw,2022-05-24_10h09.18.002,oddball,2022.1.2,60.000744042831414,
5,,,,,0,0,0,1,0,0,0,0,14,0,14,0,,,,,,,,,,,,,,,,,85.87007240019739,None,86.4701505000703,87.0704458002001,87.05388450017199,89.05477689998224,None,1,0.614465449936688,2.61541844997555,decreament,0.6,11,standard,None,100,,,,,,,,f,24,211,fr,l,0,raw,2022-05-24_10h09.18.002,oddball,2022.1.2,60.000744042831414,
5,,,,,0,0,0,1,0,0,0,0,15,0,15,0,,,,,,,,,,,,,,,,,89.07163459993899,None,89.78876559995115,90.38856540014967,90.37211270025,92.37317880010232,None,1,0.6125148497521877,2.6134988497942686,decreament,0.6,11,standard,None,100,,,,,,,,f,24,211,fr,l,0,raw,2022-05-24_10h09.18.002,oddball,2022.1.2,60.000744042831414,
5,,,,,0,0,0,1,0,0,0,0,16,0,16,0,,,,,,,,,,,,,,,,,92.38929420011118,None,93.05677760019898,93.65635790023953,93.63970659999177,95.64044720027596,None,1,0.6124685499817133,2.6131460503675044,decreament,0.6,11,standard,None,100,,,,,,,,f,24,211,fr,l,0,raw,2022-05-24_10h09.18.002,oddball,2022.1.2,60.000744042831414,
5,,,,,0,0,0,1,0,0,0,0,17,0,17,0,,,,,,,,,,,,,,,,,95.6573814000003,None,96.32415329990909,96.92417600005865,96.90748770022765,98.90882290014997,None,1,0.61193105019629,2.6134418500587344,decreament,0.6,11,standard,None,100,,,,,,,,f,24,211,fr,l,0,raw,2022-05-24_10h09.18.002,oddball,2022.1.2,60.000744042831414,
5,,,,,0,0,0,1,0,0,0,0,18,0,18,0,,,,,,,,,,,,,,,,,98.92802589992061,None,99.6421989002265,100.24206189997494,100.22564780013636,102.22625930001959,None,1,0.6119410498067737,2.6125425500795245,decreament,0.6,11,standard,None,100,,,,,,,,f,24,211,fr,l,0,raw,2022-05-24_10h09.18.002,oddball,2022.1.2,60.000744042831414,
5,,,,,0,0,0,1,0,0,0,0,19,0,19,0,,,,,,,,,,,,,,,,,102.24331849999726,None,102.89335149992257,103.4939239998348,103.47715880023316,105.47747169993818,None,1,0.6122500505298376,2.612477650400251,decreament,0.6,11,standard,None,100,,,,,,,,f,24,211,fr,l,0,raw,2022-05-24_10h09.18.002,oddball,2022.1.2,60.000744042831414,
5,,,,,0,0,0,1,0,0,0,0,20,0,20,0,,,,,,,,,,,,,,,,,105.49444810021669,None,106.16158770024776,106.76136660017073,106.74488259991631,108.74544820003211,None,1,0.6100655496120453,2.6105557498522103,decreament,0.6,11,standard,None,100,,,,,,,,f,24,211,fr,l,0,raw,2022-05-24_10h09.18.002,oddball,2022.1.2,60.000744042831414,
5,,,,,0,0,0,1,0,0,0,0,21,0,21,0,,,,,,,,,,,,,,,,,108.76217440003529,None,109.32895960006863,109.92928310018033,109.91286490019411,111.91372760012746,None,1,0.6125062499195337,2.6133830500766635,decreament,0.6,11,standard,None,100,,,,,,,,f,24,211,fr,l,0,raw,2022-05-24_10h09.18.002,oddball,2022.1.2,60.000744042831414,
5,,,,,0,0,0,1,0,0,0,0,22,0,22,0,,,,,,,,,,,,,,,,,111.93030379991978,None,112.76373470015824,113.36416439991444,113.34733980009332,115.34778820024803,j,0,0.6122105503454804,2.612664650194347,decreament,0.6,11,standard,None,100,1.3577283998019993,,,,,,,f,24,211,fr,l,0,raw,2022-05-24_10h09.18.002,oddball,2022.1.2,60.000744042831414,
5,,,,,0,0,0,1,0,0,0,0,23,0,23,0,,,,,,,,,,,,,,,,,115.36475520022213,None,116.26519849989563,116.86508650006726,116.84858280001208,118.84942999994382,None,1,0.6105713499709964,2.611493249889463,decreament,0.6,11,standard,None,100,,,,,,,,f,24,211,fr,l,0,raw,2022-05-24_10h09.18.002,oddball,2022.1.2,60.000744042831414,
5,,,,,0,0,0,1,0,0,0,0,24,0,24,0,,,,,,,,,,,,,,,,,118.86606749985367,None,119.71639320021495,120.31647650012746,120.30013009998947,122.30078270006925,None,1,0.612780749797821,2.6134896501898766,decreament,0.6,11,standard,None,100,,,,,,,,f,24,211,fr,l,0,raw,2022-05-24_10h09.18.002,oddball,2022.1.2,60.000744042831414,
5,,,,,0,0,0,1,0,0,0,0,25,0,25,0,,,,,,,,,,,,,,,,,122.31711200019345,None,122.98420340009034,123.58438270026818,123.56798759987578,125.5685990001075,None,1,0.6096744500100613,2.61025064997375,decreament,0.6,11,standard,None,100,,,,,,,,f,24,211,fr,l,0,raw,2022-05-24_10h09.18.002,oddball,2022.1.2,60.000744042831414,
5,,,,,0,0,0,1,0,0,0,0,26,0,26,0,,,,,,,,,,,,,,,,,125.58545809984207,None,126.33574180025607,126.70229620020837,126.66937999986112,128.67007960006595,j,1,0.3625173498876393,2.3631242499686778,decreament,0.36,13,oddball,j,60,0.5151478000916541,,,,,,,f,24,211,fr,l,0,raw,2022-05-24_10h09.18.002,oddball,2022.1.2,60.000744042831414,
5,,,,,0,0,0,1,0,0,0,0,27,0,27,0,,,,,,,,,,,,,,,,,128.68735729996115,None,129.25305880000815,129.85383540019393,129.83685880014673,131.83755660010502,None,1,0.6125500500202179,2.6131844497285783,decreament,0.6,11,standard,None,100,,,,,,,,f,24,211,fr,l,0,raw,2022-05-24_10h09.18.002,oddball,2022.1.2,60.000744042831414,
5,,,,,0,0,0,1,0,0,0,0,28,0,28,0,,,,,,,,,,,,,,,,,131.85406959988177,None,132.55502599989995,133.1549464999698,133.1385563001968,135.1389108998701,None,1,0.6098066498525441,2.610099050216377,decreament,0.6,11,standard,None,100,,,,,,,,f,24,211,fr,l,0,raw,2022-05-24_10h09.18.002,oddball,2022.1.2,60.000744042831414,
5,,,,,0,0,0,1,0,0,0,0,29,0,29,0,,,,,,,,,,,,,,,,,135.15556650003418,None,135.73937189998105,136.3396172001958,136.3228903999552,138.3236020002514,None,1,0.609638050198555,2.6103604501113296,decreament,0.6,11,standard,None,100,,,,,,,,f,24,211,fr,l,0,raw,2022-05-24_10h09.18.002,oddball,2022.1.2,60.000744042831414,
5,,,,,0,0,0,1,1,0,1,0,0,0,0,0,,,,,,,,,,,,,,,154.17603000020608,None,157.4640893000178,None,158.18117720028386,158.78157640015706,158.7648129002191,160.76538230013102,None,1,0.6091591496951878,2.6097127497196198,increament,0.6,15,standard,None,100,,138.3437713002786,None,,,,,f,24,211,fr,l,0,raw,2022-05-24_10h09.18.002,oddball,2022.1.2,60.000744042831414,
5,,,,,0,0,0,1,1,0,1,0,1,0,1,0,,,,,,,,,,,,,,,,,160.7839673999697,None,161.3986176000908,161.9989160001278,161.98251930018887,163.9829394002445,None,1,0.6134140496142209,2.6138458494096994,increament,0.6,15,standard,None,100,,,,,,,,f,24,211,fr,l,0,raw,2022-05-24_10h09.18.002,oddball,2022.1.2,60.000744042831414,
5,,,,,0,0,0,1,1,0,1,0,2,0,2,0,,,,,,,,,,,,,,,,,163.99971419991925,None,164.76677370024845,165.36689969990402,165.35037690028548,167.35112590016797,None,1,0.6094640498049557,2.610231149941683,increament,0.6,15,standard,None,100,,,,,,,,f,24,211,fr,l,0,raw,2022-05-24_10h09.18.002,oddball,2022.1.2,60.000744042831414,
5,,,,,0,0,0,1,1,0,1,0,3,0,3,0,,,,,,,,,,,,,,,,,167.3679853999056,None,168.0677360999398,168.6680203001015,168.65163620002568,170.65238430025056,None,1,0.6089530498720706,2.609778149984777,increament,0.6,15,standard,None,100,,,,,,,,f,24,211,fr,l,0,raw,2022-05-24_10h09.18.002,oddball,2022.1.2,60.000744042831414,
5,,,,,0,0,0,1,1,0,1,0,4,0,4,0,,,,,,,,,,,,,,,,,170.66892430000007,None,171.30278320005164,171.90303849987686,171.8863646001555,173.8868562001735,None,1,0.6120489495806396,2.6125112497247756,increament,0.6,15,standard,None,100,,,,,,,,f,24,211,fr,l,0,raw,2022-05-24_10h09.18.002,oddball,2022.1.2,60.000744042831414,
5,,,,,0,0,0,1,1,0,1,0,5,0,5,0,,,,,,,,,,,,,,,,,173.90347020002082,None,174.5372178000398,175.27072479994968,175.23728200001642,177.23840440018103,None,0,0.7294729501008987,2.730701549910009,increament,0.72,16,oddball,j,120,,,,,,,,f,24,211,fr,l,0,raw,2022-05-24_10h09.18.002,oddball,2022.1.2,60.000744042831414,
5,,,,,0,0,0,1,1,0,1,0,6,0,6,0,,,,,,,,,,,,,,,,,177.2546867998317,None,177.8384886002168,178.43854260025546,178.4219292998314,180.42264549992979,None,1,0.6104963500984013,2.61120175011456,increament,0.6,15,standard,None,100,,,,,,,,f,24,211,fr,l,0,raw,2022-05-24_10h09.18.002,oddball,2022.1.2,60.000744042831414,
5,,,,,0,0,0,1,1,0,1,0,7,0,7,0,,,,,,,,,,,,,,,,,180.43940829997882,None,181.07301020016894,181.67352649988607,181.6568112000823,183.65714679984376,None,1,0.6124864504672587,2.612772850319743,increament,0.6,15,standard,None,100,,,,,,,,f,24,211,fr,l,0,raw,2022-05-24_10h09.18.002,oddball,2022.1.2,60.000744042831414,
5,,,,,0,0,0,1,1,0,1,0,8,0,8,0,,,,,,,,,,,,,,,,,183.67389380000532,None,184.2411249000579,184.84060820005834,184.82394469995052,186.82504320004955,None,1,0.6114538498222828,2.6126032499596477,increament,0.6,15,standard,None,100,,,,,,,,f,24,211,fr,l,0,raw,2022-05-24_10h09.18.002,oddball,2022.1.2,60.000744042831414,
5,,,,,0,0,0,1,1,0,1,0,9,0,9,0,,,,,,,,,,,,,,,,,186.84168939990923,None,187.42521370016038,188.0254430002533,188.00885790027678,190.00969449989498,None,1,0.6131311501376331,2.6139650498516858,increament,0.6,15,standard,None,100,,,,,,,,f,24,211,fr,l,0,raw,2022-05-24_10h09.18.002,oddball,2022.1.2,60.000744042831414,
5,,,,,0,0,0,1,1,0,1,0,10,0,10,0,,,,,,,,,,,,,,,,,190.02635930012912,None,190.66013019997627,191.25998880015686,191.2437883000821,193.24394309986383,None,1,0.611529250163585,2.6115732500329614,increament,0.6,15,standard,None,100,,,,,,,,f,24,211,fr,l,0,raw,2022-05-24_10h09.18.002,oddball,2022.1.2,60.000744042831414,
5,,,,,0,0,0,1,1,0,1,0,11,0,11,0,,,,,,,,,,,,,,,,,193.2608026000671,None,193.99442919995636,194.5945231001824,194.57824289985,196.57934569986537,j,0,0.6125893499702215,2.613782450091094,increament,0.6,15,standard,None,100,0.7266573999077082,,,,,,,f,24,211,fr,l,0,raw,2022-05-24_10h09.18.002,oddball,2022.1.2,60.000744042831414,
5,,,,,0,0,0,1,1,0,1,0,12,0,12,0,,,,,,,,,,,,,,,,,196.59608010016382,None,197.3121529002674,197.91239000018686,197.89594040019438,199.8971170000732,None,1,0.613892950117588,2.6151351500302553,increament,0.6,15,standard,None,100,,,,,,,,f,24,211,fr,l,0,raw,2022-05-24_10h09.18.002,oddball,2022.1.2,60.000744042831414,
5,,,,,0,0,0,1,1,0,1,0,13,0,13,0,,,,,,,,,,,,,,,,,199.91348499991,None,200.63039330020547,201.23045929986984,201.2141442000866,203.21439970005304,None,1,0.6115615502931178,2.611749050207436,increament,0.6,15,standard,None,100,,,,,,,,f,24,211,fr,l,0,raw,2022-05-24_10h09.18.002,oddball,2022.1.2,60.000744042831414,
5,,,,,0,0,0,1,1,0,1,0,14,0,14,0,,,,,,,,,,,,,,,,,203.23135250015184,None,203.86525220004842,204.46513530006632,204.4488913002424,206.4496299000457,None,1,0.6095493505708873,2.6102874502539635,increament,0.6,15,standard,None,100,,,,,,,,f,24,211,fr,l,0,raw,2022-05-24_10h09.18.002,oddball,2022.1.2,60.000744042831414,
5,,,,,0,0,0,1,1,0,1,0,15,0,15,0,,,,,,,,,,,,,,,,,206.46617020014673,None,207.11637370008975,207.71641119988635,207.6997150001116,209.70071229990572,None,1,0.6111070499755442,2.612185050267726,increament,0.6,15,standard,None,100,,,,,,,,f,24,211,fr,l,0,raw,2022-05-24_10h09.18.002,oddball,2022.1.2,60.000744042831414,
5,,,,,0,0,0,1,1,0,1,0,16,0,16,0,,,,,,,,,,,,,,,,,209.71698260027915,None,210.284180900082,210.8844043998979,210.8677834002301,212.86853720014915,None,1,0.6129598496481776,2.6137496498413384,increament,0.6,15,standard,None,100,,,,,,,,f,24,211,fr,l,0,raw,2022-05-24_10h09.18.002,oddball,2022.1.2,60.000744042831414,
5,,,,,0,0,0,1,1,0,1,0,17,0,17,0,,,,,,,,,,,,,,,,,212.8851554999128,None,213.618471799884,214.21927120024338,214.20239870017394,216.20323739992455,None,1,0.6129326494410634,2.6138767492957413,increament,0.6,15,standard,None,100,,,,,,,,f,24,211,fr,l,0,raw,2022-05-24_10h09.18.002,oddball,2022.1.2,60.000744042831414,
5,,,,,0,0,0,1,1,0,1,0,18,0,18,0,,,,,,,,,,,,,,,,,216.2195692998357,None,216.78652590001002,217.7538103000261,217.7202714998275,219.72122009983286,j,1,0.9632137501612306,2.9642245499417186,increament,0.96,18,oddball,j,160,0.40900509990751743,,,,,,,f,24,211,fr,l,0,raw,2022-05-24_10h09.18.002,oddball,2022.1.2,60.000744042831414,
5,,,,,0,0,0,1,1,0,1,0,19,0,19,0,,,,,,,,,,,,,,,,,219.73858030000702,None,220.37132060015574,220.9714999999851,220.95463069994003,222.95530829997733,None,1,0.6125607499852777,2.613237449899316,increament,0.6,15,standard,None,100,,,,,,,,f,24,211,fr,l,0,raw,2022-05-24_10h09.18.002,oddball,2022.1.2,60.000744042831414,
5,,,,,0,0,0,1,1,0,1,0,20,0,20,0,,,,,,,,,,,,,,,,,222.9722835002467,None,223.62215760024264,224.22236930020154,224.20582879986614,226.2065214002505,None,1,0.6130068497732282,2.6136850495822728,increament,0.6,15,standard,None,100,,,,,,,,f,24,211,fr,l,0,raw,2022-05-24_10h09.18.002,oddball,2022.1.2,60.000744042831414,
5,,,,,0,0,0,1,1,0,1,0,21,0,21,0,,,,,,,,,,,,,,,,,226.22321469988674,None,226.89027220010757,227.4903146000579,227.47389579983428,229.47435929998755,None,1,0.613168750423938,2.6136184502393007,increament,0.6,15,standard,None,100,,,,,,,,f,24,211,fr,l,0,raw,2022-05-24_10h09.18.002,oddball,2022.1.2,60.000744042831414,
5,,,,,0,0,0,1,1,0,1,0,22,0,22,0,,,,,,,,,,,,,,,,,229.49113309988752,None,230.12512199999765,230.7250232002698,230.70879080006853,232.70920639997348,None,1,0.6096770497970283,2.6101269498467445,increament,0.6,15,standard,None,100,,,,,,,,f,24,211,fr,l,0,raw,2022-05-24_10h09.18.002,oddball,2022.1.2,60.000744042831414,
5,,,,,0,0,0,1,1,0,1,0,23,0,23,0,,,,,,,,,,,,,,,,,232.72619449999183,None,233.34269070019946,233.94344240007922,233.9265859001316,235.92721660016105,None,1,0.6124922498129308,2.613139850087464,increament,0.6,15,standard,None,100,,,,,,,,f,24,211,fr,l,0,raw,2022-05-24_10h09.18.002,oddball,2022.1.2,60.000744042831414,
5,,,,,0,0,0,1,1,0,1,0,24,0,24,0,,,,,,,,,,,,,,,,,235.9443411002867,None,236.62726660026237,237.2275886000134,237.21082800021395,239.2113498998806,None,1,0.6118157501332462,2.6123091499321163,increament,0.6,15,standard,None,100,,,,,,,,f,24,211,fr,l,0,raw,2022-05-24_10h09.18.002,oddball,2022.1.2,60.000744042831414,
5,,,,,0,0,0,1,1,0,1,0,25,0,25,0,,,,,,,,,,,,,,,,,239.2279713000171,None,239.84531089989468,240.44513919996098,240.42894320003688,242.4294390999712,None,1,0.6083633499220014,2.6089000501669943,increament,0.6,15,standard,None,100,,,,,,,,f,24,211,fr,l,0,raw,2022-05-24_10h09.18.002,oddball,2022.1.2,60.000744042831414,
5,,,,,0,0,0,1,1,0,1,0,26,0,26,0,,,,,,,,,,,,,,,,,242.44642570009455,None,243.09678860008717,243.69645230006427,243.67993770027533,245.68056209990755,None,1,0.6095380499027669,2.610161949880421,increament,0.6,15,standard,None,100,,,,,,,,f,24,211,fr,l,0,raw,2022-05-24_10h09.18.002,oddball,2022.1.2,60.000744042831414,
5,,,,,0,0,0,1,1,0,1,0,27,0,27,0,,,,,,,,,,,,,,,,,245.69740989990532,None,246.6143825999461,247.2147957002744,247.19793559983373,249.19879319984466,None,1,0.6129644499160349,2.613808250054717,increament,0.6,15,standard,None,100,,,,,,,,f,24,211,fr,l,0,raw,2022-05-24_10h09.18.002,oddball,2022.1.2,60.000744042831414,
5,,,,,0,0,0,1,1,0,1,0,28,0,28,0,,,,,,,,,,,,,,,,,249.21534170024097,None,249.8990491000004,250.74949890002608,250.716088199988,252.7168681002222,j,1,0.844641650095582,2.845449950080365,increament,0.84,17,oddball,j,140,0.7249011998064816,,,,,,,f,24,211,fr,l,0,raw,2022-05-24_10h09.18.002,oddball,2022.1.2,60.000744042831414,
5,,,,,0,0,0,1,1,0,1,0,29,0,29,0,,,,,,,,,,,,,,,,,252.73419190011919,None,253.55027389992028,254.15067470027134,254.1339365998283,256.13461880013347,None,1,0.6119866496883333,2.612651549745351,increament,0.6,15,standard,None,100,,,,,,,,f,24,211,fr,l,0,raw,2022-05-24_10h09.18.002,oddball,2022.1.2,60.000744042831414,
5,,,,,0,0,0,1,2,0,2,0,0,0,0,0,,,,,,,,,,,,,,,267.21159399999306,None,269.33960200008005,None,269.9065923001617,270.50708380015567,270.49034890020266,272.4907492999919,None,1,0.6125235497020185,2.6128865494392812,decreament,0.6,11,standard,None,100,,256.1515160999261,None,,,,,f,24,211,fr,l,0,raw,2022-05-24_10h09.18.002,oddball,2022.1.2,60.000744042831414,
5,,,,,0,0,0,1,2,0,2,0,1,0,1,0,,,,,,,,,,,,,,,,,272.50788100017235,None,273.27458250010386,273.8749273000285,273.8586824000813,275.85886140028015,None,1,0.6117071500048041,2.611804749816656,decreament,0.6,11,standard,None,100,,,,,,,,f,24,211,fr,l,0,raw,2022-05-24_10h09.18.002,oddball,2022.1.2,60.000744042831414,
5,,,,,0,0,0,1,2,0,2,0,2,0,2,0,,,,,,,,,,,,,,,,,275.8753841998987,None,276.57611679984257,277.1760106999427,277.1592863998376,279.15975590003654,None,1,0.6104568499140441,2.6108528496697545,decreament,0.6,11,standard,None,100,,,,,,,,f,24,211,fr,l,0,raw,2022-05-24_10h09.18.002,oddball,2022.1.2,60.000744042831414,
5,,,,,0,0,0,1,2,0,2,0,3,0,3,0,,,,,,,,,,,,,,,,,279.1765824002214,None,279.7268346999772,280.32738750008866,280.31113689998165,282.3109949999489,None,1,0.6144359498284757,2.614180149976164,decreament,0.6,11,standard,None,100,,,,,,,,f,24,211,fr,l,0,raw,2022-05-24_10h09.18.002,oddball,2022.1.2,60.000744042831414,
5,,,,,0,0,0,1,2,0,2,0,4,0,4,0,,,,,,,,,,,,,,,,,282.32769910013303,None,282.87808689987287,283.4783152998425,283.46166450018063,285.46225980017334,None,1,0.6125061502680182,2.6130536501295865,decreament,0.6,11,standard,None,100,,,,,,,,f,24,211,fr,l,0,raw,2022-05-24_10h09.18.002,oddball,2022.1.2,60.000744042831414,
5,,,,,0,0,0,1,2,0,2,0,5,0,5,0,,,,,,,,,,,,,,,,,285.47903120005503,None,286.3128114999272,286.9132039002143,286.8963760002516,288.8973928000778,None,1,0.6119676497764885,2.6130552496761084,decreament,0.6,11,standard,None,100,,,,,,,,f,24,211,fr,l,0,raw,2022-05-24_10h09.18.002,oddball,2022.1.2,60.000744042831414,
5,,,,,0,0,0,1,2,0,2,0,6,0,6,0,,,,,,,,,,,,,,,,,288.91460830019787,None,289.51418920001015,290.1140846000053,290.0976419998333,292.0985846002586,None,1,0.6112717501819134,2.612272350117564,decreament,0.6,11,standard,None,100,,,,,,,,f,24,211,fr,l,0,raw,2022-05-24_10h09.18.002,oddball,2022.1.2,60.000744042831414,
5,,,,,0,0,0,1,2,0,2,0,7,0,7,0,,,,,,,,,,,,,,,,,292.11557150026783,None,292.69857360003516,293.2981767002493,293.2816261998378,295.28298609983176,None,1,0.6125368499197066,2.6139735500328243,decreament,0.6,11,standard,None,100,,,,,,,,f,24,211,fr,l,0,raw,2022-05-24_10h09.18.002,oddball,2022.1.2,60.000744042831414,
5,,,,,0,0,0,1,2,0,2,0,8,0,8,0,,,,,,,,,,,,,,,,,295.2996975001879,None,295.89982589986175,296.14965979987755,296.11632170015946,298.11723989993334,j,1,0.2459829500876367,2.246982150245458,decreament,0.24,12,oddball,j,40,0.5239752000197768,,,,,,,f,24,211,fr,l,0,raw,2022-05-24_10h09.18.002,oddball,2022.1.2,60.000744042831414,
5,,,,,0,0,0,1,2,0,2,0,9,0,9,0,,,,,,,,,,,,,,,,,298.13387170014903,None,298.717293899972,299.31759040011093,299.30175710003823,301.30189049988985,None,1,0.6136235501617193,2.613694450352341,decreament,0.6,11,standard,None,100,,,,,,,,f,24,211,fr,l,0,raw,2022-05-24_10h09.18.002,oddball,2022.1.2,60.000744042831414,
5,,,,,0,0,0,1,2,0,2,0,10,0,10,0,,,,,,,,,,,,,,,,,301.31844600010663,None,301.9186148000881,302.5191950001754,302.50229649990797,304.5031586000696,None,1,0.6111378502100706,2.6120474501512945,decreament,0.6,11,standard,None,100,,,,,,,,f,24,211,fr,l,0,raw,2022-05-24_10h09.18.002,oddball,2022.1.2,60.000744042831414,
5,,,,,0,0,0,1,2,0,2,0,11,0,11,0,,,,,,,,,,,,,,,,,304.51970859989524,None,305.18674240028486,305.7863746001385,305.769773399923,307.7711606002413,None,1,0.6122867497615516,2.6137771494686604,decreament,0.6,11,standard,None,100,,,,,,,,f,24,211,fr,l,0,raw,2022-05-24_10h09.18.002,oddball,2022.1.2,60.000744042831414,
5,,,,,0,0,0,1,2,0,2,0,12,0,12,0,,,,,,,,,,,,,,,,,307.7881978000514,None,308.4875610000454,309.08769860025495,309.07104310020804,311.0721809999086,None,1,0.6152028497308493,2.6164019498974085,decreament,0.6,11,standard,None,100,,,,,,,,f,24,211,fr,l,0,raw,2022-05-24_10h09.18.002,oddball,2022.1.2,60.000744042831414,
5,,,,,0,0,0,1,2,0,2,0,13,0,13,0,,,,,,,,,,,,,,,,,311.0887845000252,None,311.7058743000962,312.3059721002355,312.2893099999055,314.2900241999887,j,0,0.6102561498992145,2.6109133502468467,decreament,0.6,11,standard,None,100,0.6307687996886671,,,,,,,f,24,211,fr,l,0,raw,2022-05-24_10h09.18.002,oddball,2022.1.2,60.000744042831414,
5,,,,,0,0,0,1,2,0,2,0,14,0,14,0,,,,,,,,,,,,,,,,,314.3067079000175,None,314.8735743002035,315.4740224000998,315.457212400157,317.45789120020345,None,1,0.613336049951613,2.6140030496753752,decreament,0.6,11,standard,None,100,,,,,,,,f,24,211,fr,l,0,raw,2022-05-24_10h09.18.002,oddball,2022.1.2,60.000744042831414,
5,,,,,0,0,0,1,2,0,2,0,15,0,15,0,,,,,,,,,,,,,,,,,317.47471350012347,None,318.2917013000697,318.65878900000826,318.62523090001196,320.62558070011437,j,1,0.36146485013887286,2.361762050073594,decreament,0.36,13,oddball,j,60,1.0466988999396563,,,,,,,f,24,211,fr,l,0,raw,2022-05-24_10h09.18.002,oddball,2022.1.2,60.000744042831414,
5,,,,,0,0,0,1,2,0,2,0,16,0,16,0,,,,,,,,,,,,,,,,,320.64229630026966,None,321.3592421002686,321.95974039984867,321.94329009996727,323.9432785999961,None,1,0.6133433501236141,2.6131279501132667,decreament,0.6,11,standard,None,100,,,,,,,,f,24,211,fr,l,0,raw,2022-05-24_10h09.18.002,oddball,2022.1.2,60.000744042831414,
5,,,,,0,0,0,1,2,0,2,0,17,0,17,0,,,,,,,,,,,,,,,,,323.9598838002421,None,324.64351199986413,325.24385769991204,325.2270726999268,327.22813110006973,None,1,0.615561050362885,2.6166597502306104,decreament,0.6,11,standard,None,100,,,,,,,,f,24,211,fr,l,0,raw,2022-05-24_10h09.18.002,oddball,2022.1.2,60.000744042831414,
5,,,,,0,0,0,1,2,0,2,0,18,0,18,0,,,,,,,,,,,,,,,,,327.24505880009383,None,327.8952247998677,328.4956038002856,328.4793318999,330.47954259999096,None,1,0.6114346501417458,2.611602650023997,decreament,0.6,11,standard,None,100,,,,,,,,f,24,211,fr,l,0,raw,2022-05-24_10h09.18.002,oddball,2022.1.2,60.000744042831414,
5,,,,,0,0,0,1,2,0,2,0,19,0,19,0,,,,,,,,,,,,,,,,,330.4962275000289,None,331.16319000022486,331.7634553001262,331.74671069998294,333.7473057000898,None,1,0.6112581500783563,2.6118458500131965,decreament,0.6,11,standard,None,100,,,,,,,,f,24,211,fr,l,0,raw,2022-05-24_10h09.18.002,oddball,2022.1.2,60.000744042831414,
5,,,,,0,0,0,1,2,0,2,0,20,0,20,0,,,,,,,,,,,,,,,,,333.7641797000542,None,334.3639549999498,334.9640691000968,334.9473635000177,336.9483822998591,None,1,0.6147137498483062,2.615770149976015,decreament,0.6,11,standard,None,100,,,,,,,,f,24,211,fr,l,0,raw,2022-05-24_10h09.18.002,oddball,2022.1.2,60.000744042831414,
5,,,,,0,0,0,1,2,0,2,0,21,0,21,0,,,,,,,,,,,,,,,,,336.96533909998834,None,337.5822147000581,338.18209360027686,338.16540190018713,340.1668918002397,None,1,0.6130743501707911,2.614672450348735,decreament,0.6,11,standard,None,100,,,,,,,,f,24,211,fr,l,0,raw,2022-05-24_10h09.18.002,oddball,2022.1.2,60.000744042831414,
5,,,,,0,0,0,1,2,0,2,0,22,0,22,0,,,,,,,,,,,,,,,,,340.18308650003746,None,340.84967350028455,341.4505198998377,341.43366120010614,343.4346289001405,None,1,0.6153815500438213,2.6163813499733806,decreament,0.6,11,standard,None,100,,,,,,,,f,24,211,fr,l,0,raw,2022-05-24_10h09.18.002,oddball,2022.1.2,60.000744042831414,
5,,,,,0,0,0,1,2,0,2,0,23,0,23,0,,,,,,,,,,,,,,,,,343.4508866001852,None,344.184594000224,344.7850303002633,344.7686419999227,346.7692631999962,None,1,0.6137819504365325,2.614407350309193,decreament,0.6,11,standard,None,100,,,,,,,,f,24,211,fr,l,0,raw,2022-05-24_10h09.18.002,oddball,2022.1.2,60.000744042831414,
5,,,,,0,0,0,1,2,0,2,0,24,0,24,0,,,,,,,,,,,,,,,,,346.78601279994473,None,347.4861842999235,348.0859750001691,348.06977469986305,350.0701751001179,None,1,0.611453449819237,2.6117688501253724,decreament,0.6,11,standard,None,100,,,,,,,,f,24,211,fr,l,0,raw,2022-05-24_10h09.18.002,oddball,2022.1.2,60.000744042831414,
5,,,,,0,0,0,1,2,0,2,0,25,0,25,0,,,,,,,,,,,,,,,,,350.086988999974,None,350.7371018999256,351.33737559989095,351.3208794002421,353.32150850025937,None,1,0.6135425502434373,2.6141003500670195,decreament,0.6,11,standard,None,100,,,,,,,,f,24,211,fr,l,0,raw,2022-05-24_10h09.18.002,oddball,2022.1.2,60.000744042831414,
5,,,,,0,0,0,1,2,0,2,0,26,0,26,0,,,,,,,,,,,,,,,,,353.3381817000918,None,353.9552906001918,354.43864790024236,354.42194599984214,356.42303000018,None,0,0.4935683496296406,2.494761049747467,decreament,0.48,14,oddball,j,80,,,,,,,,f,24,211,fr,l,0,raw,2022-05-24_10h09.18.002,oddball,2022.1.2,60.000744042831414,
5,,,,,0,0,0,1,2,0,2,0,27,0,27,0,,,,,,,,,,,,,,,,,356.44031540025026,None,357.0563513999805,357.656622600276,357.6397226001136,359.6405902998522,None,1,0.6123047498986125,2.6131867500953376,decreament,0.6,11,standard,None,100,,,,,,,,f,24,211,fr,l,0,raw,2022-05-24_10h09.18.002,oddball,2022.1.2,60.000744042831414,
5,,,,,0,0,0,1,2,0,2,0,28,0,28,0,,,,,,,,,,,,,,,,,359.6575413001701,None,360.4075195998885,361.00770460022613,360.9911116999574,362.9921380998567,None,1,0.6125500500202179,2.61364155029878,decreament,0.6,11,standard,None,100,,,,,,,,f,24,211,fr,l,0,raw,2022-05-24_10h09.18.002,oddball,2022.1.2,60.000744042831414,
5,,,,,0,0,0,1,2,0,2,0,29,0,29,0,,,,,,,,,,,,,,,,,363.00896510016173,None,363.7088155001402,364.3087430000305,364.2923314999789,366.29318370018154,None,1,0.611421249806881,2.612324549816549,decreament,0.6,11,standard,None,100,,,,,,,,f,24,211,fr,l,0,raw,2022-05-24_10h09.18.002,oddball,2022.1.2,60.000744042831414,
5,,,,,0,0,0,1,3,0,3,0,0,0,0,0,,,,,,,,,,,,,,,378.3974327999167,None,393.3864060002379,None,394.08692699996755,394.6870401999913,394.6707708998583,396.6712631001137,None,1,0.6132133505307138,2.6136680506169796,increament,0.6,15,standard,None,100,,366.30990999983624,None,,,,,f,24,211,fr,l,0,raw,2022-05-24_10h09.18.002,oddball,2022.1.2,60.000744042831414,
5,,,,,0,0,0,1,3,0,3,0,1,0,1,0,,,,,,,,,,,,,,,,,396.68794459989294,None,397.3715220000595,397.9715749002062,397.95523850014433,399.9558564000763,None,1,0.6137910503894091,2.614414650015533,increament,0.6,15,standard,None,100,,,,,,,,f,24,211,fr,l,0,raw,2022-05-24_10h09.18.002,oddball,2022.1.2,60.000744042831414,
5,,,,,0,0,0,1,3,0,3,0,2,0,2,0,,,,,,,,,,,,,,,,,399.97224469995126,None,400.7227218998596,401.32319380017,401.30653470009565,403.30754909990355,None,1,0.6143902498297393,2.6152708497829735,increament,0.6,15,standard,None,100,,,,,,,,f,24,211,fr,l,0,raw,2022-05-24_10h09.18.002,oddball,2022.1.2,60.000744042831414,
5,,,,,0,0,0,1,3,0,3,0,3,0,3,0,,,,,,,,,,,,,,,,,403.3239485998638,None,404.09074919996783,404.69087309995666,404.67491160007194,406.6750763999298,None,1,0.6122049503028393,2.612337250262499,increament,0.6,15,standard,None,100,,,,,,,,f,24,211,fr,l,0,raw,2022-05-24_10h09.18.002,oddball,2022.1.2,60.000744042831414,
5,,,,,0,0,0,1,3,0,3,0,4,0,4,0,,,,,,,,,,,,,,,,,406.6919240001589,None,407.4588697999716,408.0589300999418,408.04213920002803,410.04256770014763,None,1,0.609205350279808,2.6095871501602232,increament,0.6,15,standard,None,100,,,,,,,,f,24,211,fr,l,0,raw,2022-05-24_10h09.18.002,oddball,2022.1.2,60.000744042831414,
5,,,,,0,0,0,1,3,0,3,0,5,0,5,0,,,,,,,,,,,,,,,,,410.0591819998808,None,410.7932962998748,411.52679130015895,411.4938608002849,413.49426389997825,None,0,0.7263619499281049,2.7266765497624874,increament,0.72,16,oddball,j,120,,,,,,,,f,24,211,fr,l,0,raw,2022-05-24_10h09.18.002,oddball,2022.1.2,60.000744042831414,
5,,,,,0,0,0,1,3,0,3,0,6,0,6,0,,,,,,,,,,,,,,,,,413.5111157000065,None,414.0609635999426,414.6613020002842,414.6449655001052,416.64583479985595,None,1,0.6121397502720356,2.6128760501742363,increament,0.6,15,standard,None,100,,,,,,,,f,24,211,fr,l,0,raw,2022-05-24_10h09.18.002,oddball,2022.1.2,60.000744042831414,
5,,,,,0,0,0,1,3,0,3,0,7,0,7,0,,,,,,,,,,,,,,,,,416.6622453001328,None,417.26209980016574,417.8622444998473,417.84579880023375,419.8466191999614,None,1,0.614102550316602,2.6149733499623835,increament,0.6,15,standard,None,100,,,,,,,,f,24,211,fr,l,0,raw,2022-05-24_10h09.18.002,oddball,2022.1.2,60.000744042831414,
5,,,,,0,0,0,1,3,0,3,0,8,0,8,0,,,,,,,,,,,,,,,,,419.8633639002219,None,420.68026999989524,421.28030449990183,421.26359670003876,423.26416409993544,None,1,0.6129316501319408,2.6134431501850486,increament,0.6,15,standard,None,100,,,,,,,,f,24,211,fr,l,0,raw,2022-05-24_10h09.18.002,oddball,2022.1.2,60.000744042831414,
5,,,,,0,0,0,1,3,0,3,0,9,0,9,0,,,,,,,,,,,,,,,,,423.2808377002366,None,423.8648514999077,424.4651954998262,424.4486154001206,426.44874700019136,None,1,0.6140901502221823,2.6140980501659214,increament,0.6,15,standard,None,100,,,,,,,,f,24,211,fr,l,0,raw,2022-05-24_10h09.18.002,oddball,2022.1.2,60.000744042831414,
5,,,,,0,0,0,1,3,0,3,0,10,0,10,0,,,,,,,,,,,,,,,,,426.4654239001684,None,427.21586330002174,427.816327100154,427.7997285001911,429.80046109994873,None,1,0.6128743500448763,2.613606450147927,increament,0.6,15,standard,None,100,,,,,,,,f,24,211,fr,l,0,raw,2022-05-24_10h09.18.002,oddball,2022.1.2,60.000744042831414,
5,,,,,0,0,0,1,3,0,3,0,11,0,11,0,,,,,,,,,,,,,,,,,429.81713710026816,None,430.53404559986666,431.1340899001807,431.11766629992053,433.11813470022753,None,1,0.6131094503216445,2.6135103502310812,increament,0.6,15,standard,None,100,,,,,,,,f,24,211,fr,l,0,raw,2022-05-24_10h09.18.002,oddball,2022.1.2,60.000744042831414,
5,,,,,0,0,0,1,3,0,3,0,12,0,12,0,,,,,,,,,,,,,,,,,433.1348394998349,None,433.80219510011375,434.40206729993224,434.38559779990464,436.38633610028774,None,1,0.6093441494740546,2.610071249306202,increament,0.6,15,standard,None,100,,,,,,,,f,24,211,fr,l,0,raw,2022-05-24_10h09.18.002,oddball,2022.1.2,60.000744042831414,
5,,,,,0,0,0,1,3,0,3,0,13,0,13,0,,,,,,,,,,,,,,,,,436.40289140027016,None,436.96955250017345,437.5701353000477,437.5535737001337,439.554147799965,j,0,0.6129784500226378,2.6135132499039173,increament,0.6,15,standard,None,100,0.8143688999116421,,,,,,,f,24,211,fr,l,0,raw,2022-05-24_10h09.18.002,oddball,2022.1.2,60.000744042831414,
5,,,,,0,0,0,1,3,0,3,0,14,0,14,0,,,,,,,,,,,,,,,,,439.5707056000829,None,440.2543379999697,440.85452579986304,440.83782770019025,442.8389476002194,None,1,0.6134632499888539,2.6146760499104857,increament,0.6,15,standard,None,100,,,,,,,,f,24,211,fr,l,0,raw,2022-05-24_10h09.18.002,oddball,2022.1.2,60.000744042831414,
5,,,,,0,0,0,1,3,0,3,0,15,0,15,0,,,,,,,,,,,,,,,,,442.8557484000921,None,443.58875910006464,444.1893075001426,444.17284809984267,446.1734469998628,None,1,0.6138251502998173,2.614447950385511,increament,0.6,15,standard,None,100,,,,,,,,f,24,211,fr,l,0,raw,2022-05-24_10h09.18.002,oddball,2022.1.2,60.000744042831414,
5,,,,,0,0,0,1,3,0,3,0,16,0,16,0,,,,,,,,,,,,,,,,,446.1898520998657,None,446.7403199002147,447.3405742002651,447.32374620018527,449.3244326002896,None,1,0.6125795501284301,2.613271350041032,increament,0.6,15,standard,None,100,,,,,,,,f,24,211,fr,l,0,raw,2022-05-24_10h09.18.002,oddball,2022.1.2,60.000744042831414,
5,,,,,0,0,0,1,3,0,3,0,17,0,17,0,,,,,,,,,,,,,,,,,449.34112420026213,None,449.90827520005405,450.5085414000787,450.49189280020073,452.49230880010873,None,1,0.6097051501274109,2.6100555500015616,increament,0.6,15,standard,None,100,,,,,,,,f,24,211,fr,l,0,raw,2022-05-24_10h09.18.002,oddball,2022.1.2,60.000744042831414,
5,,,,,0,0,0,1,3,0,3,0,18,0,18,0,,,,,,,,,,,,,,,,,452.50911429990083,None,453.1929226000793,453.79277070006356,453.77594610024244,455.77721680002287,None,1,0.6113360500894487,2.6126865497790277,increament,0.6,15,standard,None,100,,,,,,,,f,24,211,fr,l,0,raw,2022-05-24_10h09.18.002,oddball,2022.1.2,60.000744042831414,
5,,,,,0,0,0,1,3,0,3,0,19,0,19,0,,,,,,,,,,,,,,,,,455.7936010998674,None,456.4771436001174,457.07742090011016,457.06071359990165,459.0615806998685,None,1,0.6122223497368395,2.613127149641514,increament,0.6,15,standard,None,100,,,,,,,,f,24,211,fr,l,0,raw,2022-05-24_10h09.18.002,oddball,2022.1.2,60.000744042831414,
5,,,,,0,0,0,1,3,0,3,0,20,0,20,0,,,,,,,,,,,,,,,,,459.0783798000775,None,459.7452079998329,460.3457621000707,460.3286365000531,462.32934369985014,None,1,0.6124748499132693,2.613155049737543,increament,0.6,15,standard,None,100,,,,,,,,f,24,211,fr,l,0,raw,2022-05-24_10h09.18.002,oddball,2022.1.2,60.000744042831414,
5,,,,,0,0,0,1,3,0,3,0,21,0,21,0,,,,,,,,,,,,,,,,,462.34599620010704,None,462.9796195002273,463.5799378999509,463.5633628000505,465.56374539993703,None,1,0.6126086497679353,2.6129369498230517,increament,0.6,15,standard,None,100,,,,,,,,f,24,211,fr,l,0,raw,2022-05-24_10h09.18.002,oddball,2022.1.2,60.000744042831414,
5,,,,,0,0,0,1,3,0,3,0,22,0,22,0,,,,,,,,,,,,,,,,,465.5809394000098,None,466.11453300016,466.7145571000874,466.6979176001623,468.69877230003476,None,1,0.6108493492938578,2.6117141493596137,increament,0.6,15,standard,None,100,,,,,,,,f,24,211,fr,l,0,raw,2022-05-24_10h09.18.002,oddball,2022.1.2,60.000744042831414,
5,,,,,0,0,0,1,3,0,3,0,23,0,23,0,,,,,,,,,,,,,,,,,468.716195799876,None,469.3655483000912,470.21561039984226,470.18228519987315,472.1830529002473,None,0,0.845885549671948,2.846646349877119,increament,0.84,17,oddball,j,140,,,,,,,,f,24,211,fr,l,0,raw,2022-05-24_10h09.18.002,oddball,2022.1.2,60.000744042831414,
5,,,,,0,0,0,1,3,0,3,0,24,0,24,0,,,,,,,,,,,,,,,,,472.1999546000734,None,472.9667295999825,473.5671140002087,473.55009600007907,475.55115400021896,None,1,0.6140485494397581,2.6151738497428596,increament,0.6,15,standard,None,100,,,,,,,,f,24,211,fr,l,0,raw,2022-05-24_10h09.18.002,oddball,2022.1.2,60.000744042831414,
5,,,,,0,0,0,1,3,0,3,0,25,0,25,0,,,,,,,,,,,,,,,,,475.56793110026047,None,476.15120729990304,476.7517117001116,476.73537949984893,478.7355116000399,None,1,0.6148375500924885,2.6148847504518926,increament,0.6,15,standard,None,100,,,,,,,,f,24,211,fr,l,0,raw,2022-05-24_10h09.18.002,oddball,2022.1.2,60.000744042831414,
5,,,,,0,0,0,1,3,0,3,0,26,0,26,0,,,,,,,,,,,,,,,,,478.75208810018376,None,479.4027666999027,480.0029124999419,479.98631850024685,481.98641370004043,None,1,0.6083126501180232,2.6083091502077878,increament,0.6,15,standard,None,100,,,,,,,,f,24,211,fr,l,0,raw,2022-05-24_10h09.18.002,oddball,2022.1.2,60.000744042831414,
5,,,,,0,0,0,1,3,0,3,0,27,0,27,0,,,,,,,,,,,,,,,,,482.0031377002597,None,482.55331399990246,483.15368280000985,483.1369725000113,485.13751089992,None,1,0.6147517496719956,2.615278049837798,increament,0.6,15,standard,None,100,,,,,,,,f,24,211,fr,l,0,raw,2022-05-24_10h09.18.002,oddball,2022.1.2,60.000744042831414,
5,,,,,0,0,0,1,3,0,3,0,28,0,28,0,,,,,,,,,,,,,,,,,485.154203500133,None,485.92118349997327,486.52141600009054,486.50479889987037,488.5054604001343,None,1,0.6155322501435876,2.6161954500712454,increament,0.6,15,standard,None,100,,,,,,,,f,24,211,fr,l,0,raw,2022-05-24_10h09.18.002,oddball,2022.1.2,60.000744042831414,
5,,,,,0,0,0,1,3,0,3,0,29,0,29,0,,,,,,,,,,,,,,,,,488.52213229984045,None,489.1390650002286,490.10604700027034,490.0727442000061,492.07345149992034,None,0,0.965575949754566,2.9662815500050783,increament,0.96,18,oddball,j,160,,,,,,,,f,24,211,fr,l,0,raw,2022-05-24_10h09.18.002,oddball,2022.1.2,60.000744042831414,
5,,,,,0,0,0,1,4,0,4,0,0,0,0,0,,,,,,,,,,,,,,,506.52909350022674,None,511.9810194000602,None,512.5979463001713,513.1981219002046,513.181482499931,515.182196599897,None,1,0.6152672502212226,2.615982050076127,decreament,0.6,11,standard,None,100,,492.09039890021086,None,,,,,f,24,211,fr,l,0,raw,2022-05-24_10h09.18.002,oddball,2022.1.2,60.000744042831414,
5,,,,,0,0,0,1,4,0,4,0,1,0,1,0,,,,,,,,,,,,,,,,,515.1990133998916,None,515.7492046998814,516.3494569999166,516.3328484999947,518.3336068000644,None,1,0.6152509502135217,2.6160510503686965,decreament,0.6,11,standard,None,100,,,,,,,,f,24,211,fr,l,0,raw,2022-05-24_10h09.18.002,oddball,2022.1.2,60.000744042831414,
5,,,,,0,0,0,1,4,0,4,0,2,0,2,0,,,,,,,,,,,,,,,,,518.350276700221,None,519.067373199854,519.6672471002676,519.6506218998693,521.6514551001601,None,1,0.6134065501391888,2.614250250160694,decreament,0.6,11,standard,None,100,,,,,,,,f,24,211,fr,l,0,raw,2022-05-24_10h09.18.002,oddball,2022.1.2,60.000744042831414,
5,,,,,0,0,0,1,4,0,4,0,3,0,3,0,,,,,,,,,,,,,,,,,521.6681898999959,None,522.2684404999018,522.86860539997,522.8519717999734,524.8527019000612,None,1,0.614852249622345,2.61558844987303,decreament,0.6,11,standard,None,100,,,,,,,,f,24,211,fr,l,0,raw,2022-05-24_10h09.18.002,oddball,2022.1.2,60.000744042831414,
5,,,,,0,0,0,1,4,0,4,0,4,0,4,0,,,,,,,,,,,,,,,,,524.8693997999653,None,525.4529675999656,526.0532937999815,526.0365468002856,528.0372318001464,None,1,0.6143044498749077,2.6149969496764243,decreament,0.6,11,standard,None,100,,,,,,,,f,24,211,fr,l,0,raw,2022-05-24_10h09.18.002,oddball,2022.1.2,60.000744042831414,
5,,,,,0,0,0,1,4,0,4,0,5,0,5,0,,,,,,,,,,,,,,,,,528.0539099001326,None,528.5874693999067,529.1876366999932,529.1710450998507,531.1717985002324,None,1,0.6149405497126281,2.615719349589199,decreament,0.6,11,standard,None,100,,,,,,,,f,24,211,fr,l,0,raw,2022-05-24_10h09.18.002,oddball,2022.1.2,60.000744042831414,
5,,,,,0,0,0,1,4,0,4,0,6,0,6,0,,,,,,,,,,,,,,,,,531.1884372001514,None,531.8053947999142,532.4055273998529,532.3889172002673,534.3897163998336,None,1,0.6144835501909256,2.6152925500646234,decreament,0.6,11,standard,None,100,,,,,,,,f,24,211,fr,l,0,raw,2022-05-24_10h09.18.002,oddball,2022.1.2,60.000744042831414,
5,,,,,0,0,0,1,4,0,4,0,7,0,7,0,,,,,,,,,,,,,,,,,534.4063124000095,None,535.0565857999027,535.6567874001339,535.6402377998456,537.6408122000284,None,1,0.6147786495275795,2.6153329494409263,decreament,0.6,11,standard,None,100,,,,,,,,f,24,211,fr,l,0,raw,2022-05-24_10h09.18.002,oddball,2022.1.2,60.000744042831414,
5,,,,,0,0,0,1,4,0,4,0,8,0,8,0,,,,,,,,,,,,,,,,,537.657552300021,None,538.2410650998354,538.8415534002706,538.8251960002817,540.8259886000305,j,0,0.6150378505699337,2.615827150642872,decreament,0.6,11,standard,None,100,1.2140371999703348,,,,,,,f,24,211,fr,l,0,raw,2022-05-24_10h09.18.002,oddball,2022.1.2,60.000744042831414,
5,,,,,0,0,0,1,4,0,4,0,9,0,9,0,,,,,,,,,,,,,,,,,540.8423672001809,None,541.5760221001692,542.1763935000636,542.1597782000899,544.1601799000055,None,1,0.6129292501136661,2.6133148497901857,decreament,0.6,11,standard,None,100,,,,,,,,f,24,211,fr,l,0,raw,2022-05-24_10h09.18.002,oddball,2022.1.2,60.000744042831414,
5,,,,,0,0,0,1,4,0,4,0,10,0,10,0,,,,,,,,,,,,,,,,,544.1768920002505,None,544.7101475000381,545.3107795999385,545.2942106998526,547.2951392000541,None,1,0.6153026502579451,2.6162675502710044,decreament,0.6,11,standard,None,100,,,,,,,,f,24,211,fr,l,0,raw,2022-05-24_10h09.18.002,oddball,2022.1.2,60.000744042831414,
5,,,,,0,0,0,1,4,0,4,0,11,0,11,0,,,,,,,,,,,,,,,,,547.3116852999665,None,547.8950367998332,548.4950506002642,548.4787314999849,550.4795146998949,None,1,0.6119130495935678,2.612725949846208,decreament,0.6,11,standard,None,100,,,,,,,,f,24,211,fr,l,0,raw,2022-05-24_10h09.18.002,oddball,2022.1.2,60.000744042831414,
5,,,,,0,0,0,1,4,0,4,0,12,0,12,0,,,,,,,,,,,,,,,,,550.4963779998943,None,551.0464189001359,551.646437600255,551.6297989999875,553.6305626998655,None,1,0.6124047501944005,2.6131712500937283,decreament,0.6,11,standard,None,100,,,,,,,,f,24,211,fr,l,0,raw,2022-05-24_10h09.18.002,oddball,2022.1.2,60.000744042831414,
5,,,,,0,0,0,1,4,0,4,0,13,0,13,0,,,,,,,,,,,,,,,,,553.6473679002374,None,554.3311394001357,554.9313111002557,554.9146139002405,556.9149730000645,None,1,0.6094799498096108,2.6097752493806183,decreament,0.6,11,standard,None,100,,,,,,,,f,24,211,fr,l,0,raw,2022-05-24_10h09.18.002,oddball,2022.1.2,60.000744042831414,
5,,,,,0,0,0,1,4,0,4,0,14,0,14,0,,,,,,,,,,,,,,,,,556.9320050999522,None,557.5659308000468,558.0488248001784,558.0322553999722,560.0331144998781,None,0,0.4926888500340283,2.4935365500859916,decreament,0.48,14,oddball,j,80,,,,,,,,f,24,211,fr,l,0,raw,2022-05-24_10h09.18.002,oddball,2022.1.2,60.000744042831414,
5,,,,,0,0,0,1,4,0,4,0,15,0,15,0,,,,,,,,,,,,,,,,,560.0496551999822,None,560.7166110002436,561.3168672001921,561.3003997001797,563.3010507998988,None,1,0.6157786496914923,2.6164732496254146,decreament,0.6,11,standard,None,100,,,,,,,,f,24,211,fr,l,0,raw,2022-05-24_10h09.18.002,oddball,2022.1.2,60.000744042831414,
5,,,,,0,0,0,1,4,0,4,0,16,0,16,0,,,,,,,,,,,,,,,,,563.3177395001985,None,564.0012521999888,564.6015778998844,564.5849445001222,566.5857529998757,None,1,0.6128772501833737,2.613726350478828,decreament,0.6,11,standard,None,100,,,,,,,,f,24,211,fr,l,0,raw,2022-05-24_10h09.18.002,oddball,2022.1.2,60.000744042831414,
5,,,,,0,0,0,1,4,0,4,0,17,0,17,0,,,,,,,,,,,,,,,,,566.6022254000418,None,567.3192757000215,567.919558300171,567.902805800084,569.9030940998346,None,1,0.6114018503576517,2.6116286502219737,decreament,0.6,11,standard,None,100,,,,,,,,f,24,211,fr,l,0,raw,2022-05-24_10h09.18.002,oddball,2022.1.2,60.000744042831414,
5,,,,,0,0,0,1,4,0,4,0,18,0,18,0,,,,,,,,,,,,,,,,,569.9198638000526,None,570.553963500075,571.1540362001397,571.1375946998596,573.1378862001002,None,1,0.6092863501980901,2.6095232502557337,decreament,0.6,11,standard,None,100,,,,,,,,f,24,211,fr,l,0,raw,2022-05-24_10h09.18.002,oddball,2022.1.2,60.000744042831414,
5,,,,,0,0,0,1,4,0,4,0,19,0,19,0,,,,,,,,,,,,,,,,,573.1546551999636,None,573.7220240002498,574.322057500016,574.3053272999823,576.3060141000897,None,1,0.609379350207746,2.610032150056213,decreament,0.6,11,standard,None,100,,,,,,,,f,24,211,fr,l,0,raw,2022-05-24_10h09.18.002,oddball,2022.1.2,60.000744042831414,
5,,,,,0,0,0,1,4,0,4,0,20,0,20,0,,,,,,,,,,,,,,,,,576.3224400999025,None,576.9229620001279,577.5231021000072,577.5066847000271,579.5073386998847,None,1,0.6122138500213623,2.612823050003499,decreament,0.6,11,standard,None,100,,,,,,,,f,24,211,fr,l,0,raw,2022-05-24_10h09.18.002,oddball,2022.1.2,60.000744042831414,
5,,,,,0,0,0,1,4,0,4,0,21,0,21,0,,,,,,,,,,,,,,,,,579.5238752998412,None,580.1740204002708,580.7745174998417,580.757876300253,582.7583993999287,None,1,0.6127190501429141,2.6130273500457406,decreament,0.6,11,standard,None,100,,,,,,,,f,24,211,fr,l,0,raw,2022-05-24_10h09.18.002,oddball,2022.1.2,60.000744042831414,
5,,,,,0,0,0,1,4,0,4,0,22,0,22,0,,,,,,,,,,,,,,,,,582.7748313001357,None,583.4917918001302,583.8590132999234,583.8254960002378,585.8265885999426,j,1,0.362227950245142,2.36334545025602,decreament,0.36,13,oddball,j,60,0.6537953000515699,,,,,,,f,24,211,fr,l,0,raw,2022-05-24_10h09.18.002,oddball,2022.1.2,60.000744042831414,
5,,,,,0,0,0,1,4,0,4,0,23,0,23,0,,,,,,,,,,,,,,,,,585.8431183001958,None,586.4762273998931,587.0771622001193,587.0603893999942,589.0605525998399,None,1,0.6146948495879769,2.6147864498198032,decreament,0.6,11,standard,None,100,,,,,,,,f,24,211,fr,l,0,raw,2022-05-24_10h09.18.002,oddball,2022.1.2,60.000744042831414,
5,,,,,0,0,0,1,4,0,4,0,24,0,24,0,,,,,,,,,,,,,,,,,589.0773825002834,None,589.6611505001783,590.261131499894,590.2444597999565,592.2451880001463,None,1,0.6098103495314717,2.6106210495345294,decreament,0.6,11,standard,None,100,,,,,,,,f,24,211,fr,l,0,raw,2022-05-24_10h09.18.002,oddball,2022.1.2,60.000744042831414,
5,,,,,0,0,0,1,4,0,4,0,25,0,25,0,,,,,,,,,,,,,,,,,592.2619427000172,None,592.9123658998869,593.5121800000779,593.4957793001086,595.4961184998974,None,1,0.6107548498548567,2.6110947499983013,decreament,0.6,11,standard,None,100,,,,,,,,f,24,211,fr,l,0,raw,2022-05-24_10h09.18.002,oddball,2022.1.2,60.000744042831414,
5,,,,,0,0,0,1,4,0,4,0,26,0,26,0,,,,,,,,,,,,,,,,,595.5127707002684,None,596.1466957000084,596.7471628002822,596.7304221000522,598.731178900227,None,1,0.6128083500079811,2.61353624984622,decreament,0.6,11,standard,None,100,,,,,,,,f,24,211,fr,l,0,raw,2022-05-24_10h09.18.002,oddball,2022.1.2,60.000744042831414,
5,,,,,0,0,0,1,4,0,4,0,27,0,27,0,,,,,,,,,,,,,,,,,598.7476602001116,None,599.6315013999119,599.8814329002053,599.8481584000401,601.848765200004,j,1,0.24475745018571615,2.2453567502088845,decreament,0.24,12,oddball,j,40,0.7345520001836121,,,,,,,f,24,211,fr,l,0,raw,2022-05-24_10h09.18.002,oddball,2022.1.2,60.000744042831414,
5,,,,,0,0,0,1,4,0,4,0,28,0,28,0,,,,,,,,,,,,,,,,,601.8655040999874,None,602.5656428998336,603.1660229000263,603.1491870000027,605.1501945001073,None,1,0.6120048495940864,2.6130428495816886,decreament,0.6,11,standard,None,100,,,,,,,,f,24,211,fr,l,0,raw,2022-05-24_10h09.18.002,oddball,2022.1.2,60.000744042831414,
5,,,,,0,0,0,1,4,0,4,0,29,0,29,0,,,,,,,,,,,,,,,,,605.1667486000806,None,605.7168482001871,606.3171238000505,606.3003858001903,608.3014382002875,None,1,0.6132289501838386,2.6143385502509773,decreament,0.6,11,standard,None,100,,,,,,,,f,24,211,fr,l,0,raw,2022-05-24_10h09.18.002,oddball,2022.1.2,60.000744042831414,
5,,,,,0,0,0,1,5,0,5,0,0,0,0,0,,,,,,,,,,,,,,,623.0205470998771,None,624.0737805999815,None,624.790825500153,625.3909557000734,625.374353799969,627.3752260999754,None,1,0.6139561496675014,2.614850249607116,increament,0.6,15,standard,None,100,,608.3201906001195,None,,,,,f,24,211,fr,l,0,raw,2022-05-24_10h09.18.002,oddball,2022.1.2,60.000744042831414,
5,,,,,0,0,0,1,5,0,5,0,1,0,1,0,,,,,,,,,,,,,,,,,627.3918329002336,None,628.025217700284,628.6255950001068,628.6089846999384,630.6099330000579,None,1,0.6136002498678863,2.614628450013697,increament,0.6,15,standard,None,100,,,,,,,,f,24,211,fr,l,0,raw,2022-05-24_10h09.18.002,oddball,2022.1.2,60.000744042831414,
5,,,,,0,0,0,1,5,0,5,0,2,0,2,0,,,,,,,,,,,,,,,,,630.6263721999712,None,631.3437824998982,631.9435168001801,631.9266567002051,633.9276339998469,None,1,0.6099221501499414,2.610923250205815,increament,0.6,15,standard,None,100,,,,,,,,f,24,211,fr,l,0,raw,2022-05-24_10h09.18.002,oddball,2022.1.2,60.000744042831414,
5,,,,,0,0,0,1,5,0,5,0,3,0,3,0,,,,,,,,,,,,,,,,,633.9442310002632,None,634.6444876999594,635.2453160998411,635.2283199001104,637.2288045999594,None,1,0.6153048505075276,2.6157175502739847,increament,0.6,15,standard,None,100,,,,,,,,f,24,211,fr,l,0,raw,2022-05-24_10h09.18.002,oddball,2022.1.2,60.000744042831414,
5,,,,,0,0,0,1,5,0,5,0,4,0,4,0,,,,,,,,,,,,,,,,,637.2455712002702,None,637.8462872998789,638.4462371999398,638.4294221000746,640.4303530999459,None,1,0.6087950496003032,2.609780349768698,increament,0.6,15,standard,None,100,,,,,,,,f,24,211,fr,l,0,raw,2022-05-24_10h09.18.002,oddball,2022.1.2,60.000744042831414,
5,,,,,0,0,0,1,5,0,5,0,5,0,5,0,,,,,,,,,,,,,,,,,640.4468169999309,None,641.1137724001892,641.8472043001093,641.8138124002144,643.8146672998555,None,0,0.7287099496461451,2.7295871498063207,increament,0.72,16,oddball,j,120,,,,,,,,f,24,211,fr,l,0,raw,2022-05-24_10h09.18.002,oddball,2022.1.2,60.000744042831414,
5,,,,,0,0,0,1,5,0,5,0,6,0,6,0,,,,,,,,,,,,,,,,,643.8316402002238,None,644.4815743002109,645.0818362999707,645.0654501998797,647.0658157998696,None,1,0.6134779499843717,2.6137566501274705,increament,0.6,15,standard,None,100,,,,,,,,f,24,211,fr,l,0,raw,2022-05-24_10h09.18.002,oddball,2022.1.2,60.000744042831414,
5,,,,,0,0,0,1,5,0,5,0,7,0,7,0,,,,,,,,,,,,,,,,,647.082559000235,None,647.649547799956,648.2498682001606,648.2333153001964,650.2339218002744,None,1,0.6139576500281692,2.614577949978411,increament,0.6,15,standard,None,100,,,,,,,,f,24,211,fr,l,0,raw,2022-05-24_10h09.18.002,oddball,2022.1.2,60.000744042831414,
5,,,,,0,0,0,1,5,0,5,0,8,0,8,0,,,,,,,,,,,,,,,,,650.2508459002711,None,651.150865000207,651.7509475001134,651.7345108999871,653.7353440001607,None,1,0.6133331498131156,2.614185850135982,increament,0.6,15,standard,None,100,,,,,,,,f,24,211,fr,l,0,raw,2022-05-24_10h09.18.002,oddball,2022.1.2,60.000744042831414,
5,,,,,0,0,0,1,5,0,5,0,9,0,9,0,,,,,,,,,,,,,,,,,653.7521708998829,None,654.4688312001526,655.069328899961,655.0522198001854,657.0532467002049,None,1,0.6132959499955177,2.6143759498372674,increament,0.6,15,standard,None,100,,,,,,,,f,24,211,fr,l,0,raw,2022-05-24_10h09.18.002,oddball,2022.1.2,60.000744042831414,
5,,,,,0,0,0,1,5,0,5,0,10,0,10,0,,,,,,,,,,,,,,,,,657.0699881999753,None,657.8198648001999,658.4200551002286,658.4035737998784,660.4045029999688,None,1,0.6134378500282764,2.6143892500549555,increament,0.6,15,standard,None,100,,,,,,,,f,24,211,fr,l,0,raw,2022-05-24_10h09.18.002,oddball,2022.1.2,60.000744042831414,
5,,,,,0,0,0,1,5,0,5,0,11,0,11,0,,,,,,,,,,,,,,,,,660.4210736001842,None,661.0212249001488,661.621410400141,661.6046969001181,663.6057577002794,None,1,0.6138098500669003,2.6149166501127183,increament,0.6,15,standard,None,100,,,,,,,,f,24,211,fr,l,0,raw,2022-05-24_10h09.18.002,oddball,2022.1.2,60.000744042831414,
5,,,,,0,0,0,1,5,0,5,0,12,0,12,0,,,,,,,,,,,,,,,,,663.6223867000081,None,664.4225103999488,665.0226051998325,665.0059902002104,667.0067762001418,None,1,0.6124480501748621,2.613233149982989,increament,0.6,15,standard,None,100,,,,,,,,f,24,211,fr,l,0,raw,2022-05-24_10h09.18.002,oddball,2022.1.2,60.000744042831414,
5,,,,,0,0,0,1,5,0,5,0,13,0,13,0,,,,,,,,,,,,,,,,,667.0236503998749,None,667.7402236000635,668.7074370998889,668.673939500004,670.6749665001407,None,0,0.9647009498439729,2.965791250113398,increament,0.96,18,oddball,j,160,,,,,,,,f,24,211,fr,l,0,raw,2022-05-24_10h09.18.002,oddball,2022.1.2,60.000744042831414,
5,,,,,0,0,0,1,5,0,5,0,14,0,14,0,,,,,,,,,,,,,,,,,670.6916613001376,None,671.3248672001064,671.9255512002856,671.9091195999645,673.9095355998725,None,1,0.6156356502324343,2.615979750175029,increament,0.6,15,standard,None,100,,,,,,,,f,24,211,fr,l,0,raw,2022-05-24_10h09.18.002,oddball,2022.1.2,60.000744042831414,
5,,,,,0,0,0,1,5,0,5,0,15,0,15,0,,,,,,,,,,,,,,,,,673.9260819000192,None,674.5428586001508,675.1432880000211,675.1266749999486,677.1274550999515,None,1,0.6153027499094605,2.616116149816662,increament,0.6,15,standard,None,100,,,,,,,,f,24,211,fr,l,0,raw,2022-05-24_10h09.18.002,oddball,2022.1.2,60.000744042831414,
5,,,,,0,0,0,1,5,0,5,0,16,0,16,0,,,,,,,,,,,,,,,,,677.1443071002141,None,677.7112131002359,678.3110473002307,678.2944893999957,680.2951147002168,None,1,0.6118841501884162,2.612493250053376,increament,0.6,15,standard,None,100,,,,,,,,f,24,211,fr,l,0,raw,2022-05-24_10h09.18.002,oddball,2022.1.2,60.000744042831414,
5,,,,,0,0,0,1,5,0,5,0,17,0,17,0,,,,,,,,,,,,,,,,,680.3120690002106,None,680.9794347002171,681.5788561999798,681.5624520001002,683.563157199882,None,1,0.6094923503696918,2.610154850408435,increament,0.6,15,standard,None,100,,,,,,,,f,24,211,fr,l,0,raw,2022-05-24_10h09.18.002,oddball,2022.1.2,60.000744042831414,
5,,,,,0,0,0,1,5,0,5,0,18,0,18,0,,,,,,,,,,,,,,,,,683.5798368998803,None,684.2133178999647,684.8134397002868,684.7968017002568,686.7979447999969,None,1,0.6131105502136052,2.6143227498978376,increament,0.6,15,standard,None,100,,,,,,,,f,24,211,fr,l,0,raw,2022-05-24_10h09.18.002,oddball,2022.1.2,60.000744042831414,
5,,,,,0,0,0,1,5,0,5,0,19,0,19,0,,,,,,,,,,,,,,,,,686.8144928999245,None,687.5980703001842,688.1979208998382,688.1812304998748,690.1824491000734,None,1,0.6116521498188376,2.6129645495675504,increament,0.6,15,standard,None,100,,,,,,,,f,24,211,fr,l,0,raw,2022-05-24_10h09.18.002,oddball,2022.1.2,60.000744042831414,
5,,,,,0,0,0,1,5,0,5,0,20,0,20,0,,,,,,,,,,,,,,,,,690.1992171001621,None,690.8829606999643,691.4829731001519,691.4662500000559,693.4669143999927,None,1,0.6114651500247419,2.612083449959755,increament,0.6,15,standard,None,100,,,,,,,,f,24,211,fr,l,0,raw,2022-05-24_10h09.18.002,oddball,2022.1.2,60.000744042831414,
5,,,,,0,0,0,1,5,0,5,0,21,0,21,0,,,,,,,,,,,,,,,,,693.4835483999923,None,694.1175060002133,694.9676760998555,694.9344450999051,696.9348952998407,j,1,0.8435305496677756,2.843858949840069,increament,0.84,17,oddball,j,140,0.648547699674964,,,,,,,f,24,211,fr,l,0,raw,2022-05-24_10h09.18.002,oddball,2022.1.2,60.000744042831414,
5,,,,,0,0,0,1,5,0,5,0,22,0,22,0,,,,,,,,,,,,,,,,,696.9519985001534,None,697.768586799968,698.3689987999387,698.3521855999716,700.3531563002616,None,1,0.6123089496977627,2.613319749943912,increament,0.6,15,standard,None,100,,,,,,,,f,24,211,fr,l,0,raw,2022-05-24_10h09.18.002,oddball,2022.1.2,60.000744042831414,
5,,,,,0,0,0,1,5,0,5,0,23,0,23,0,,,,,,,,,,,,,,,,,700.3697429001331,None,700.9700356000103,701.5698115001433,701.5534000000916,703.5545411002822,None,1,0.610536249820143,2.6117671499960124,increament,0.6,15,standard,None,100,,,,,,,,f,24,211,fr,l,0,raw,2022-05-24_10h09.18.002,oddball,2022.1.2,60.000744042831414,
5,,,,,0,0,0,1,5,0,5,0,24,0,24,0,,,,,,,,,,,,,,,,,703.5706913000904,None,704.2210551002063,704.8211771999486,704.8045457000844,706.8052278002724,None,1,0.6139002498239279,2.614570050034672,increament,0.6,15,standard,None,100,,,,,,,,f,24,211,fr,l,0,raw,2022-05-24_10h09.18.002,oddball,2022.1.2,60.000744042831414,
5,,,,,0,0,0,1,5,0,5,0,25,0,25,0,,,,,,,,,,,,,,,,,706.8221443002112,None,707.5221660002135,708.1226578000933,708.1059897998348,710.106434899848,None,1,0.6135244499891996,2.6139482497237623,increament,0.6,15,standard,None,100,,,,,,,,f,24,211,fr,l,0,raw,2022-05-24_10h09.18.002,oddball,2022.1.2,60.000744042831414,
5,,,,,0,0,0,1,5,0,5,0,26,0,26,0,,,,,,,,,,,,,,,,,710.1231597000733,None,710.7399389999919,711.3404712001793,711.3237955998629,713.3248363998719,None,1,0.6129109500907362,2.6139672501012683,increament,0.6,15,standard,None,100,,,,,,,,f,24,211,fr,l,0,raw,2022-05-24_10h09.18.002,oddball,2022.1.2,60.000744042831414,
5,,,,,0,0,0,1,5,0,5,0,27,0,27,0,,,,,,,,,,,,,,,,,713.3412124002352,None,714.0416840999387,714.6417756001465,714.625180600211,716.6259532002732,None,1,0.6097434503026307,2.610556850209832,increament,0.6,15,standard,None,100,,,,,,,,f,24,211,fr,l,0,raw,2022-05-24_10h09.18.002,oddball,2022.1.2,60.000744042831414,
5,,,,,0,0,0,1,5,0,5,0,28,0,28,0,,,,,,,,,,,,,,,,,716.6425493001007,None,717.2928277002648,717.8927814001217,717.876206799876,719.8768004998565,None,1,0.6096010501496494,2.6102003501728177,increament,0.6,15,standard,None,100,,,,,,,,f,24,211,fr,l,0,raw,2022-05-24_10h09.18.002,oddball,2022.1.2,60.000744042831414,
5,,,,,0,0,0,1,5,0,5,0,29,0,29,0,,,,,,,,,,,,,,,,,719.8937635002658,None,720.5770828002132,721.177594000008,721.1612949999981,723.1615613000467,None,1,0.6130376500077546,2.613247750326991,increament,0.6,15,standard,None,100,,,,,,,,f,24,211,fr,l,0,raw,2022-05-24_10h09.18.002,oddball,2022.1.2,60.000744042831414,
5,,,,,0,0,0,1,6,0,6,0,0,0,0,0,,,,,,,,,,,,,,,743.4203690998256,None,747.6541321999393,None,748.3381766001694,748.937905699946,748.9215393001214,750.922151400242,None,1,0.6090490501374006,2.6096442504785955,decreament,0.6,11,standard,None,100,,723.1782704000361,None,,,,,f,24,211,fr,l,0,raw,2022-05-24_10h09.18.002,oddball,2022.1.2,60.000744042831414,
5,,,,,0,0,0,1,6,0,6,0,1,0,1,0,,,,,,,,,,,,,,,,,750.9387520998716,None,751.689267499838,752.2898046001792,752.2728432998993,754.2735192999244,None,1,0.6096207504160702,2.6102692503482103,decreament,0.6,11,standard,None,100,,,,,,,,f,24,211,fr,l,0,raw,2022-05-24_10h09.18.002,oddball,2022.1.2,60.000744042831414,
5,,,,,0,0,0,1,6,0,6,0,2,0,2,0,,,,,,,,,,,,,,,,,754.2901034001261,None,755.023773800116,755.6240958999842,755.6074645002373,757.6078901998699,None,1,0.6109026498161256,2.6112962500192225,decreament,0.6,11,standard,None,100,,,,,,,,f,24,211,fr,l,0,raw,2022-05-24_10h09.18.002,oddball,2022.1.2,60.000744042831414,
5,,,,,0,0,0,1,6,0,6,0,3,0,3,0,,,,,,,,,,,,,,,,,757.6248408001848,None,758.2916143001057,758.8919247002341,758.8750491002575,760.8764116000384,None,1,0.6138390502892435,2.6153250504285097,decreament,0.6,11,standard,None,100,,,,,,,,f,24,211,fr,l,0,raw,2022-05-24_10h09.18.002,oddball,2022.1.2,60.000744042831414,
5,,,,,0,0,0,1,6,0,6,0,4,0,4,0,,,,,,,,,,,,,,,,,760.8927894998342,None,761.5093971001916,762.1095322002657,762.0931154000573,764.0937899001874,None,1,0.6116166496649384,2.6122731496579945,decreament,0.6,11,standard,None,100,,,,,,,,f,24,211,fr,l,0,raw,2022-05-24_10h09.18.002,oddball,2022.1.2,60.000744042831414,
5,,,,,0,0,0,1,6,0,6,0,5,0,5,0,,,,,,,,,,,,,,,,,764.1103219999932,None,764.7274291999638,765.327503700275,765.3110048002563,767.311525600031,None,1,0.6127740498632193,2.6132943499833345,decreament,0.6,11,standard,None,100,,,,,,,,f,24,211,fr,l,0,raw,2022-05-24_10h09.18.002,oddball,2022.1.2,60.000744042831414,
5,,,,,0,0,0,1,6,0,6,0,6,0,6,0,,,,,,,,,,,,,,,,,767.3283199002035,None,767.9952080999501,768.5958425002173,768.5791873000562,770.5793167999946,None,1,0.612638350110501,2.6127023501321673,decreament,0.6,11,standard,None,100,,,,,,,,f,24,211,fr,l,0,raw,2022-05-24_10h09.18.002,oddball,2022.1.2,60.000744042831414,
5,,,,,0,0,0,1,6,0,6,0,7,0,7,0,,,,,,,,,,,,,,,,,770.5960168000311,None,771.1967058000155,771.7970201000571,771.7800811999477,773.7808727999218,None,1,0.6114733498543501,2.612233849707991,decreament,0.6,11,standard,None,100,,,,,,,,f,24,211,fr,l,0,raw,2022-05-24_10h09.18.002,oddball,2022.1.2,60.000744042831414,
5,,,,,0,0,0,1,6,0,6,0,8,0,8,0,,,,,,,,,,,,,,,,,773.7975289002061,None,774.3975571002811,774.9978514001705,774.9810313000344,776.9817603002302,None,1,0.6126957503147423,2.6134756500832736,decreament,0.6,11,standard,None,100,,,,,,,,f,24,211,fr,l,0,raw,2022-05-24_10h09.18.002,oddball,2022.1.2,60.000744042831414,
5,,,,,0,0,0,1,6,0,6,0,9,0,9,0,,,,,,,,,,,,,,,,,776.9989444999956,None,777.5655153999105,778.1657688999549,778.1490692999214,780.1499061002396,None,1,0.612141149584204,2.6129684494808316,decreament,0.6,11,standard,None,100,,,,,,,,f,24,211,fr,l,0,raw,2022-05-24_10h09.18.002,oddball,2022.1.2,60.000744042831414,
5,,,,,0,0,0,1,6,0,6,0,10,0,10,0,,,,,,,,,,,,,,,,,780.1667245002463,None,780.7829533000477,781.3840485000983,781.3670676001348,783.3676777002402,None,1,0.6153220501728356,2.6159450500272214,decreament,0.6,11,standard,None,100,,,,,,,,f,24,211,fr,l,0,raw,2022-05-24_10h09.18.002,oddball,2022.1.2,60.000744042831414,
5,,,,,0,0,0,1,6,0,6,0,11,0,11,0,,,,,,,,,,,,,,,,,783.3843964999542,None,783.9345088000409,784.3011801000684,784.2678534002043,786.2686323998496,j,1,0.3612318495288491,2.3620267496444285,decreament,0.36,13,oddball,j,60,0.6113231000490487,,,,,,,f,24,211,fr,l,0,raw,2022-05-24_10h09.18.002,oddball,2022.1.2,60.000744042831414,
5,,,,,0,0,0,1,6,0,6,0,12,0,12,0,,,,,,,,,,,,,,,,,786.2854491001926,None,786.9189567998983,787.5193398999982,787.5027761999518,789.5036956002004,None,1,0.6108338502235711,2.6118509504012764,decreament,0.6,11,standard,None,100,,,,,,,,f,24,211,fr,l,0,raw,2022-05-24_10h09.18.002,oddball,2022.1.2,60.000744042831414,
5,,,,,0,0,0,1,6,0,6,0,13,0,13,0,,,,,,,,,,,,,,,,,789.5214011999778,None,790.0873203002848,790.6877468000166,790.670911599882,792.6707774000242,None,1,0.6102043497376144,2.60992725007236,decreament,0.6,11,standard,None,100,,,,,,,,f,24,211,fr,l,0,raw,2022-05-24_10h09.18.002,oddball,2022.1.2,60.000744042831414,
5,,,,,0,0,0,1,6,0,6,0,14,0,14,0,,,,,,,,,,,,,,,,,792.6874162000604,None,793.3546246001497,793.9549942002632,793.9383404999971,795.9390687998384,None,1,0.6133691500872374,2.614095250144601,decreament,0.6,11,standard,None,100,,,,,,,,f,24,211,fr,l,0,raw,2022-05-24_10h09.18.002,oddball,2022.1.2,60.000744042831414,
5,,,,,0,0,0,1,6,0,6,0,15,0,15,0,,,,,,,,,,,,,,,,,795.9557274002582,None,796.5892133000307,797.1899566999637,797.1731155999005,799.1737990002148,None,1,0.6136886505410075,2.6143392506055534,decreament,0.6,11,standard,None,100,,,,,,,,f,24,211,fr,l,0,raw,2022-05-24_10h09.18.002,oddball,2022.1.2,60.000744042831414,
5,,,,,0,0,0,1,6,0,6,0,16,0,16,0,,,,,,,,,,,,,,,,,799.1902510998771,None,799.790434199851,800.391038400121,800.3741525001824,802.3746444000863,None,1,0.6142692500725389,2.6147010498680174,decreament,0.6,11,standard,None,100,,,,,,,,f,24,211,fr,l,0,raw,2022-05-24_10h09.18.002,oddball,2022.1.2,60.000744042831414,
5,,,,,0,0,0,1,6,0,6,0,17,0,17,0,,,,,,,,,,,,,,,,,802.3913835999556,None,803.1254996000789,803.3757688002661,803.3417182001285,805.3428051001392,j,1,0.24183494970202446,2.242975849658251,decreament,0.24,12,oddball,j,40,0.8249518000520766,,,,,,,f,24,211,fr,l,0,raw,2022-05-24_10h09.18.002,oddball,2022.1.2,60.000744042831414,
5,,,,,0,0,0,1,6,0,6,0,18,0,18,0,,,,,,,,,,,,,,,,,805.3592726001516,None,806.0096316998824,806.6099729002453,806.593151200097,808.5938960001804,None,1,0.6114626503549516,2.612160850316286,decreament,0.6,11,standard,None,100,,,,,,,,f,24,211,fr,l,0,raw,2022-05-24_10h09.18.002,oddball,2022.1.2,60.000744042831414,
5,,,,,0,0,0,1,6,0,6,0,19,0,19,0,,,,,,,,,,,,,,,,,808.6104880999774,None,809.2273455001414,809.8274179999717,809.8112865001895,811.8119827001356,None,1,0.6142648500390351,2.615037249866873,decreament,0.6,11,standard,None,100,,,,,,,,f,24,211,fr,l,0,raw,2022-05-24_10h09.18.002,oddball,2022.1.2,60.000744042831414,
5,,,,,0,0,0,1,6,0,6,0,20,0,20,0,,,,,,,,,,,,,,,,,811.8286836999469,None,812.4284597998485,813.0287836999632,813.0125432000495,815.0127980001271,None,1,0.6132038496434689,2.6134500498883426,decreament,0.6,11,standard,None,100,,,,,,,,f,24,211,fr,l,0,raw,2022-05-24_10h09.18.002,oddball,2022.1.2,60.000744042831414,
5,,,,,0,0,0,1,6,0,6,0,21,0,21,0,,,,,,,,,,,,,,,,,815.0295931999572,None,815.6797115998343,816.2799613000825,816.2632714998908,818.2643905002624,None,1,0.613875349983573,2.615081049967557,decreament,0.6,11,standard,None,100,,,,,,,,f,24,211,fr,l,0,raw,2022-05-24_10h09.18.002,oddball,2022.1.2,60.000744042831414,
5,,,,,0,0,0,1,6,0,6,0,22,0,22,0,,,,,,,,,,,,,,,,,818.2808691998944,None,818.9976361999288,819.5978625998832,819.5814728001133,821.5819870000705,None,1,0.6130223497748375,2.6135207498446107,decreament,0.6,11,standard,None,100,,,,,,,,f,24,211,fr,l,0,raw,2022-05-24_10h09.18.002,oddball,2022.1.2,60.000744042831414,
5,,,,,0,0,0,1,6,0,6,0,23,0,23,0,,,,,,,,,,,,,,,,,821.5986504000612,None,822.2158244000748,822.815991200041,822.799409000203,824.8001831001602,None,1,0.61310954997316,2.613854850176722,decreament,0.6,11,standard,None,100,,,,,,,,f,24,211,fr,l,0,raw,2022-05-24_10h09.18.002,oddball,2022.1.2,60.000744042831414,
5,,,,,0,0,0,1,6,0,6,0,24,0,24,0,,,,,,,,,,,,,,,,,824.8170198001899,None,825.4337762999348,826.0336557999253,826.017148300074,828.0177446999587,None,1,0.6123658497817814,2.6129363500513136,decreament,0.6,11,standard,None,100,,,,,,,,f,24,211,fr,l,0,raw,2022-05-24_10h09.18.002,oddball,2022.1.2,60.000744042831414,
5,,,,,0,0,0,1,6,0,6,0,25,0,25,0,,,,,,,,,,,,,,,,,828.0347541999072,None,828.6182242999785,829.2182559999637,829.2020204998553,831.2024459000677,None,1,0.611521250102669,2.6119564501568675,decreament,0.6,11,standard,None,100,,,,,,,,f,24,211,fr,l,0,raw,2022-05-24_10h09.18.002,oddball,2022.1.2,60.000744042831414,
5,,,,,0,0,0,1,6,0,6,0,26,0,26,0,,,,,,,,,,,,,,,,,831.2194475000724,None,831.9526088000275,832.5529654999264,832.5361624001525,834.5371766001917,None,1,0.612793150357902,2.613890750333667,decreament,0.6,11,standard,None,100,,,,,,,,f,24,211,fr,l,0,raw,2022-05-24_10h09.18.002,oddball,2022.1.2,60.000744042831414,
5,,,,,0,0,0,1,6,0,6,0,27,0,27,0,,,,,,,,,,,,,,,,,834.5537920002826,None,835.153914200142,835.6373295001686,835.6041585002095,837.604677699972,None,0,0.49543455010280013,2.4960832498036325,decreament,0.48,14,oddball,j,80,,,,,,,,f,24,211,fr,l,0,raw,2022-05-24_10h09.18.002,oddball,2022.1.2,60.000744042831414,
5,,,,,0,0,0,1,6,0,6,0,28,0,28,0,,,,,,,,,,,,,,,,,837.6383183002472,None,838.388799900189,838.9886333998293,838.9723768001422,840.9726722999476,None,1,0.6131801502779126,2.6134055498987436,decreament,0.6,11,standard,None,100,,,,,,,,f,24,211,fr,l,0,raw,2022-05-24_10h09.18.002,oddball,2022.1.2,60.000744042831414,
5,,,,,0,0,0,1,6,0,6,0,29,0,29,0,,,,,,,,,,,,,,,,,840.9892442002892,None,841.5397399002686,842.1400301000103,842.1236316002905,844.1242475002073,None,1,0.6131497495807707,2.6137306494638324,decreament,0.6,11,standard,None,100,,,,,,,,f,24,211,fr,l,0,raw,2022-05-24_10h09.18.002,oddball,2022.1.2,60.000744042831414,
5,,,,,0,0,0,1,7,0,7,0,0,0,0,0,,,,,,,,,,,,,,,856.4730920000002,None,858.7796757002361,None,859.3799212002195,859.9801245001145,859.9634215999395,861.9641229999252,None,1,0.6118574496358633,2.6126049496233463,increament,0.6,15,standard,None,100,,844.1409477000125,None,,,,,f,24,211,fr,l,0,raw,2022-05-24_10h09.18.002,oddball,2022.1.2,60.000744042831414,
5,,,,,0,0,0,1,7,0,7,0,1,0,1,0,,,,,,,,,,,,,,,,,861.9814563002437,None,862.5309299998917,863.1311892000958,863.11465090001,865.1154771000147,None,1,0.6118419500999153,2.6127268499694765,increament,0.6,15,standard,None,100,,,,,,,,f,24,211,fr,l,0,raw,2022-05-24_10h09.18.002,oddball,2022.1.2,60.000744042831414,
5,,,,,0,0,0,1,7,0,7,0,2,0,2,0,,,,,,,,,,,,,,,,,865.1321502998471,None,865.7991980998777,866.3992194002494,866.3823438999243,868.383468999993,None,1,0.6111928503960371,2.6123981503769755,increament,0.6,15,standard,None,100,,,,,,,,f,24,211,fr,l,0,raw,2022-05-24_10h09.18.002,oddball,2022.1.2,60.000744042831414,
5,,,,,0,0,0,1,7,0,7,0,3,0,3,0,,,,,,,,,,,,,,,,,868.3998604998924,None,869.0502142002806,869.650646599941,869.6335847000591,871.6349626998417,None,1,0.6121936496347189,2.6136579499579966,increament,0.6,15,standard,None,100,,,,,,,,f,24,211,fr,l,0,raw,2022-05-24_10h09.18.002,oddball,2022.1.2,60.000744042831414,
5,,,,,0,0,0,1,7,0,7,0,4,0,4,0,,,,,,,,,,,,,,,,,871.6512875002809,None,872.2348235999234,872.8348663998768,872.8187175998464,874.8189882002771,None,1,0.611697350628674,2.611921750474721,increament,0.6,15,standard,None,100,,,,,,,,f,24,211,fr,l,0,raw,2022-05-24_10h09.18.002,oddball,2022.1.2,60.000744042831414,
5,,,,,0,0,0,1,7,0,7,0,5,0,5,0,,,,,,,,,,,,,,,,,874.835658499971,None,875.5861531002447,876.1864260998555,876.1696624001488,878.1702008000575,None,1,0.6117654498666525,2.612284650094807,increament,0.6,15,standard,None,100,,,,,,,,f,24,211,fr,l,0,raw,2022-05-24_10h09.18.002,oddball,2022.1.2,60.000744042831414,
5,,,,,0,0,0,1,7,0,7,0,6,0,6,0,,,,,,,,,,,,,,,,,878.1870732000098,None,878.7539762998931,879.3539220001549,879.3372967001051,881.3383873999119,None,1,0.6131734503433108,2.6142979501746595,increament,0.6,15,standard,None,100,,,,,,,,f,24,211,fr,l,0,raw,2022-05-24_10h09.18.002,oddball,2022.1.2,60.000744042831414,
5,,,,,0,0,0,1,7,0,7,0,7,0,7,0,,,,,,,,,,,,,,,,,881.3549028001726,None,882.0883745001629,882.6887668999843,882.6722249002196,884.6726824999787,None,1,0.6139211496338248,2.6142919496633112,increament,0.6,15,standard,None,100,,,,,,,,f,24,211,fr,l,0,raw,2022-05-24_10h09.18.002,oddball,2022.1.2,60.000744042831414,
5,,,,,0,0,0,1,7,0,7,0,8,0,8,0,,,,,,,,,,,,,,,,,884.6894125998951,None,885.3729113000445,885.9733501998708,885.9568246002309,887.9570820000954,None,1,0.6134709501639009,2.61366715002805,increament,0.6,15,standard,None,100,,,,,,,,f,24,211,fr,l,0,raw,2022-05-24_10h09.18.002,oddball,2022.1.2,60.000744042831414,
5,,,,,0,0,0,1,7,0,7,0,9,0,9,0,,,,,,,,,,,,,,,,,887.9738290999085,None,888.5741357998922,889.1743037998676,889.1577337002382,891.1583762001246,None,1,0.6133265499956906,2.6139569501392543,increament,0.6,15,standard,None,100,,,,,,,,f,24,211,fr,l,0,raw,2022-05-24_10h09.18.002,oddball,2022.1.2,60.000744042831414,
5,,,,,0,0,0,1,7,0,7,0,10,0,10,0,,,,,,,,,,,,,,,,,891.1752758999355,None,891.7426407998428,892.4756406000815,892.4426795002073,894.4430859000422,j,1,0.7284951498731971,2.728860449977219,increament,0.72,16,oddball,j,120,0.5389061998575926,,,,,,,f,24,211,fr,l,0,raw,2022-05-24_10h09.18.002,oddball,2022.1.2,60.000744042831414,
5,,,,,0,0,0,1,7,0,7,0,11,0,11,0,,,,,,,,,,,,,,,,,894.4596620998345,None,895.2604795000516,895.8602570001967,895.8436302999035,897.8447026000358,None,1,0.611663150601089,2.612812850624323,increament,0.6,15,standard,None,100,,,,,,,,f,24,211,fr,l,0,raw,2022-05-24_10h09.18.002,oddball,2022.1.2,60.000744042831414,
5,,,,,0,0,0,1,7,0,7,0,12,0,12,0,,,,,,,,,,,,,,,,,897.8618411999196,None,898.3776722000912,898.9781546001323,898.9614447001368,900.9621760998853,None,1,0.613586850464344,2.614312750287354,increament,0.6,15,standard,None,100,,,,,,,,f,24,211,fr,l,0,raw,2022-05-24_10h09.18.002,oddball,2022.1.2,60.000744042831414,
5,,,,,0,0,0,1,7,0,7,0,13,0,13,0,,,,,,,,,,,,,,,,,900.9791807001457,None,901.5958568998612,902.1959350998513,902.1793113001622,904.1800842001103,None,1,0.61206025024876,2.6128758499398828,increament,0.6,15,standard,None,100,,,,,,,,f,24,211,fr,l,0,raw,2022-05-24_10h09.18.002,oddball,2022.1.2,60.000744042831414,
5,,,,,0,0,0,1,7,0,7,0,14,0,14,0,,,,,,,,,,,,,,,,,904.1968772001565,None,904.9801615001634,905.9473020001315,905.9147570002824,907.9147712001577,None,0,0.9639771501533687,2.963948250282556,increament,0.96,18,oddball,j,160,,,,,,,,f,24,211,fr,l,0,raw,2022-05-24_10h09.18.002,oddball,2022.1.2,60.000744042831414,
5,,,,,0,0,0,1,7,0,7,0,15,0,15,0,,,,,,,,,,,,,,,,,907.9314132002182,None,908.581713499967,909.1818702002056,909.1651066001505,911.1660914001986,None,1,0.6128602498210967,2.613899849820882,increament,0.6,15,standard,None,100,,,,,,,,f,24,211,fr,l,0,raw,2022-05-24_10h09.18.002,oddball,2022.1.2,60.000744042831414,
5,,,,,0,0,0,1,7,0,7,0,16,0,16,0,,,,,,,,,,,,,,,,,911.1829015002586,None,912.0168035002425,912.6166387000121,912.6000637002289,914.6007598000579,None,1,0.6107821497134864,2.6115725496783853,increament,0.6,15,standard,None,100,,,,,,,,f,24,211,fr,l,0,raw,2022-05-24_10h09.18.002,oddball,2022.1.2,60.000744042831414,
5,,,,,0,0,0,1,7,0,7,0,17,0,17,0,,,,,,,,,,,,,,,,,914.6178365000524,None,915.351307600271,915.9514803001657,915.934586300049,917.9350870000198,None,1,0.6113702501170337,2.6117262500338256,increament,0.6,15,standard,None,100,,,,,,,,f,24,211,fr,l,0,raw,2022-05-24_10h09.18.002,oddball,2022.1.2,60.000744042831414,
5,,,,,0,0,0,1,7,0,7,0,18,0,18,0,,,,,,,,,,,,,,,,,917.9517747000791,None,918.6189497001469,919.2190896002576,919.2025303002447,921.2029917002656,None,1,0.6111600501462817,2.611613850109279,increament,0.6,15,standard,None,100,,,,,,,,f,24,211,fr,l,0,raw,2022-05-24_10h09.18.002,oddball,2022.1.2,60.000744042831414,
5,,,,,0,0,0,1,7,0,7,0,19,0,19,0,,,,,,,,,,,,,,,,,921.2200549002737,None,921.8203726001084,922.4202312999405,922.4037362001836,924.4042370002717,None,1,0.6112740500830114,2.6117554497905076,increament,0.6,15,standard,None,100,,,,,,,,f,24,211,fr,l,0,raw,2022-05-24_10h09.18.002,oddball,2022.1.2,60.000744042831414,
5,,,,,0,0,0,1,7,0,7,0,20,0,20,0,,,,,,,,,,,,,,,,,924.420938000083,None,925.0712811001576,925.6715763001703,925.6549443998374,927.6555776000023,None,1,0.612437850330025,2.613056750036776,increament,0.6,15,standard,None,100,,,,,,,,f,24,211,fr,l,0,raw,2022-05-24_10h09.18.002,oddball,2022.1.2,60.000744042831414,
5,,,,,0,0,0,1,7,0,7,0,21,0,21,0,,,,,,,,,,,,,,,,,927.6722447001375,None,928.3562762001529,928.9566703001037,928.9396882001311,930.9401827002876,None,1,0.6121350503526628,2.6125449500977993,increament,0.6,15,standard,None,100,,,,,,,,f,24,211,fr,l,0,raw,2022-05-24_10h09.18.002,oddball,2022.1.2,60.000744042831414,
5,,,,,0,0,0,1,7,0,7,0,22,0,22,0,,,,,,,,,,,,,,,,,930.9568237001076,None,931.707089100033,932.3074989002198,932.2912721000612,934.2914892002009,None,1,0.6146095502190292,2.614749050233513,increament,0.6,15,standard,None,100,,,,,,,,f,24,211,fr,l,0,raw,2022-05-24_10h09.18.002,oddball,2022.1.2,60.000744042831414,
5,,,,,0,0,0,1,7,0,7,0,23,0,23,0,,,,,,,,,,,,,,,,,934.3082357998937,None,935.0417218999937,935.6422211001627,935.625393900089,937.625778700225,None,1,0.6130702495574951,2.6134248496964574,increament,0.6,15,standard,None,100,,,,,,,,f,24,211,fr,l,0,raw,2022-05-24_10h09.18.002,oddball,2022.1.2,60.000744042831414,
5,,,,,0,0,0,1,7,0,7,0,24,0,24,0,,,,,,,,,,,,,,,,,937.6427023001015,None,938.343028199859,938.9435284999199,938.9268664000556,940.9274678998627,None,1,0.6131026498042047,2.6136734494939446,increament,0.6,15,standard,None,100,,,,,,,,f,24,211,fr,l,0,raw,2022-05-24_10h09.18.002,oddball,2022.1.2,60.000744042831414,
5,,,,,0,0,0,1,7,0,7,0,25,0,25,0,,,,,,,,,,,,,,,,,940.9443267998286,None,941.5113285998814,942.111155600287,942.094346600119,944.0957173001952,None,1,0.6119276499375701,2.6133978497236967,increament,0.6,15,standard,None,100,,,,,,,,f,24,211,fr,l,0,raw,2022-05-24_10h09.18.002,oddball,2022.1.2,60.000744042831414,
5,,,,,0,0,0,1,7,0,7,0,26,0,26,0,,,,,,,,,,,,,,,,,944.1130308001302,None,944.8127494002692,945.4124568998814,945.3956146002747,947.3967670002021,None,1,0.6098265498876572,2.611010250169784,increament,0.6,15,standard,None,100,,,,,,,,f,24,211,fr,l,0,raw,2022-05-24_10h09.18.002,oddball,2022.1.2,60.000744042831414,
5,,,,,0,0,0,1,7,0,7,0,27,0,27,0,,,,,,,,,,,,,,,,,947.4132762998343,None,948.1134871002287,948.9636802002788,948.9304118002765,950.9312845999375,None,0,0.8459465494379401,2.8468068493530154,increament,0.84,17,oddball,j,140,,,,,,,,f,24,211,fr,l,0,raw,2022-05-24_10h09.18.002,oddball,2022.1.2,60.000744042831414,
5,,,,,0,0,0,1,7,0,7,0,28,0,28,0,,,,,,,,,,,,,,,,,950.9478584001772,None,951.7818193999119,952.381750700064,952.3649907000363,954.365789399948,None,1,0.6117843496613204,2.61257584951818,increament,0.6,15,standard,None,100,,,,,,,,f,24,211,fr,l,0,raw,2022-05-24_10h09.18.002,oddball,2022.1.2,60.000744042831414,
5,,,,,0,0,0,1,7,0,7,0,29,0,29,0,,,,,,,,,,,,,,,,,954.3824753998779,None,955.0161321000196,955.6164393001236,955.5995491999201,957.6007711002603,j,0,0.6113087497651577,2.6126126497983932,increament,0.6,15,standard,None,100,0.9024575003422797,,,,,,,f,24,211,fr,l,0,raw,2022-05-24_10h09.18.002,oddball,2022.1.2,60.000744042831414,
5,,,,,0,0,0,1,8,0,8,0,0,0,0,0,,,,,,,,,,,,,,,971.1122762998566,None,986.4611633000895,None,987.1615540999919,987.7617561002262,987.7450308999978,989.7458251002245,None,1,0.6109732496552169,2.6118005495518446,decreament,0.6,11,standard,None,100,,957.6211540000513,None,,,,,f,24,211,fr,l,0,raw,2022-05-24_10h09.18.002,oddball,2022.1.2,60.000744042831414,
5,,,,,0,0,0,1,8,0,8,0,1,0,1,0,,,,,,,,,,,,,,,,,989.7624524002895,None,990.5629736999981,991.1632218998857,991.1463393000886,993.1472109998576,None,1,0.6113417502492666,2.6122133499011397,decreament,0.6,11,standard,None,100,,,,,,,,f,24,211,fr,l,0,raw,2022-05-24_10h09.18.002,oddball,2022.1.2,60.000744042831414,
5,,,,,0,0,0,1,8,0,8,0,2,0,2,0,,,,,,,,,,,,,,,,,993.1638949001208,None,993.7139023002237,994.3145024999976,994.2976235002279,996.2982713002712,None,1,0.6140840500593185,2.614654349628836,decreament,0.6,11,standard,None,100,,,,,,,,f,24,211,fr,l,0,raw,2022-05-24_10h09.18.002,oddball,2022.1.2,60.000744042831414,
5,,,,,0,0,0,1,8,0,8,0,3,0,3,0,,,,,,,,,,,,,,,,,996.3148810998537,None,996.8821717002429,997.4821827998385,997.4653775999323,999.4661651998758,None,1,0.6088166497647762,2.609592749737203,decreament,0.6,11,standard,None,100,,,,,,,,f,24,211,fr,l,0,raw,2022-05-24_10h09.18.002,oddball,2022.1.2,60.000744042831414,
5,,,,,0,0,0,1,8,0,8,0,4,0,4,0,,,,,,,,,,,,,,,,,999.4828198999166,None,1000.0830474002287,1000.6834836001508,1000.6671295999549,1002.6673143999651,None,1,0.6096368497237563,2.609741849824786,decreament,0.6,11,standard,None,100,,,,,,,,f,24,211,fr,l,0,raw,2022-05-24_10h09.18.002,oddball,2022.1.2,60.000744042831414,
5,,,,,0,0,0,1,8,0,8,0,5,0,5,0,,,,,,,,,,,,,,,,,1002.6838723998517,None,1003.4841652000323,1004.0845507001504,1004.0688583999872,1006.0687869000249,None,1,0.6153532499447465,2.6151940496638417,decreament,0.6,11,standard,None,100,,,,,,,,f,24,211,fr,l,0,raw,2022-05-24_10h09.18.002,oddball,2022.1.2,60.000744042831414,
5,,,,,0,0,0,1,8,0,8,0,6,0,6,0,,,,,,,,,,,,,,,,,1006.0855244002305,None,1006.7525110999122,1007.3524537999183,1007.3356583002023,1009.3364548999816,None,1,0.6104066497646272,2.6112214499153197,decreament,0.6,11,standard,None,100,,,,,,,,f,24,211,fr,l,0,raw,2022-05-24_10h09.18.002,oddball,2022.1.2,60.000744042831414,
5,,,,,0,0,0,1,8,0,8,0,7,0,7,0,,,,,,,,,,,,,,,,,1009.353223499842,None,1010.0536107001826,1010.6537346001714,1010.6372068999335,1012.6379793998785,None,1,0.6123717497102916,2.6131801498122513,decreament,0.6,11,standard,None,100,,,,,,,,f,24,211,fr,l,0,raw,2022-05-24_10h09.18.002,oddball,2022.1.2,60.000744042831414,
5,,,,,0,0,0,1,8,0,8,0,8,0,8,0,,,,,,,,,,,,,,,,,1012.6545977001078,None,1013.2882153000683,1013.8881536000408,1013.8716966002248,1015.8723865002394,None,1,0.6091729500330985,2.6098951501771808,decreament,0.6,11,standard,None,100,,,,,,,,f,24,211,fr,l,0,raw,2022-05-24_10h09.18.002,oddball,2022.1.2,60.000744042831414,
5,,,,,0,0,0,1,8,0,8,0,9,0,9,0,,,,,,,,,,,,,,,,,1015.8892010999843,None,1016.47252940014,1016.9566696998663,1016.9234148999676,1018.923448999878,None,0,0.4800234497524798,2.4799658497795463,decreament,0.48,14,oddball,j,80,,,,,,,,f,24,211,fr,l,0,raw,2022-05-24_10h09.18.002,oddball,2022.1.2,60.000744042831414,
5,,,,,0,0,0,1,8,0,8,0,10,0,10,0,,,,,,,,,,,,,,,,,1018.9402264999226,None,1019.5737737002783,1020.1744889998809,1020.1577647998929,1022.1580436001532,None,1,0.612099249381572,2.6122539495117962,decreament,0.6,11,standard,None,100,,,,,,,,f,24,211,fr,l,0,raw,2022-05-24_10h09.18.002,oddball,2022.1.2,60.000744042831414,
5,,,,,0,0,0,1,8,0,8,0,11,0,11,0,,,,,,,,,,,,,,,,,1022.1748028998263,None,1022.7749355002306,1023.3750705998391,1023.358892200049,1025.3594112000428,None,1,0.6125651495531201,2.6131007499061525,decreament,0.6,11,standard,None,100,,,,,,,,f,24,211,fr,l,0,raw,2022-05-24_10h09.18.002,oddball,2022.1.2,60.000744042831414,
5,,,,,0,0,0,1,8,0,8,0,12,0,12,0,,,,,,,,,,,,,,,,,1025.376108000055,None,1026.0762947001494,1026.6769920000806,1026.66018659994,1028.6603796002455,None,1,0.6137829502113163,2.613907849881798,decreament,0.6,11,standard,None,100,,,,,,,,f,24,211,fr,l,0,raw,2022-05-24_10h09.18.002,oddball,2022.1.2,60.000744042831414,
5,,,,,0,0,0,1,8,0,8,0,13,0,13,0,,,,,,,,,,,,,,,,,1028.6771856001578,None,1029.4439234999008,1030.0444869999774,1030.0280494000763,1032.0289099998772,None,1,0.613858450204134,2.614827749785036,decreament,0.6,11,standard,None,100,,,,,,,,f,24,211,fr,l,0,raw,2022-05-24_10h09.18.002,oddball,2022.1.2,60.000744042831414,
5,,,,,0,0,0,1,8,0,8,0,14,0,14,0,,,,,,,,,,,,,,,,,1032.0452087000012,None,1032.7122281002812,1033.312574500218,1033.2961240001023,1035.2966057001613,j,0,0.6109780501574278,2.6114657502621412,decreament,0.6,11,standard,None,100,1.0291371997445822,,,,,,,f,24,211,fr,l,0,raw,2022-05-24_10h09.18.002,oddball,2022.1.2,60.000744042831414,
5,,,,,0,0,0,1,8,0,8,0,15,0,15,0,,,,,,,,,,,,,,,,,1035.3135553998873,None,1036.0464774998836,1036.6470572999679,1036.630111400038,1038.6311436002143,None,1,0.6100417501293123,2.6111537497490644,decreament,0.6,11,standard,None,100,,,,,,,,f,24,211,fr,l,0,raw,2022-05-24_10h09.18.002,oddball,2022.1.2,60.000744042831414,
5,,,,,0,0,0,1,8,0,8,0,16,0,16,0,,,,,,,,,,,,,,,,,1038.6475602001883,None,1039.2812355998904,1039.8817318999209,1039.8647141000256,1041.8654999001883,j,0,0.6121293497271836,2.6129203499294817,decreament,0.6,11,standard,None,100,0.9561093999072909,,,,,,,f,24,211,fr,l,0,raw,2022-05-24_10h09.18.002,oddball,2022.1.2,60.000744042831414,
5,,,,,0,0,0,1,8,0,8,0,17,0,17,0,,,,,,,,,,,,,,,,,1041.8824873999692,None,1042.5326650999486,1043.1328079001978,1043.1160026001744,1045.1167377000675,None,1,0.6104543502442539,2.611149650067091,decreament,0.6,11,standard,None,100,,,,,,,,f,24,211,fr,l,0,raw,2022-05-24_10h09.18.002,oddball,2022.1.2,60.000744042831414,
5,,,,,0,0,0,1,8,0,8,0,18,0,18,0,,,,,,,,,,,,,,,,,1045.1337806000374,None,1045.9338952000253,1046.5337951001711,1046.5172431999817,1048.5182213000953,None,1,0.6115384502336383,2.6125322501175106,decreament,0.6,11,standard,None,100,,,,,,,,f,24,211,fr,l,0,raw,2022-05-24_10h09.18.002,oddball,2022.1.2,60.000744042831414,
5,,,,,0,0,0,1,8,0,8,0,19,0,19,0,,,,,,,,,,,,,,,,,1048.534655299969,None,1049.1846143002622,1049.784974299837,1049.768540199846,None,None,1,0.5990333501249552,2.5997451501898468,decreament,0.6,11,standard,None,100,,,,,,,,f,24,211,fr,l,0,raw,2022-05-24_10h09.18.002,oddball,2022.1.2,60.000744042831414,
5,,,,,0,0,0,1,8,0,8,0,20,0,20,0,,,,,,,,,,,,,,,,,1051.7693083998747,None,1052.3862608000636,1052.986879600212,1052.969743099995,1054.9703458999284,None,1,0.6121618500910699,2.612720050383359,decreament,0.6,11,standard,None,100,,,,,,,,f,24,211,fr,l,0,raw,2022-05-24_10h09.18.002,oddball,2022.1.2,60.000744042831414,
5,,,,,0,0,0,1,8,0,8,0,21,0,21,0,,,,,,,,,,,,,,,,,1054.987056999933,None,1055.5874948999844,1055.8374391999096,1055.8047020998783,1057.8046150002629,None,0,0.2473424500785768,2.247153750155121,decreament,0.24,12,oddball,j,40,,,,,,,,f,24,211,fr,l,0,raw,2022-05-24_10h09.18.002,oddball,2022.1.2,60.000744042831414,
5,,,,,0,0,0,1,8,0,8,0,22,0,22,0,,,,,,,,,,,,,,,,,1057.8212935999036,None,1058.3719345000573,1058.9721504999325,1058.955438300036,1060.9563235999085,None,1,0.6123424498364329,2.6132880500517786,decreament,0.6,11,standard,None,100,,,,,,,,f,24,211,fr,l,0,raw,2022-05-24_10h09.18.002,oddball,2022.1.2,60.000744042831414,
5,,,,,0,0,0,1,8,0,8,0,23,0,23,0,,,,,,,,,,,,,,,,,1060.9732448002324,None,1061.5564915002324,1062.1569288000464,1062.1403203001246,1064.140901400242,None,1,0.6131455502472818,2.613678450230509,decreament,0.6,11,standard,None,100,,,,,,,,f,24,211,fr,l,0,raw,2022-05-24_10h09.18.002,oddball,2022.1.2,60.000744042831414,
5,,,,,0,0,0,1,8,0,8,0,24,0,24,0,,,,,,,,,,,,,,,,,1064.1573743000627,None,1064.6747604999691,1065.2741622002795,1065.2576839998364,1067.258768999949,None,1,0.609653549734503,2.6108399499207735,decreament,0.6,11,standard,None,100,,,,,,,,f,24,211,fr,l,0,raw,2022-05-24_10h09.18.002,oddball,2022.1.2,60.000744042831414,
5,,,,,0,0,0,1,8,0,8,0,25,0,25,0,,,,,,,,,,,,,,,,,1067.2751331999898,None,1068.0255944998935,1068.6258315001614,1068.6093576001003,1070.6096359002404,None,1,0.6111769499257207,2.611300750169903,decreament,0.6,11,standard,None,100,,,,,,,,f,24,211,fr,l,0,raw,2022-05-24_10h09.18.002,oddball,2022.1.2,60.000744042831414,
5,,,,,0,0,0,1,8,0,8,0,26,0,26,0,,,,,,,,,,,,,,,,,1070.6264018001966,None,1071.3604008001275,1071.9601274998859,1071.9436282999814,1073.9444455001503,None,1,0.6083098500967026,2.6091719497926533,decreament,0.6,11,standard,None,100,,,,,,,,f,24,211,fr,l,0,raw,2022-05-24_10h09.18.002,oddball,2022.1.2,60.000744042831414,
5,,,,,0,0,0,1,8,0,8,0,27,0,27,0,,,,,,,,,,,,,,,,,1073.9614388998598,None,1074.6117707001977,1075.211300500203,1075.1949594998732,1077.19577210024,None,1,0.6091462504118681,2.610025950241834,decreament,0.6,11,standard,None,100,,,,,,,,f,24,211,fr,l,0,raw,2022-05-24_10h09.18.002,oddball,2022.1.2,60.000744042831414,
5,,,,,0,0,0,1,8,0,8,0,28,0,28,0,,,,,,,,,,,,,,,,,1077.2125888001174,None,1077.8794915000908,1078.479878500104,1078.4629953000695,1080.4634358002804,None,1,0.6125228498131037,2.6128758499398828,decreament,0.6,11,standard,None,100,,,,,,,,f,24,211,fr,l,0,raw,2022-05-24_10h09.18.002,oddball,2022.1.2,60.000744042831414,
5,,,,,0,0,0,1,8,0,8,0,29,0,29,0,,,,,,,,,,,,,,,,,1080.48007280007,None,1081.06385770021,1081.4300673999824,1081.396799299866,1083.3982293000445,j,1,0.35992755042389035,2.361415450461209,decreament,0.36,13,oddball,j,60,0.8403002000413835,,,,,,,f,24,211,fr,l,0,raw,2022-05-24_10h09.18.002,oddball,2022.1.2,60.000744042831414,
5,,,,,0,0,0,1,9,0,9,0,0,0,0,0,,,,,,,,,,,,,,,1103.1967625999823,None,1104.5396393998526,None,1105.1895528002642,1105.7898920001462,1105.7732568001375,1107.773754000198,None,1,0.6132808499969542,2.6137323500588536,increament,0.6,15,standard,None,100,,1083.414892999921,None,,,,,f,24,211,fr,l,0,raw,2022-05-24_10h09.18.002,oddball,2022.1.2,60.000744042831414,
5,,,,,0,0,0,1,9,0,9,0,1,0,1,0,,,,,,,,,,,,,,,,,1107.7905544000678,None,1108.3575396998785,1108.95744859986,1108.941456399858,1110.9424125999212,None,1,0.6147323502227664,2.61568755004555,increament,0.6,15,standard,None,100,,,,,,,,f,24,211,fr,l,0,raw,2022-05-24_10h09.18.002,oddball,2022.1.2,60.000744042831414,
5,,,,,0,0,0,1,9,0,9,0,2,0,2,0,,,,,,,,,,,,,,,,,1110.960474099964,None,1111.6255369000137,1112.225781199988,1112.2088216999546,1114.2096564001404,None,1,0.6105025499127805,2.6113534499891102,increament,0.6,15,standard,None,100,,,,,,,,f,24,211,fr,l,0,raw,2022-05-24_10h09.18.002,oddball,2022.1.2,60.000744042831414,
5,,,,,0,0,0,1,9,0,9,0,3,0,3,0,,,,,,,,,,,,,,,,,1114.2266565999016,None,1114.7598620001227,1115.3599721998908,1115.3435412002727,1117.343808399979,None,1,0.611909749917686,2.6120908497832716,increament,0.6,15,standard,None,100,,,,,,,,f,24,211,fr,l,0,raw,2022-05-24_10h09.18.002,oddball,2022.1.2,60.000744042831414,
5,,,,,0,0,0,1,9,0,9,0,4,0,4,0,,,,,,,,,,,,,,,,,1117.360667299945,None,1118.111207399983,1118.7112775002606,1118.694658299908,1120.6953758001328,None,1,0.612041849642992,2.612760849762708,increament,0.6,15,standard,None,100,,,,,,,,f,24,211,fr,l,0,raw,2022-05-24_10h09.18.002,oddball,2022.1.2,60.000744042831414,
5,,,,,0,0,0,1,9,0,9,0,5,0,5,0,,,,,,,,,,,,,,,,,1120.7119324002415,None,1121.3623623000458,1122.2127827000804,1122.1796507001854,1124.1800203002058,j,1,0.8470634501427412,2.847414049785584,increament,0.84,17,oddball,j,140,0.7451701001264155,,,,,,,f,24,211,fr,l,0,raw,2022-05-24_10h09.18.002,oddball,2022.1.2,60.000744042831414,
5,,,,,0,0,0,1,9,0,9,0,6,0,6,0,,,,,,,,,,,,,,,,,1124.1967424000613,None,1124.8637395999394,1125.4638164001517,1125.44722930016,1127.4480075999163,None,1,0.6127091497182846,2.6135080493986607,increament,0.6,15,standard,None,100,,,,,,,,f,24,211,fr,l,0,raw,2022-05-24_10h09.18.002,oddball,2022.1.2,60.000744042831414,
5,,,,,0,0,0,1,9,0,9,0,7,0,7,0,,,,,,,,,,,,,,,,,1127.4650312000886,None,1128.0649089999497,1128.6653384002857,1128.648418100085,1130.6491021001711,None,1,0.6090518501587212,2.609728650189936,increament,0.6,15,standard,None,100,,,,,,,,f,24,211,fr,l,0,raw,2022-05-24_10h09.18.002,oddball,2022.1.2,60.000744042831414,
5,,,,,0,0,0,1,9,0,9,0,8,0,8,0,,,,,,,,,,,,,,,,,1130.6658223001286,None,1131.2327584000304,1131.8329205000773,1131.8165203002281,1133.8171652001329,None,1,0.6126624499447644,2.6133488500490785,increament,0.6,15,standard,None,100,,,,,,,,f,24,211,fr,l,0,raw,2022-05-24_10h09.18.002,oddball,2022.1.2,60.000744042831414,
5,,,,,0,0,0,1,9,0,9,0,9,0,9,0,,,,,,,,,,,,,,,,,1133.833691299893,None,1134.467655800283,1135.0672829002142,1135.0507982000709,1137.0521129998378,None,1,0.6113150496967137,2.6127374498173594,increament,0.6,15,standard,None,100,,,,,,,,f,24,211,fr,l,0,raw,2022-05-24_10h09.18.002,oddball,2022.1.2,60.000744042831414,
5,,,,,0,0,0,1,9,0,9,0,10,0,10,0,,,,,,,,,,,,,,,,,1137.0685379002243,None,1137.635479700286,1138.2355538001284,1138.2189561999403,1140.21980229998,j,0,0.6128306495957077,2.613704849500209,increament,0.6,15,standard,None,100,1.1469939001835883,,,,,,,f,24,211,fr,l,0,raw,2022-05-24_10h09.18.002,oddball,2022.1.2,60.000744042831414,
5,,,,,0,0,0,1,9,0,9,0,11,0,11,0,,,,,,,,,,,,,,,,,1140.2372715002857,None,1140.8529556002468,1141.8203938002698,1141.7866326002404,1143.7874926002696,j,1,0.9640930499881506,2.9649718501605093,increament,0.96,18,oddball,j,160,0.642170799896121,,,,,,,f,24,211,fr,l,0,raw,2022-05-24_10h09.18.002,oddball,2022.1.2,60.000744042831414,
5,,,,,0,0,0,1,9,0,9,0,12,0,12,0,,,,,,,,,,,,,,,,,1143.8041663998738,None,1144.4045171998441,1145.004760300275,1144.987874600105,1146.9887274000794,None,1,0.6109462501481175,2.6118013500235975,increament,0.6,15,standard,None,100,,,,,,,,f,24,211,fr,l,0,raw,2022-05-24_10h09.18.002,oddball,2022.1.2,60.000744042831414,
5,,,,,0,0,0,1,9,0,9,0,13,0,13,0,,,,,,,,,,,,,,,,,1147.0052537000738,None,1147.5725328000262,1148.1728003001772,1148.1561082000844,1150.1562471999787,None,1,0.6099559497088194,2.6100299498066306,increament,0.6,15,standard,None,100,,,,,,,,f,24,211,fr,l,0,raw,2022-05-24_10h09.18.002,oddball,2022.1.2,60.000744042831414,
5,,,,,0,0,0,1,9,0,9,0,14,0,14,0,,,,,,,,,,,,,,,,,1150.17301160004,None,1150.7236012001522,1151.3243364002556,1151.3071782002226,1153.307597800158,None,1,0.6126837497577071,2.6130702500231564,increament,0.6,15,standard,None,100,,,,,,,,f,24,211,fr,l,0,raw,2022-05-24_10h09.18.002,oddball,2022.1.2,60.000744042831414,
5,,,,,0,0,0,1,9,0,9,0,15,0,15,0,,,,,,,,,,,,,,,,,1153.3245128998533,None,1153.974884300027,1154.5747026000172,1154.5584766999818,1156.5593055002391,None,1,0.6107980497181416,2.6116967499256134,increament,0.6,15,standard,None,100,,,,,,,,f,24,211,fr,l,0,raw,2022-05-24_10h09.18.002,oddball,2022.1.2,60.000744042831414,
5,,,,,0,0,0,1,9,0,9,0,16,0,16,0,,,,,,,,,,,,,,,,,1156.5758958002552,None,1157.3093506000005,1157.9094381001778,1157.893401000183,1159.8934744000435,None,1,0.6138532501645386,2.61384645011276,increament,0.6,15,standard,None,100,,,,,,,,f,24,211,fr,l,0,raw,2022-05-24_10h09.18.002,oddball,2022.1.2,60.000744042831414,
5,,,,,0,0,0,1,9,0,9,0,17,0,17,0,,,,,,,,,,,,,,,,,1159.9107181001455,None,1160.4936873000115,1161.0940089002252,1161.0776086999103,1163.0785043002106,None,1,0.6133711501024663,2.6143298503011465,increament,0.6,15,standard,None,100,,,,,,,,f,24,211,fr,l,0,raw,2022-05-24_10h09.18.002,oddball,2022.1.2,60.000744042831414,
5,,,,,0,0,0,1,9,0,9,0,18,0,18,0,,,,,,,,,,,,,,,,,1163.095118700061,None,1163.8119051000103,1164.4121509999968,1164.3955298000947,1166.3964867000468,None,1,0.6123839500360191,2.6134055498987436,increament,0.6,15,standard,None,100,,,,,,,,f,24,211,fr,l,0,raw,2022-05-24_10h09.18.002,oddball,2022.1.2,60.000744042831414,
5,,,,,0,0,0,1,9,0,9,0,19,0,19,0,,,,,,,,,,,,,,,,,1166.4128390001133,None,1167.2297947001643,1167.8297794000246,1167.8135238001123,1169.814611400012,None,1,0.612896750215441,2.614058350212872,increament,0.6,15,standard,None,100,,,,,,,,f,24,211,fr,l,0,raw,2022-05-24_10h09.18.002,oddball,2022.1.2,60.000744042831414,
5,,,,,0,0,0,1,9,0,9,0,20,0,20,0,,,,,,,,,,,,,,,,,1169.830856999848,None,1170.4141526999883,1171.0143603999168,1170.9978777999058,1172.9984935000539,None,1,0.6137794498354197,2.6143507501110435,increament,0.6,15,standard,None,100,,,,,,,,f,24,211,fr,l,0,raw,2022-05-24_10h09.18.002,oddball,2022.1.2,60.000744042831414,
5,,,,,0,0,0,1,9,0,9,0,21,0,21,0,,,,,,,,,,,,,,,,,1173.0154401999898,None,1173.7324748998508,1174.332930299919,1174.3165541999042,1176.3163425000384,None,1,0.610525350086391,2.6102269496768713,increament,0.6,15,standard,None,100,,,,,,,,f,24,211,fr,l,0,raw,2022-05-24_10h09.18.002,oddball,2022.1.2,60.000744042831414,
5,,,,,0,0,0,1,9,0,9,0,22,0,22,0,,,,,,,,,,,,,,,,,1176.3332207002677,None,1177.0002375999466,1177.6006734999828,1177.5837913001888,1179.5844959001988,None,1,0.6116352500393987,2.6123246499337256,increament,0.6,15,standard,None,100,,,,,,,,f,24,211,fr,l,0,raw,2022-05-24_10h09.18.002,oddball,2022.1.2,60.000744042831414,
5,,,,,0,0,0,1,9,0,9,0,23,0,23,0,,,,,,,,,,,,,,,,,1179.6012138999067,None,1180.2010228000581,1180.801622599829,1180.7854594001547,1182.7856308999471,None,1,0.6145918499678373,2.6147017502225935,increament,0.6,15,standard,None,100,,,,,,,,f,24,211,fr,l,0,raw,2022-05-24_10h09.18.002,oddball,2022.1.2,60.000744042831414,
5,,,,,0,0,0,1,9,0,9,0,24,0,24,0,,,,,,,,,,,,,,,,,1182.8024201998487,None,1183.4363075001165,1184.036060700193,1184.019724200014,1186.020802400075,None,1,0.6086343498900533,2.609794349875301,increament,0.6,15,standard,None,100,,,,,,,,f,24,211,fr,l,0,raw,2022-05-24_10h09.18.002,oddball,2022.1.2,60.000744042831414,
5,,,,,0,0,0,1,9,0,9,0,25,0,25,0,,,,,,,,,,,,,,,,,1186.0384860001504,None,1186.703727700282,1187.3040847000666,1187.2874167002738,1189.2878697002307,None,1,0.6122849499806762,2.612708049826324,increament,0.6,15,standard,None,100,,,,,,,,f,24,211,fr,l,0,raw,2022-05-24_10h09.18.002,oddball,2022.1.2,60.000744042831414,
5,,,,,0,0,0,1,9,0,9,0,26,0,26,0,,,,,,,,,,,,,,,,,1189.3047003000975,None,1189.8720182999969,1190.4717345000245,1190.4552946002223,1192.4559761001728,None,1,0.6093227500095963,2.6100025502964854,increament,0.6,15,standard,None,100,,,,,,,,f,24,211,fr,l,0,raw,2022-05-24_10h09.18.002,oddball,2022.1.2,60.000744042831414,
5,,,,,0,0,0,1,9,0,9,0,27,0,27,0,,,,,,,,,,,,,,,,,1192.4728617998771,None,1193.0892751002684,1193.6899974001572,1193.6731803002767,1195.6736713000573,None,1,0.6129789496771991,2.6134580499492586,increament,0.6,15,standard,None,100,,,,,,,,f,24,211,fr,l,0,raw,2022-05-24_10h09.18.002,oddball,2022.1.2,60.000744042831414,
5,,,,,0,0,0,1,9,0,9,0,28,0,28,0,,,,,,,,,,,,,,,,,1195.6905062999576,None,1196.2244082000107,1196.8241689000279,1196.8078323001973,1198.8082862002775,None,1,0.6095782499760389,2.6099722501821816,increament,0.6,15,standard,None,100,,,,,,,,f,24,211,fr,l,0,raw,2022-05-24_10h09.18.002,oddball,2022.1.2,60.000744042831414,
5,,,,,0,0,0,1,9,0,9,0,29,0,29,0,,,,,,,,,,,,,,,,,1198.825144500006,None,1199.592051899992,1200.3254487002268,1200.2922791000456,1202.292810200248,None,0,0.73019764944911,2.7307041492313147,increament,0.72,16,oddball,j,120,,,,,,,,f,24,211,fr,l,0,raw,2022-05-24_10h09.18.002,oddball,2022.1.2,60.000744042831414,
10,,,,,0,1,1,2,0,0,0,0,0,0,0,0,,,,,,,,,,,,,,,1394.0581685998477,None,1395.2660632999614,None,1395.8328638002276,1396.433157700114,1396.4166045999154,1398.4171918998472,None,1,0.6118485499173403,2.6124488501809537,decreament,0.6,21,standard,None,100,,1382.328152900096,None,1202.3200103999116,None,,,f,24,211,fr,l,0,raw,2022-05-24_10h09.18.002,oddball,2022.1.2,60.000744042831414,
10,,,,,0,1,1,2,0,0,0,0,1,0,1,0,,,,,,,,,,,,,,,,,1398.434164499864,None,1399.1343903001398,1399.7345632999204,1399.7178588001989,1401.7189230001532,None,1,0.6123081501573324,2.6134192501194775,decreament,0.6,21,standard,None,100,,,,,,,,f,24,211,fr,l,0,raw,2022-05-24_10h09.18.002,oddball,2022.1.2,60.000744042831414,
10,,,,,0,1,1,2,0,0,0,0,2,0,2,0,,,,,,,,,,,,,,,,,1401.7350746002048,None,1402.4853640999645,1403.0857831998728,1403.069465199951,1405.069732800126,None,1,0.613604350015521,2.6135908500291407,decreament,0.6,21,standard,None,100,,,,,,,,f,24,211,fr,l,0,raw,2022-05-24_10h09.18.002,oddball,2022.1.2,60.000744042831414,
10,,,,,0,1,1,2,0,0,0,0,3,0,3,0,,,,,,,,,,,,,,,,,1405.0864663999528,None,1405.7702902001329,1406.3702712999657,1406.3535547000356,1408.3544124001637,None,1,0.6116401497274637,2.6124976496212184,decreament,0.6,21,standard,None,100,,,,,,,,f,24,211,fr,l,0,raw,2022-05-24_10h09.18.002,oddball,2022.1.2,60.000744042831414,
10,,,,,0,1,1,2,0,0,0,0,4,0,4,0,,,,,,,,,,,,,,,,,1408.3708566999994,None,1409.1880757999606,1409.7882293001749,1409.771858099848,1411.7724207001738,None,1,0.6119915498420596,2.6126033500768244,decreament,0.6,21,standard,None,100,,,,,,,,f,24,211,fr,l,0,raw,2022-05-24_10h09.18.002,oddball,2022.1.2,60.000744042831414,
10,,,,,0,1,1,2,0,0,0,0,5,0,5,0,,,,,,,,,,,,,,,,,1411.7888556001708,None,1412.3892862000503,1412.989728699904,1412.972792699933,1414.9734543999657,None,1,0.6107475501485169,2.6114011500030756,decreament,0.6,21,standard,None,100,,,,,,,,f,24,211,fr,l,0,raw,2022-05-24_10h09.18.002,oddball,2022.1.2,60.000744042831414,
10,,,,,0,1,1,2,0,0,0,0,6,0,6,0,,,,,,,,,,,,,,,,,1414.990631500259,None,1415.62399320025,1416.2238568998873,1416.2072617001832,1418.2078173998743,None,1,0.6098772501572967,2.6103336503729224,decreament,0.6,21,standard,None,100,,,,,,,,f,24,211,fr,l,0,raw,2022-05-24_10h09.18.002,oddball,2022.1.2,60.000744042831414,
10,,,,,0,1,1,2,0,0,0,0,7,0,7,0,,,,,,,,,,,,,,,,,1418.2245773002505,None,1418.9250348000787,1419.1750324000604,1419.1419828999788,1421.1423790999688,j,1,0.24554644990712404,2.2459274497814476,decreament,0.24,22,oddball,j,40,0.7261393000371754,,,,,,,f,24,211,fr,l,0,raw,2022-05-24_10h09.18.002,oddball,2022.1.2,60.000744042831414,
10,,,,,0,1,1,2,0,0,0,0,8,0,8,0,,,,,,,,,,,,,,,,,1421.159238900058,None,1421.7261806000024,1422.3264299998991,1422.309534800239,1424.310376400128,None,1,0.6119743497110903,2.6128363497555256,decreament,0.6,21,standard,None,100,,,,,,,,f,24,211,fr,l,0,raw,2022-05-24_10h09.18.002,oddball,2022.1.2,60.000744042831414,
10,,,,,0,1,1,2,0,0,0,0,9,0,9,0,,,,,,,,,,,,,,,,,1424.327130000107,None,1424.877227799967,1425.4777235998772,1425.4610617998987,1427.4617703999393,None,1,0.613639650400728,2.614276250358671,decreament,0.6,21,standard,None,100,,,,,,,,f,24,211,fr,l,0,raw,2022-05-24_10h09.18.002,oddball,2022.1.2,60.000744042831414,
10,,,,,0,1,1,2,0,0,0,0,10,0,10,0,,,,,,,,,,,,,,,,,1427.4782974999398,None,1428.1785510000773,1428.778633700218,1428.7619290002622,1430.7629694999196,None,1,0.6091389497742057,2.6102537498809397,decreament,0.6,21,standard,None,100,,,,,,,,f,24,211,fr,l,0,raw,2022-05-24_10h09.18.002,oddball,2022.1.2,60.000744042831414,
10,,,,,0,1,1,2,0,0,0,0,11,0,11,0,,,,,,,,,,,,,,,,,1430.77966570016,None,1431.3297997000627,1431.9304161998443,1431.9134239000268,1433.9144104002044,j,0,0.6118457498960197,2.612857849802822,decreament,0.6,21,standard,None,100,0.5307010998949409,,,,,,,f,24,211,fr,l,0,raw,2022-05-24_10h09.18.002,oddball,2022.1.2,60.000744042831414,
10,,,,,0,1,1,2,0,0,0,0,12,0,12,0,,,,,,,,,,,,,,,,,1433.9307964001782,None,1434.514612799976,1435.1145084002055,1435.097887299955,1437.0985630000941,None,1,0.6098420503549278,2.6105440501123667,decreament,0.6,21,standard,None,100,,,,,,,,f,24,211,fr,l,0,raw,2022-05-24_10h09.18.002,oddball,2022.1.2,60.000744042831414,
10,,,,,0,1,1,2,0,0,0,0,13,0,13,0,,,,,,,,,,,,,,,,,1437.1155035002157,None,1437.7325753001496,1438.3323050001636,1438.315701100044,1440.316450000275,None,1,0.6120235500857234,2.6127596497535706,decreament,0.6,21,standard,None,100,,,,,,,,f,24,211,fr,l,0,raw,2022-05-24_10h09.18.002,oddball,2022.1.2,60.000744042831414,
