grating_freq,blocks_prac.thisRepN,blocks_prac.thisTrialN,blocks_prac.thisN,blocks_prac.thisIndex,blocks.thisRepN,blocks.thisTrialN,blocks.thisN,blocks.thisIndex,repeat_freq.thisRepN,repeat_freq.thisTrialN,repeat_freq.thisN,repeat_freq.thisIndex,trials.thisRepN,trials.thisTrialN,trials.thisN,trials.thisIndex,break_loop.thisRepN,break_loop.thisTrialN,break_loop.thisN,break_loop.thisIndex,rest_loop.thisRepN,rest_loop.thisTrialN,rest_loop.thisN,rest_loop.thisIndex,instruct_prac_text.started,instruct_prac_text.stopped,b_instruct_text_2_.started,b_instruct_text_2_.stopped,prac_done_text.started,prac_done_text.stopped,instruct_text.started,instruct_text.stopped,fixation.started,fixation.stopped,grating.started,grating.stopped,blank.started,blank.stopped,resp.keys,resp.corr,resp.started,resp.stopped,direction,duration,trigger,stim_type,corr_ans,scaling,resp.rt,rest_text.started,rest_text.stopped,text_2.started,text_2.stopped,thx_txt.started,thx_txt.stopped,gender,age,participant,language,main_hand,nBlock_prac,file_suffix,date,expName,psychopyVersion,frameRate,
0,,,,,0,0,0,0,0,0,0,0,0,0,0,0,,,,,,,,,18.84128150017932,None,28.54854670027271,None,62.04245509998873,None,68.37779790023342,None,71.38114710012451,None,71.96520829992369,72.56474910024554,72.53140889992937,74.53236960014328,None,1,0.6136698196642101,2.6146266194991767,decreament,0.6,1,standard,None,100,,,,,,,,m,18,220,fr,r,0,raw,2022-06-07_16h56.31.728,oddball,2022.1.2,59.889707223555476,
0,,,,,0,0,0,0,0,0,0,0,1,0,1,0,,,,,,,,,,,,,,,,,74.54896839987487,None,75.36612980021164,75.96604940015823,75.94934759987518,77.95010400004685,None,1,0.6107061197981238,2.6114781200885773,decreament,0.6,1,standard,None,100,,,,,,,,m,18,220,fr,r,0,raw,2022-06-07_16h56.31.728,oddball,2022.1.2,59.889707223555476,
0,,,,,0,0,0,0,0,0,0,0,2,0,2,0,,,,,,,,,,,,,,,,,77.9669890999794,None,78.55063640000299,79.15088080009446,79.1340025998652,81.13485560007393,None,1,0.6115829204209149,2.61245982022956,decreament,0.6,1,standard,None,100,,,,,,,,m,18,220,fr,r,0,raw,2022-06-07_16h56.31.728,oddball,2022.1.2,59.889707223555476,
0,,,,,0,0,0,0,0,0,0,0,3,0,3,0,,,,,,,,,,,,,,,,,81.15177700016648,None,81.8519204002805,82.45189459994435,82.4352251002565,84.43626940017566,None,1,0.6114622200839221,2.612547220196575,decreament,0.6,1,standard,None,100,,,,,,,,m,18,220,fr,r,0,raw,2022-06-07_16h56.31.728,oddball,2022.1.2,59.889707223555476,
0,,,,,0,0,0,0,0,0,0,0,4,0,4,0,,,,,,,,,,,,,,,,,84.45277350023389,None,85.05289540020749,85.65295000001788,85.63635150017217,87.63703530002385,None,1,0.6125766201876104,2.6132500199601054,decreament,0.6,1,standard,None,100,,,,,,,,m,18,220,fr,r,0,raw,2022-06-07_16h56.31.728,oddball,2022.1.2,59.889707223555476,
0,,,,,0,0,0,0,0,0,0,0,5,0,5,0,,,,,,,,,,,,,,,,,87.65401940001175,None,88.18755719996989,88.78750950004905,88.77082800026983,90.77171600004658,None,1,0.6101461201906204,2.611082120332867,decreament,0.6,1,standard,None,100,,,,,,,,m,18,220,fr,r,0,raw,2022-06-07_16h56.31.728,oddball,2022.1.2,59.889707223555476,
0,,,,,0,0,0,0,0,0,0,0,6,0,6,0,,,,,,,,,,,,,,,,,90.78845860017464,None,91.40574359986931,92.00552790006623,91.98894939990714,93.9893204998225,None,1,0.6124656200408936,2.6127944202162325,decreament,0.6,1,standard,None,100,,,,,,,,m,18,220,fr,r,0,raw,2022-06-07_16h56.31.728,oddball,2022.1.2,59.889707223555476,
0,,,,,0,0,0,0,0,0,0,0,7,0,7,0,,,,,,,,,,,,,,,,,94.00613400014117,None,94.74029640015215,95.34009410021827,95.32398009998724,97.32413480011746,None,1,0.6093135201372206,2.609398120082915,decreament,0.6,1,standard,None,100,,,,,,,,m,18,220,fr,r,0,raw,2022-06-07_16h56.31.728,oddball,2022.1.2,59.889707223555476,
0,,,,,0,0,0,0,0,0,0,0,8,0,8,0,,,,,,,,,,,,,,,,,97.3408961002715,None,98.02477549994364,98.39118319982663,98.35795560013503,100.35894200019538,j,1,0.3590882197022438,2.3601483199745417,decreament,0.36,3,oddball,j,60,1.2585630002431571,,,,,,,m,18,220,fr,r,0,raw,2022-06-07_16h56.31.728,oddball,2022.1.2,59.889707223555476,
0,,,,,0,0,0,0,0,0,0,0,9,0,9,0,,,,,,,,,,,,,,,,,100.37507850024849,None,101.14232040010393,101.74256689986214,101.72575910016894,103.72639989992604,None,1,0.612271920312196,2.612888820003718,decreament,0.6,1,standard,None,100,,,,,,,,m,18,220,fr,r,0,raw,2022-06-07_16h56.31.728,oddball,2022.1.2,59.889707223555476,
0,,,,,0,0,0,0,0,0,0,0,10,0,10,0,,,,,,,,,,,,,,,,,103.74333770014346,None,104.37738760001957,104.97709619998932,104.9602797999978,106.96113579999655,None,1,0.6086878199130297,2.609578319825232,decreament,0.6,1,standard,None,100,,,,,,,,m,18,220,fr,r,0,raw,2022-06-07_16h56.31.728,oddball,2022.1.2,59.889707223555476,
0,,,,,0,0,0,0,0,0,0,0,11,0,11,0,,,,,,,,,,,,,,,,,106.97794920019805,None,107.59472370008007,108.19545370014384,108.17854660004377,110.17895170021802,None,1,0.6124140196479857,2.612750319764018,decreament,0.6,1,standard,None,100,,,,,,,,m,18,220,fr,r,0,raw,2022-06-07_16h56.31.728,oddball,2022.1.2,59.889707223555476,
0,,,,,0,0,0,0,0,0,0,0,12,0,12,0,,,,,,,,,,,,,,,,,110.19586900016293,None,110.84596320008859,111.44611030025408,111.42966490006074,113.43001369992271,None,1,0.6125899204052985,2.612915019970387,decreament,0.6,1,standard,None,100,,,,,,,,m,18,220,fr,r,0,raw,2022-06-07_16h56.31.728,oddball,2022.1.2,59.889707223555476,
0,,,,,0,0,0,0,0,0,0,0,13,0,13,0,,,,,,,,,,,,,,,,,113.44697380019352,None,114.04728179983795,114.53072960022837,114.49807230010629,116.49822650011629,j,1,0.4802001197822392,2.4803073196671903,decreament,0.48,4,oddball,j,80,0.5979398004710674,,,,,,,m,18,220,fr,r,0,raw,2022-06-07_16h56.31.728,oddball,2022.1.2,59.889707223555476,
0,,,,,0,0,0,0,0,0,0,0,14,0,14,0,,,,,,,,,,,,,,,,,116.5147827998735,None,117.34875820018351,117.94844749988988,117.93196940002963,119.93272709986195,None,1,0.6091235200874507,2.609914820175618,decreament,0.6,1,standard,None,100,,,,,,,,m,18,220,fr,r,0,raw,2022-06-07_16h56.31.728,oddball,2022.1.2,59.889707223555476,
0,,,,,0,0,0,0,0,0,0,0,15,0,15,0,,,,,,,,,,,,,,,,,119.94964670017362,None,120.58300680015236,121.18311670003459,121.16704860003665,123.16727120010182,None,1,0.612940720282495,2.613157920073718,decreament,0.6,1,standard,None,100,,,,,,,,m,18,220,fr,r,0,raw,2022-06-07_16h56.31.728,oddball,2022.1.2,59.889707223555476,
0,,,,,0,0,0,0,0,0,0,0,16,0,16,0,,,,,,,,,,,,,,,,,123.18409889983013,None,123.98439239989966,124.5847964999266,124.56798220006749,126.5689623998478,None,1,0.6113258199766278,2.6123823202215135,decreament,0.6,1,standard,None,100,,,,,,,,m,18,220,fr,r,0,raw,2022-06-07_16h56.31.728,oddball,2022.1.2,59.889707223555476,
0,,,,,0,0,0,0,0,0,0,0,17,0,17,0,,,,,,,,,,,,,,,,,126.58775060018525,None,127.13602050021291,127.73549580015242,127.71896110009402,129.7198621998541,None,1,0.608157719951123,2.6091343201696873,decreament,0.6,1,standard,None,100,,,,,,,,m,18,220,fr,r,0,raw,2022-06-07_16h56.31.728,oddball,2022.1.2,59.889707223555476,
0,,,,,0,0,0,0,0,0,0,0,18,0,18,0,,,,,,,,,,,,,,,,,129.73663329984993,None,130.45345549983904,131.0535168000497,131.03737480007112,133.03779429988936,None,1,0.6126254200935364,2.612955020274967,decreament,0.6,1,standard,None,100,,,,,,,,m,18,220,fr,r,0,raw,2022-06-07_16h56.31.728,oddball,2022.1.2,59.889707223555476,
0,,,,,0,0,0,0,0,0,0,0,19,0,19,0,,,,,,,,,,,,,,,,,133.0544806998223,None,133.62124710017815,134.22157610021532,134.2050298000686,136.2058846000582,None,1,0.6134414202533662,2.6143528199754655,decreament,0.6,1,standard,None,100,,,,,,,,m,18,220,fr,r,0,raw,2022-06-07_16h56.31.728,oddball,2022.1.2,59.889707223555476,
0,,,,,0,0,0,0,0,0,0,0,20,0,20,0,,,,,,,,,,,,,,,,,136.22278589988127,None,136.75587779982015,137.3558813999407,137.3393124998547,139.3402853999287,None,1,0.6123655196279287,2.6133777196519077,decreament,0.6,1,standard,None,100,,,,,,,,m,18,220,fr,r,0,raw,2022-06-07_16h56.31.728,oddball,2022.1.2,59.889707223555476,
0,,,,,0,0,0,0,0,0,0,0,21,0,21,0,,,,,,,,,,,,,,,,,139.3570475000888,None,140.0241330000572,140.62368649989367,140.60711460001767,142.60819659987465,None,1,0.6089936196804047,2.61017001979053,decreament,0.6,1,standard,None,100,,,,,,,,m,18,220,fr,r,0,raw,2022-06-07_16h56.31.728,oddball,2022.1.2,59.889707223555476,
0,,,,,0,0,0,0,0,0,0,0,22,0,22,0,,,,,,,,,,,,,,,,,142.62454889994115,None,143.22516799997538,143.82511309999973,143.80846560001373,145.8092650999315,None,1,0.6092577194795012,2.6100928196683526,decreament,0.6,1,standard,None,100,,,,,,,,m,18,220,fr,r,0,raw,2022-06-07_16h56.31.728,oddball,2022.1.2,59.889707223555476,
0,,,,,0,0,0,0,0,0,0,0,23,0,23,0,,,,,,,,,,,,,,,,,145.82592540001497,None,146.34278339985758,146.59285550005734,146.55952739994973,148.56054450012743,j,1,0.2447195197455585,2.2457752195186913,decreament,0.24,2,oddball,j,40,0.7043721000663936,,,,,,,m,18,220,fr,r,0,raw,2022-06-07_16h56.31.728,oddball,2022.1.2,59.889707223555476,
0,,,,,0,0,0,0,0,0,0,0,24,0,24,0,,,,,,,,,,,,,,,,,148.57703380007297,None,149.2437955001369,149.8438619999215,149.827711999882,151.82823230000213,None,1,0.6119068204425275,2.612489420454949,decreament,0.6,1,standard,None,100,,,,,,,,m,18,220,fr,r,0,raw,2022-06-07_16h56.31.728,oddball,2022.1.2,59.889707223555476,
0,,,,,0,0,0,0,0,0,0,0,25,0,25,0,,,,,,,,,,,,,,,,,151.84504610020667,None,152.46215109992772,153.06218380015343,153.0450606001541,155.04595870012417,None,1,0.6077008196152747,2.6086258199065924,decreament,0.6,1,standard,None,100,,,,,,,,m,18,220,fr,r,0,raw,2022-06-07_16h56.31.728,oddball,2022.1.2,59.889707223555476,
0,,,,,0,0,0,0,0,0,0,0,26,0,26,0,,,,,,,,,,,,,,,,,155.06266860011965,None,155.7131683002226,156.3132088999264,156.2967992001213,158.29712620005012,None,1,0.6123637203127146,2.6126283202320337,decreament,0.6,1,standard,None,100,,,,,,,,m,18,220,fr,r,0,raw,2022-06-07_16h56.31.728,oddball,2022.1.2,59.889707223555476,
0,,,,,0,0,0,0,0,0,0,0,27,0,27,0,,,,,,,,,,,,,,,,,158.31381649989635,None,158.84773450018838,159.44766469998285,159.4310332001187,161.4319457001984,None,1,0.6090386202558875,2.6099723200313747,decreament,0.6,1,standard,None,100,,,,,,,,m,18,220,fr,r,0,raw,2022-06-07_16h56.31.728,oddball,2022.1.2,59.889707223555476,
0,,,,,0,0,0,0,0,0,0,0,28,0,28,0,,,,,,,,,,,,,,,,,161.44851589994505,None,162.03213489986956,162.63238289998844,162.61585980001837,164.61676889983937,None,1,0.61142712039873,2.612349320203066,decreament,0.6,1,standard,None,100,,,,,,,,m,18,220,fr,r,0,raw,2022-06-07_16h56.31.728,oddball,2022.1.2,59.889707223555476,
0,,,,,0,0,0,0,0,0,0,0,29,0,29,0,,,,,,,,,,,,,,,,,164.63289140025154,None,165.36647929996252,165.96680530020967,165.95063790027052,167.95116200018674,None,1,0.6106636198237538,2.611194219905883,decreament,0.6,1,standard,None,100,,,,,,,,m,18,220,fr,r,0,raw,2022-06-07_16h56.31.728,oddball,2022.1.2,59.889707223555476,
0,,,,,0,0,0,0,1,0,1,0,0,0,0,0,,,,,,,,,,,,,,,173.94181620003656,None,177.5546547002159,None,178.2548755002208,178.85490739997476,178.83825509995222,180.8388817999512,None,1,0.6109735197387636,2.6116059198975563,increament,0.6,5,standard,None,100,,167.96808020025492,None,,,,,m,18,220,fr,r,0,raw,2022-06-07_16h56.31.728,oddball,2022.1.2,59.889707223555476,
0,,,,,0,0,0,0,1,0,1,0,1,0,1,0,,,,,,,,,,,,,,,,,180.85586730018258,None,181.43950220011175,182.03977170027792,182.02296019997448,184.02400340000167,None,1,0.6121493200771511,2.613196120131761,increament,0.6,5,standard,None,100,,,,,,,,m,18,220,fr,r,0,raw,2022-06-07_16h56.31.728,oddball,2022.1.2,59.889707223555476,
0,,,,,0,0,0,0,1,0,1,0,2,0,2,0,,,,,,,,,,,,,,,,,184.04009719984606,None,184.5572321000509,185.1574689000845,185.14084280002862,187.14140619989485,None,1,0.6122092199511826,2.612762619741261,increament,0.6,5,standard,None,100,,,,,,,,m,18,220,fr,r,0,raw,2022-06-07_16h56.31.728,oddball,2022.1.2,59.889707223555476,
0,,,,,0,0,0,0,1,0,1,0,3,0,3,0,,,,,,,,,,,,,,,,,187.15804450027645,None,187.90849630022421,188.50906880013645,188.4922660999,190.49278690014035,None,1,0.6121064200997353,2.6125633199699223,increament,0.6,5,standard,None,100,,,,,,,,m,18,220,fr,r,0,raw,2022-06-07_16h56.31.728,oddball,2022.1.2,59.889707223555476,
0,,,,,0,0,0,0,1,0,1,0,4,0,4,0,,,,,,,,,,,,,,,,,190.5097105000168,None,191.1261913999915,191.72652520006523,191.7102263001725,193.71060540014878,None,1,0.6132998201064765,2.6136473203077912,increament,0.6,5,standard,None,100,,,,,,,,m,18,220,fr,r,0,raw,2022-06-07_16h56.31.728,oddball,2022.1.2,59.889707223555476,
0,,,,,0,0,0,0,1,0,1,0,5,0,5,0,,,,,,,,,,,,,,,,,193.72734049987048,None,194.2776057999581,194.8777032000944,194.86111540021375,196.8616289999336,None,1,0.6116265202872455,2.6121127200312912,increament,0.6,5,standard,None,100,,,,,,,,m,18,220,fr,r,0,raw,2022-06-07_16h56.31.728,oddball,2022.1.2,59.889707223555476,
0,,,,,0,0,0,0,1,0,1,0,6,0,6,0,,,,,,,,,,,,,,,,,196.87853470025584,None,197.46211329987273,198.06217870023102,198.04569109994918,200.046326499898,None,1,0.6118566198274493,2.6124567198567092,increament,0.6,5,standard,None,100,,,,,,,,m,18,220,fr,r,0,raw,2022-06-07_16h56.31.728,oddball,2022.1.2,59.889707223555476,
0,,,,,0,0,0,0,1,0,1,0,7,0,7,0,,,,,,,,,,,,,,,,,200.06292909989133,None,200.76299540000036,201.36370019987226,201.3468025000766,203.34775630012155,j,0,0.6148826200515032,2.6158682201057673,increament,0.6,5,standard,None,100,0.7503150999546051,,,,,,,m,18,220,fr,r,0,raw,2022-06-07_16h56.31.728,oddball,2022.1.2,59.889707223555476,
0,,,,,0,0,0,0,1,0,1,0,8,0,8,0,,,,,,,,,,,,,,,,,203.36435610009357,None,203.99843210028484,204.96526880003512,204.93186869984493,206.93233569990844,j,1,0.9600937198847532,2.960481619928032,increament,0.96,8,oddball,j,160,0.10823330003768206,,,,,,,m,18,220,fr,r,0,raw,2022-06-07_16h56.31.728,oddball,2022.1.2,59.889707223555476,
0,,,,,0,0,0,0,1,0,1,0,9,0,9,0,,,,,,,,,,,,,,,,,206.9491360001266,None,207.6663179001771,208.26616200013086,208.2495440999046,210.25026170024648,None,1,0.6107419198378921,2.611464819870889,increament,0.6,5,standard,None,100,,,,,,,,m,18,220,fr,r,0,raw,2022-06-07_16h56.31.728,oddball,2022.1.2,59.889707223555476,
0,,,,,0,0,0,0,1,0,1,0,10,0,10,0,,,,,,,,,,,,,,,,,210.26705359993502,None,210.81688510021195,211.41752010025084,211.40109049994498,213.40139609994367,None,1,0.6107320198789239,2.6110762199386954,increament,0.6,5,standard,None,100,,,,,,,,m,18,220,fr,r,0,raw,2022-06-07_16h56.31.728,oddball,2022.1.2,59.889707223555476,
0,,,,,0,0,0,0,1,0,1,0,11,0,11,0,,,,,,,,,,,,,,,,,213.4182974002324,None,214.06874789996073,214.6689647999592,214.65215170010924,216.65259290020913,None,1,0.6123137203976512,2.6127653205767274,increament,0.6,5,standard,None,100,,,,,,,,m,18,220,fr,r,0,raw,2022-06-07_16h56.31.728,oddball,2022.1.2,59.889707223555476,
0,,,,,0,0,0,0,1,0,1,0,12,0,12,0,,,,,,,,,,,,,,,,,216.6693823998794,None,217.26966009987518,217.87002999987453,217.8536065001972,219.85392649983987,None,1,0.6132116201333702,2.6134934201836586,increament,0.6,5,standard,None,100,,,,,,,,m,18,220,fr,r,0,raw,2022-06-07_16h56.31.728,oddball,2022.1.2,59.889707223555476,
0,,,,,0,0,0,0,1,0,1,0,13,0,13,0,,,,,,,,,,,,,,,,,219.8705965001136,None,220.58749460009858,221.18755159992725,221.17100680014119,223.1722041000612,None,1,0.6119791194796562,2.6132154194638133,increament,0.6,5,standard,None,100,,,,,,,,m,18,220,fr,r,0,raw,2022-06-07_16h56.31.728,oddball,2022.1.2,59.889707223555476,
0,,,,,0,0,0,0,1,0,1,0,14,0,14,0,,,,,,,,,,,,,,,,,223.18882470019162,None,223.8220941000618,224.42251279996708,224.40599559992552,226.40624949987978,None,1,0.61242121970281,2.6126121198758483,increament,0.6,5,standard,None,100,,,,,,,,m,18,220,fr,r,0,raw,2022-06-07_16h56.31.728,oddball,2022.1.2,59.889707223555476,
0,,,,,0,0,0,0,1,0,1,0,15,0,15,0,,,,,,,,,,,,,,,,,226.42319300025702,None,227.00671359989792,227.74028379982337,227.70714730024338,229.7074623000808,j,1,0.7294667200185359,2.7297511198557913,increament,0.72,6,oddball,j,120,0.42004270013421774,,,,,,,m,18,220,fr,r,0,raw,2022-06-07_16h56.31.728,oddball,2022.1.2,59.889707223555476,
0,,,,,0,0,0,0,1,0,1,0,16,0,16,0,,,,,,,,,,,,,,,,,229.7244790000841,None,230.29163110023364,230.8918959000148,230.87497660005465,232.87581080012023,None,1,0.6107254200614989,2.611600419972092,increament,0.6,5,standard,None,100,,,,,,,,m,18,220,fr,r,0,raw,2022-06-07_16h56.31.728,oddball,2022.1.2,59.889707223555476,
0,,,,,0,0,0,0,1,0,1,0,17,0,17,0,,,,,,,,,,,,,,,,,232.89385150000453,None,233.62592360004783,234.22588439984247,234.20920359995216,236.2102910000831,j,0,0.612243720330298,2.6134414202533662,increament,0.6,5,standard,None,100,0.3111841999925673,,,,,,,m,18,220,fr,r,0,raw,2022-06-07_16h56.31.728,oddball,2022.1.2,59.889707223555476,
0,,,,,0,0,0,0,1,0,1,0,18,0,18,0,,,,,,,,,,,,,,,,,236.22666510008276,None,236.77707230020314,237.37707540020347,237.36059000017121,239.3615049002692,None,1,0.6131700202822685,2.614091319963336,increament,0.6,5,standard,None,100,,,,,,,,m,18,220,fr,r,0,raw,2022-06-07_16h56.31.728,oddball,2022.1.2,59.889707223555476,
0,,,,,0,0,0,0,1,0,1,0,19,0,19,0,,,,,,,,,,,,,,,,,239.37818709993735,None,240.14500149991363,240.99502580007538,240.96218830021098,242.96271069999784,j,1,0.846753119956702,2.847314919810742,increament,0.84,7,oddball,j,140,0.4452407001517713,,,,,,,m,18,220,fr,r,0,raw,2022-06-07_16h56.31.728,oddball,2022.1.2,59.889707223555476,
0,,,,,0,0,0,0,1,0,1,0,20,0,20,0,,,,,,,,,,,,,,,,,242.97941449983045,None,243.56298909988254,244.16330720018595,244.14698390010744,246.14756890013814,None,1,0.6117170201614499,2.6123470198363066,increament,0.6,5,standard,None,100,,,,,,,,m,18,220,fr,r,0,raw,2022-06-07_16h56.31.728,oddball,2022.1.2,59.889707223555476,
0,,,,,0,0,0,0,1,0,1,0,21,0,21,0,,,,,,,,,,,,,,,,,246.1639482001774,None,246.89748719986528,247.49784039985389,247.4813055000268,249.48198419995606,None,1,0.6130154198035598,2.6136920200660825,increament,0.6,5,standard,None,100,,,,,,,,m,18,220,fr,r,0,raw,2022-06-07_16h56.31.728,oddball,2022.1.2,59.889707223555476,
0,,,,,0,0,0,0,1,0,1,0,22,0,22,0,,,,,,,,,,,,,,,,,249.49859440000728,None,250.03190209995955,250.63239490007982,250.61607899982482,252.6161028998904,None,1,0.6148973195813596,2.6148433196358383,increament,0.6,5,standard,None,100,,,,,,,,m,18,220,fr,r,0,raw,2022-06-07_16h56.31.728,oddball,2022.1.2,59.889707223555476,
0,,,,,0,0,0,0,1,0,1,0,23,0,23,0,,,,,,,,,,,,,,,,,252.63325610011816,None,253.30000409996137,253.90002890024334,253.88339530024678,255.8840120001696,None,1,0.6102277198806405,2.610865519847721,increament,0.6,5,standard,None,100,,,,,,,,m,18,220,fr,r,0,raw,2022-06-07_16h56.31.728,oddball,2022.1.2,59.889707223555476,
0,,,,,0,0,0,0,1,0,1,0,24,0,24,0,,,,,,,,,,,,,,,,,255.9011356998235,None,256.5010571000166,257.10153810027987,257.08525100024417,259.08544760011137,None,1,0.6127083194442093,2.6128060198388994,increament,0.6,5,standard,None,100,,,,,,,,m,18,220,fr,r,0,raw,2022-06-07_16h56.31.728,oddball,2022.1.2,59.889707223555476,
0,,,,,0,0,0,0,1,0,1,0,25,0,25,0,,,,,,,,,,,,,,,,,259.10221539996564,None,259.8863030001521,260.485973500181,260.4692963999696,262.47016280004755,j,0,0.6083995206281543,2.6093462202697992,increament,0.6,5,standard,None,100,0.7146307001821697,,,,,,,m,18,220,fr,r,0,raw,2022-06-07_16h56.31.728,oddball,2022.1.2,59.889707223555476,
0,,,,,0,0,0,0,1,0,1,0,26,0,26,0,,,,,,,,,,,,,,,,,262.48695100005716,None,263.10371599998325,263.7038413998671,263.6873548999429,265.6880537001416,None,1,0.6134674199856818,2.614226719830185,increament,0.6,5,standard,None,100,,,,,,,,m,18,220,fr,r,0,raw,2022-06-07_16h56.31.728,oddball,2022.1.2,59.889707223555476,
0,,,,,0,0,0,0,1,0,1,0,27,0,27,0,,,,,,,,,,,,,,,,,265.70496780006215,None,266.33809620002285,266.93848560005426,266.9217980001122,268.9225628999993,j,0,0.6132408203557134,2.613971820566803,increament,0.6,5,standard,None,100,0.28573110001161695,,,,,,,m,18,220,fr,r,0,raw,2022-06-07_16h56.31.728,oddball,2022.1.2,59.889707223555476,
0,,,,,0,0,0,0,1,0,1,0,28,0,28,0,,,,,,,,,,,,,,,,,268.9391093002632,None,269.5394880999811,270.13973189983517,270.1234379000962,272.12334770010784,None,1,0.6132769198156893,2.6130463196896017,increament,0.6,5,standard,None,100,,,,,,,,m,18,220,fr,r,0,raw,2022-06-07_16h56.31.728,oddball,2022.1.2,59.889707223555476,
0,,,,,0,0,0,0,1,0,1,0,29,0,29,0,,,,,,,,,,,,,,,,,272.14010039996356,None,272.8740473999642,273.4741083998233,273.45776529982686,275.4581689001061,None,1,0.6116662202402949,2.6120177200064063,increament,0.6,5,standard,None,100,,,,,,,,m,18,220,fr,r,0,raw,2022-06-07_16h56.31.728,oddball,2022.1.2,59.889707223555476,
0,,,,,0,0,0,0,2,0,2,0,0,0,0,0,,,,,,,,,,,,,,,277.42558100027964,None,279.57638979982585,None,280.34370570024475,280.94381590001285,280.92702479986474,282.92792920023203,None,1,0.6115754200145602,2.612561820074916,decreament,0.6,1,standard,None,100,,275.47530179983005,None,,,,,m,18,220,fr,r,0,raw,2022-06-07_16h56.31.728,oddball,2022.1.2,59.889707223555476,
0,,,,,0,0,0,0,2,0,2,0,1,0,1,0,,,,,,,,,,,,,,,,,282.9451301000081,None,283.6280256998725,284.22814599983394,284.2118478999473,286.21241190005094,None,1,0.6133264196105301,2.6138799195177853,decreament,0.6,1,standard,None,100,,,,,,,,m,18,220,fr,r,0,raw,2022-06-07_16h56.31.728,oddball,2022.1.2,59.889707223555476,
0,,,,,0,0,0,0,2,0,2,0,2,0,2,0,,,,,,,,,,,,,,,,,286.2289046002552,None,286.896322700195,287.4961342001334,287.4797594002448,289.48053030017763,None,1,0.6128680198453367,2.61373401992023,decreament,0.6,1,standard,None,100,,,,,,,,m,18,220,fr,r,0,raw,2022-06-07_16h56.31.728,oddball,2022.1.2,59.889707223555476,
0,,,,,0,0,0,0,2,0,2,0,3,0,3,0,,,,,,,,,,,,,,,,,289.4969792999327,None,290.1473365002312,290.7471849001013,290.730808599852,292.7317635999061,None,1,0.6126306201331317,2.6136446204036474,decreament,0.6,1,standard,None,100,,,,,,,,m,18,220,fr,r,0,raw,2022-06-07_16h56.31.728,oddball,2022.1.2,59.889707223555476,
0,,,,,0,0,0,0,2,0,2,0,4,0,4,0,,,,,,,,,,,,,,,,,292.7484327000566,None,293.3320792000741,293.93193060019985,293.91544760018587,295.91591330012307,None,1,0.6111843204125762,2.6116256206296384,decreament,0.6,1,standard,None,100,,,,,,,,m,18,220,fr,r,0,raw,2022-06-07_16h56.31.728,oddball,2022.1.2,59.889707223555476,
0,,,,,0,0,0,0,2,0,2,0,5,0,5,0,,,,,,,,,,,,,,,,,295.93274779990315,None,296.58293640008196,297.1832628999837,297.16658880002797,299.1671521002427,None,1,0.6127995201386511,2.6133582200855017,decreament,0.6,1,standard,None,100,,,,,,,,m,18,220,fr,r,0,raw,2022-06-07_16h56.31.728,oddball,2022.1.2,59.889707223555476,
0,,,,,0,0,0,0,2,0,2,0,6,0,6,0,,,,,,,,,,,,,,,,,299.1841414999217,None,299.801021900028,300.4012851999141,300.38473920011893,302.3851700001396,None,1,0.6119573200121522,2.6123557197861373,decreament,0.6,1,standard,None,100,,,,,,,,m,18,220,fr,r,0,raw,2022-06-07_16h56.31.728,oddball,2022.1.2,59.889707223555476,
0,,,,,0,0,0,0,2,0,2,0,7,0,7,0,,,,,,,,,,,,,,,,,302.4018538999371,None,303.11912660021335,303.7188804000616,303.70228679990396,305.70312520023435,None,1,0.6098490199074149,2.6107385200448334,decreament,0.6,1,standard,None,100,,,,,,,,m,18,220,fr,r,0,raw,2022-06-07_16h56.31.728,oddball,2022.1.2,59.889707223555476,
0,,,,,0,0,0,0,2,0,2,0,8,0,8,0,,,,,,,,,,,,,,,,,305.71980389999226,None,306.3535414999351,306.95379840023816,306.9367971001193,308.9377905000001,None,1,0.6091383202001452,2.6101806201040745,decreament,0.6,1,standard,None,100,,,,,,,,m,18,220,fr,r,0,raw,2022-06-07_16h56.31.728,oddball,2022.1.2,59.889707223555476,
0,,,,,0,0,0,0,2,0,2,0,9,0,9,0,,,,,,,,,,,,,,,,,308.95482470002025,None,309.5880247000605,310.1881026001647,310.171476600226,312.1726200999692,None,1,0.6119014201685786,2.613070320338011,decreament,0.6,1,standard,None,100,,,,,,,,m,18,220,fr,r,0,raw,2022-06-07_16h56.31.728,oddball,2022.1.2,59.889707223555476,
0,,,,,0,0,0,0,2,0,2,0,10,0,10,0,,,,,,,,,,,,,,,,,312.1888997000642,None,312.8390752002597,313.08908220008016,313.05595800001174,315.0567474998534,j,1,0.24287472013384104,2.243755120318383,decreament,0.24,2,oddball,j,40,0.47213940043002367,,,,,,,m,18,220,fr,r,0,raw,2022-06-07_16h56.31.728,oddball,2022.1.2,59.889707223555476,
0,,,,,0,0,0,0,2,0,2,0,11,0,11,0,,,,,,,,,,,,,,,,,315.0747464001179,None,315.85720370011404,316.45756800007075,316.44071280024946,318.4410321000032,None,1,0.6092815203592181,2.609439220279455,decreament,0.6,1,standard,None,100,,,,,,,,m,18,220,fr,r,0,raw,2022-06-07_16h56.31.728,oddball,2022.1.2,59.889707223555476,
0,,,,,0,0,0,0,2,0,2,0,12,0,12,0,,,,,,,,,,,,,,,,,318.4578048000112,None,319.05817630002275,319.6582141001709,319.6417156001553,321.6423161998391,None,1,0.6124495198018849,2.613052620086819,decreament,0.6,1,standard,None,100,,,,,,,,m,18,220,fr,r,0,raw,2022-06-07_16h56.31.728,oddball,2022.1.2,59.889707223555476,
0,,,,,0,0,0,0,2,0,2,0,13,0,13,0,,,,,,,,,,,,,,,,,321.65950019983575,None,322.3093022000976,322.90982110006735,322.8929691002704,324.8936804002151,None,1,0.6128846197389066,2.6136079197749496,decreament,0.6,1,standard,None,100,,,,,,,,m,18,220,fr,r,0,raw,2022-06-07_16h56.31.728,oddball,2022.1.2,59.889707223555476,
0,,,,,0,0,0,0,2,0,2,0,14,0,14,0,,,,,,,,,,,,,,,,,324.9104702998884,None,325.57738160016015,326.1776751000434,326.16075479984283,328.1615670998581,j,0,0.612492720130831,2.6132911201566458,decreament,0.6,1,standard,None,100,0.19107399974018335,,,,,,,m,18,220,fr,r,0,raw,2022-06-07_16h56.31.728,oddball,2022.1.2,59.889707223555476,
0,,,,,0,0,0,0,2,0,2,0,15,0,15,0,,,,,,,,,,,,,,,,,328.17826359998435,None,328.9618397001177,329.56205910025164,329.54541700007394,331.54674550006166,None,1,0.6130171199329197,2.6144233201630414,decreament,0.6,1,standard,None,100,,,,,,,,m,18,220,fr,r,0,raw,2022-06-07_16h56.31.728,oddball,2022.1.2,59.889707223555476,
0,,,,,0,0,0,0,2,0,2,0,16,0,16,0,,,,,,,,,,,,,,,,,331.5627788999118,None,332.1631466001272,332.7629816001281,332.7464201999828,334.74791039992124,None,1,0.6123665203340352,2.613978120498359,decreament,0.6,1,standard,None,100,,,,,,,,m,18,220,fr,r,0,raw,2022-06-07_16h56.31.728,oddball,2022.1.2,59.889707223555476,
0,,,,,0,0,0,0,2,0,2,0,17,0,17,0,,,,,,,,,,,,,,,,,334.76563550019637,None,335.5312409000471,336.0147426002659,335.99781670002267,337.998824799899,None,0,0.4944480201229453,2.495500120334327,decreament,0.48,4,oddball,j,80,,,,,,,,m,18,220,fr,r,0,raw,2022-06-07_16h56.31.728,oddball,2022.1.2,59.889707223555476,
0,,,,,0,0,0,0,2,0,2,0,18,0,18,0,,,,,,,,,,,,,,,,,338.01522359997034,None,338.66554490011185,339.26586190005764,339.2491946001537,341.24992770003155,None,1,0.6123051200993359,2.6130659198388457,decreament,0.6,1,standard,None,100,,,,,,,,m,18,220,fr,r,0,raw,2022-06-07_16h56.31.728,oddball,2022.1.2,59.889707223555476,
0,,,,,0,0,0,0,2,0,2,0,19,0,19,0,,,,,,,,,,,,,,,,,341.2665452999063,None,341.9332588999532,342.5335046998225,342.5171782001853,344.5179256000556,None,1,0.6137595199979842,2.6145398202352226,decreament,0.6,1,standard,None,100,,,,,,,,m,18,220,fr,r,0,raw,2022-06-07_16h56.31.728,oddball,2022.1.2,59.889707223555476,
0,,,,,0,0,0,0,2,0,2,0,20,0,20,0,,,,,,,,,,,,,,,,,344.5346266999841,None,345.15164689999074,345.7516407002695,345.73513189982623,347.73625200008973,None,1,0.6108129201456904,2.6124866199679673,decreament,0.6,1,standard,None,100,,,,,,,,m,18,220,fr,r,0,raw,2022-06-07_16h56.31.728,oddball,2022.1.2,59.889707223555476,
0,,,,,0,0,0,0,2,0,2,0,21,0,21,0,,,,,,,,,,,,,,,,,347.7525082002394,None,348.46930589992553,349.0696172998287,349.0529005001299,351.05362479994074,j,0,0.6104021202772856,2.6111333202570677,decreament,0.6,1,standard,None,100,0.994976700283587,,,,,,,m,18,220,fr,r,0,raw,2022-06-07_16h56.31.728,oddball,2022.1.2,59.889707223555476,
0,,,,,0,0,0,0,2,0,2,0,22,0,22,0,,,,,,,,,,,,,,,,,351.0702399001457,None,351.7041791998781,352.30436399998143,352.287810199894,354.2880207002163,None,1,0.6123650195077062,2.6126672197133303,decreament,0.6,1,standard,None,100,,,,,,,,m,18,220,fr,r,0,raw,2022-06-07_16h56.31.728,oddball,2022.1.2,59.889707223555476,
0,,,,,0,0,0,0,2,0,2,0,23,0,23,0,,,,,,,,,,,,,,,,,354.305205500219,None,354.97198730008677,355.571848699823,355.5554126002826,357.5560538000427,None,1,0.6104802200570703,2.6111121200956404,decreament,0.6,1,standard,None,100,,,,,,,,m,18,220,fr,r,0,raw,2022-06-07_16h56.31.728,oddball,2022.1.2,59.889707223555476,
0,,,,,0,0,0,0,2,0,2,0,24,0,24,0,,,,,,,,,,,,,,,,,357.57287380006164,None,358.30672169988975,358.9064353001304,358.8900318001397,360.8907985999249,None,1,0.6096588200889528,2.610405220184475,decreament,0.6,1,standard,None,100,,,,,,,,m,18,220,fr,r,0,raw,2022-06-07_16h56.31.728,oddball,2022.1.2,59.889707223555476,
0,,,,,0,0,0,0,2,0,2,0,25,0,25,0,,,,,,,,,,,,,,,,,360.9072325001471,None,361.52474129991606,362.1243022000417,362.1082955002785,364.1080884998664,None,1,0.6100851194933057,2.609758619684726,decreament,0.6,1,standard,None,100,,,,,,,,m,18,220,fr,r,0,raw,2022-06-07_16h56.31.728,oddball,2022.1.2,59.889707223555476,
0,,,,,0,0,0,0,2,0,2,0,26,0,26,0,,,,,,,,,,,,,,,,,364.1250236998312,None,364.74184460006654,365.3421521000564,365.32572090020403,367.3268793998286,None,1,0.6143365204334259,2.6155500202439725,decreament,0.6,1,standard,None,100,,,,,,,,m,18,220,fr,r,0,raw,2022-06-07_16h56.31.728,oddball,2022.1.2,59.889707223555476,
0,,,,,0,0,0,0,2,0,2,0,27,0,27,0,,,,,,,,,,,,,,,,,367.34298200020567,None,367.91028760001063,368.51012390013784,368.4936838001013,370.4943408998661,None,1,0.6110468194819987,2.611732819583267,decreament,0.6,1,standard,None,100,,,,,,,,m,18,220,fr,r,0,raw,2022-06-07_16h56.31.728,oddball,2022.1.2,59.889707223555476,
0,,,,,0,0,0,0,2,0,2,0,28,0,28,0,,,,,,,,,,,,,,,,,370.5112037998624,None,371.1614541001618,371.5278988000937,371.4950025998987,373.49581270013005,None,0,0.35976742021739483,2.3606498204171658,decreament,0.36,3,oddball,j,60,,,,,,,,m,18,220,fr,r,0,raw,2022-06-07_16h56.31.728,oddball,2022.1.2,59.889707223555476,
0,,,,,0,0,0,0,2,0,2,0,29,0,29,0,,,,,,,,,,,,,,,,,373.51289450004697,None,374.19603200023994,374.7958614001982,374.779568400234,376.7802253002301,None,1,0.6097788200713694,2.6103668198920786,decreament,0.6,1,standard,None,100,,,,,,,,m,18,220,fr,r,0,raw,2022-06-07_16h56.31.728,oddball,2022.1.2,59.889707223555476,
0,,,,,0,0,0,0,3,0,3,0,0,0,0,0,,,,,,,,,,,,,,,380.589350100141,None,382.69879679987207,None,383.2994047999382,383.8992583998479,383.88288119994104,385.8839266002178,None,1,0.6117736198939383,2.6128787198103964,increament,0.6,5,standard,None,100,,376.79686330026016,None,,,,,m,18,220,fr,r,0,raw,2022-06-07_16h56.31.728,oddball,2022.1.2,59.889707223555476,
0,,,,,0,0,0,0,3,0,3,0,1,0,1,0,,,,,,,,,,,,,,,,,385.90197210013866,None,386.5169632998295,387.1171822999604,387.10066880006343,389.1012082998641,None,1,0.6093882201239467,2.6099425200372934,increament,0.6,5,standard,None,100,,,,,,,,m,18,220,fr,r,0,raw,2022-06-07_16h56.31.728,oddball,2022.1.2,59.889707223555476,
0,,,,,0,0,0,0,3,0,3,0,2,0,2,0,,,,,,,,,,,,,,,,,389.11785810021684,None,389.81845489982516,390.4186280001886,390.40209309989586,392.4027629001066,None,1,0.6081589199602604,2.6088029202073812,increament,0.6,5,standard,None,100,,,,,,,,m,18,220,fr,r,0,raw,2022-06-07_16h56.31.728,oddball,2022.1.2,59.889707223555476,
0,,,,,0,0,0,0,3,0,3,0,3,0,3,0,,,,,,,,,,,,,,,,,392.41914909984916,None,393.06912210024893,393.66998320026323,393.65315250027925,395.6537277000025,None,1,0.6147482199594378,2.615211820229888,increament,0.6,5,standard,None,100,,,,,,,,m,18,220,fr,r,0,raw,2022-06-07_16h56.31.728,oddball,2022.1.2,59.889707223555476,
0,,,,,0,0,0,0,3,0,3,0,4,0,4,0,,,,,,,,,,,,,,,,,395.67033699993044,None,396.32127310009673,396.92122509982437,396.904443600215,398.90549700008705,None,1,0.6104031195864081,2.611554219853133,increament,0.6,5,standard,None,100,,,,,,,,m,18,220,fr,r,0,raw,2022-06-07_16h56.31.728,oddball,2022.1.2,59.889707223555476,
0,,,,,0,0,0,0,3,0,3,0,5,0,5,0,,,,,,,,,,,,,,,,,398.9217583001591,None,399.55523059982806,400.15596139989793,400.1390761998482,402.13981659989804,None,1,0.6138199199922383,2.614556619897485,increament,0.6,5,standard,None,100,,,,,,,,m,18,220,fr,r,0,raw,2022-06-07_16h56.31.728,oddball,2022.1.2,59.889707223555476,
0,,,,,0,0,0,0,3,0,3,0,6,0,6,0,,,,,,,,,,,,,,,,,402.1563558001071,None,402.8234911998734,403.42352289985865,403.40726020000875,405.4073860999197,None,1,0.6101712193340063,2.610257719643414,increament,0.6,5,standard,None,100,,,,,,,,m,18,220,fr,r,0,raw,2022-06-07_16h56.31.728,oddball,2022.1.2,59.889707223555476,
0,,,,,0,0,0,0,3,0,3,0,7,0,7,0,,,,,,,,,,,,,,,,,405.4242556998506,None,406.091677099932,406.69155210023746,406.674755200278,408.6751234000549,j,0,0.6096551194787025,2.609948519617319,increament,0.6,5,standard,None,100,0.23563459981232882,,,,,,,m,18,220,fr,r,0,raw,2022-06-07_16h56.31.728,oddball,2022.1.2,59.889707223555476,
0,,,,,0,0,0,0,3,0,3,0,8,0,8,0,,,,,,,,,,,,,,,,,408.69202610012144,None,409.2590494998731,409.99251940008253,409.9595022001304,411.95984790008515,j,1,0.7246301197446883,2.7248994200490415,increament,0.72,6,oddball,j,120,0.19208610011264682,,,,,,,m,18,220,fr,r,0,raw,2022-06-07_16h56.31.728,oddball,2022.1.2,59.889707223555476,
0,,,,,0,0,0,0,3,0,3,0,9,0,9,0,,,,,,,,,,,,,,,,,411.97666510008276,None,412.710271100048,413.31026320019737,413.29413729999214,415.29467129986733,None,1,0.6124712200835347,2.613013520371169,increament,0.6,5,standard,None,100,,,,,,,,m,18,220,fr,r,0,raw,2022-06-07_16h56.31.728,oddball,2022.1.2,59.889707223555476,
0,,,,,0,0,0,0,3,0,3,0,10,0,10,0,,,,,,,,,,,,,,,,,415.3116295998916,None,415.9454613002017,416.5451095998287,416.52837730012834,418.52902759984136,None,1,0.6095049194991589,2.610130219720304,increament,0.6,5,standard,None,100,,,,,,,,m,18,220,fr,r,0,raw,2022-06-07_16h56.31.728,oddball,2022.1.2,59.889707223555476,
0,,,,,0,0,0,0,3,0,3,0,11,0,11,0,,,,,,,,,,,,,,,,,418.5459420001134,None,419.12951500015333,419.7298665000126,419.71305629983544,421.7135100001469,None,1,0.6118262195959687,2.6122267195023596,increament,0.6,5,standard,None,100,,,,,,,,m,18,220,fr,r,0,raw,2022-06-07_16h56.31.728,oddball,2022.1.2,59.889707223555476,
0,,,,,0,0,0,0,3,0,3,0,12,0,12,0,,,,,,,,,,,,,,,,,421.73033160017803,None,422.3476797998883,422.94742670003325,422.9306855001487,424.9316026000306,None,1,0.6091744201257825,2.610113319940865,increament,0.6,5,standard,None,100,,,,,,,,m,18,220,fr,r,0,raw,2022-06-07_16h56.31.728,oddball,2022.1.2,59.889707223555476,
0,,,,,0,0,0,0,3,0,3,0,13,0,13,0,,,,,,,,,,,,,,,,,424.9484827001579,None,425.69867150019854,426.2985395002179,426.28199629997835,428.2833806001581,None,1,0.6125585199333727,2.614062719978392,increament,0.6,5,standard,None,100,,,,,,,,m,18,220,fr,r,0,raw,2022-06-07_16h56.31.728,oddball,2022.1.2,59.889707223555476,
0,,,,,0,0,0,0,3,0,3,0,14,0,14,0,,,,,,,,,,,,,,,,,428.29974520020187,None,428.96691890014336,429.8166521000676,429.7838961998932,431.78410129994154,j,1,0.8452051198109984,2.845295019913465,increament,0.84,7,oddball,j,140,1.2631633002310991,,,,,,,m,18,220,fr,r,0,raw,2022-06-07_16h56.31.728,oddball,2022.1.2,59.889707223555476,
0,,,,,0,0,0,0,3,0,3,0,15,0,15,0,,,,,,,,,,,,,,,,,431.80104599986225,None,432.45109370024875,433.05149820027873,433.034874800127,435.03527340013534,None,1,0.6130203199572861,2.613369020167738,increament,0.6,5,standard,None,100,,,,,,,,m,18,220,fr,r,0,raw,2022-06-07_16h56.31.728,oddball,2022.1.2,59.889707223555476,
0,,,,,0,0,0,0,3,0,3,0,16,0,16,0,,,,,,,,,,,,,,,,,435.05211819987744,None,435.68565180012956,436.285833099857,436.2696946002543,438.270429499913,None,1,0.6129325199872255,2.6136690201237798,increament,0.6,5,standard,None,100,,,,,,,,m,18,220,fr,r,0,raw,2022-06-07_16h56.31.728,oddball,2022.1.2,59.889707223555476,
0,,,,,0,0,0,0,3,0,3,0,17,0,17,0,,,,,,,,,,,,,,,,,438.2870575999841,None,438.87030859990045,439.4706938001327,439.45397800020874,441.4549428001046,None,1,0.6129187201149762,2.613934219814837,increament,0.6,5,standard,None,100,,,,,,,,m,18,220,fr,r,0,raw,2022-06-07_16h56.31.728,oddball,2022.1.2,59.889707223555476,
0,,,,,0,0,0,0,3,0,3,0,18,0,18,0,,,,,,,,,,,,,,,,,441.47178220003843,None,442.25474569993094,442.85510639986023,442.83891239995137,444.83930339990184,None,1,0.6149839195422828,2.6153579195961356,increament,0.6,5,standard,None,100,,,,,,,,m,18,220,fr,r,0,raw,2022-06-07_16h56.31.728,oddball,2022.1.2,59.889707223555476,
0,,,,,0,0,0,0,3,0,3,0,19,0,19,0,,,,,,,,,,,,,,,,,444.8560565998778,None,445.5395245999098,446.1397635000758,446.1228832998313,448.1239269999787,None,1,0.6134147201664746,2.6145677198655903,increament,0.6,5,standard,None,100,,,,,,,,m,18,220,fr,r,0,raw,2022-06-07_16h56.31.728,oddball,2022.1.2,59.889707223555476,
0,,,,,0,0,0,0,3,0,3,0,20,0,20,0,,,,,,,,,,,,,,,,,448.14050800027326,None,448.8575834999792,449.45722620002925,449.44072830025107,451.44188609998673,None,1,0.6092053200118244,2.6104679200798273,increament,0.6,5,standard,None,100,,,,,,,,m,18,220,fr,r,0,raw,2022-06-07_16h56.31.728,oddball,2022.1.2,59.889707223555476,
0,,,,,0,0,0,0,3,0,3,0,21,0,21,0,,,,,,,,,,,,,,,,,451.4589742999524,None,452.0916738999076,453.0588306998834,453.02577940002084,455.0261828000657,j,1,0.9641587203368545,2.964487819932401,increament,0.96,8,oddball,j,160,0.6215349999256432,,,,,,,m,18,220,fr,r,0,raw,2022-06-07_16h56.31.728,oddball,2022.1.2,59.889707223555476,
0,,,,,0,0,0,0,3,0,3,0,22,0,22,0,,,,,,,,,,,,,,,,,455.0430164998397,None,455.74341560015455,456.3433014000766,456.3269151998684,458.3275993000716,None,1,0.6112481197342277,2.6119014197029173,increament,0.6,5,standard,None,100,,,,,,,,m,18,220,fr,r,0,raw,2022-06-07_16h56.31.728,oddball,2022.1.2,59.889707223555476,
0,,,,,0,0,0,0,3,0,3,0,23,0,23,0,,,,,,,,,,,,,,,,,458.3441925002262,None,459.1444816002622,459.7448979001492,459.7283752001822,461.7289558001794,j,0,0.6127063194289804,2.613229819573462,increament,0.6,5,standard,None,100,0.4631639001891017,,,,,,,m,18,220,fr,r,0,raw,2022-06-07_16h56.31.728,oddball,2022.1.2,59.889707223555476,
0,,,,,0,0,0,0,3,0,3,0,24,0,24,0,,,,,,,,,,,,,,,,,461.7457317998633,None,462.27913809986785,462.8792039998807,462.8625615001656,464.8635693001561,None,1,0.6116087203845382,2.6126253199763596,increament,0.6,5,standard,None,100,,,,,,,,m,18,220,fr,r,0,raw,2022-06-07_16h56.31.728,oddball,2022.1.2,59.889707223555476,
0,,,,,0,0,0,0,3,0,3,0,25,0,25,0,,,,,,,,,,,,,,,,,464.8801267002709,None,465.59698079992086,466.19736809981987,466.1807054001838,468.1810377999209,None,1,0.6124078198336065,2.6126957195810974,increament,0.6,5,standard,None,100,,,,,,,,m,18,220,fr,r,0,raw,2022-06-07_16h56.31.728,oddball,2022.1.2,59.889707223555476,
0,,,,,0,0,0,0,3,0,3,0,26,0,26,0,,,,,,,,,,,,,,,,,468.1982974000275,None,468.9150107000023,469.51545030018315,469.49848349997774,471.499528599903,None,1,0.6122874203138053,2.613424520008266,increament,0.6,5,standard,None,100,,,,,,,,m,18,220,fr,r,0,raw,2022-06-07_16h56.31.728,oddball,2022.1.2,59.889707223555476,
0,,,,,0,0,0,0,3,0,3,0,27,0,27,0,,,,,,,,,,,,,,,,,471.51603259984404,None,472.1494562001899,472.7496664999053,472.7334867999889,474.733639200218,None,1,0.6115357200615108,2.611570820212364,increament,0.6,5,standard,None,100,,,,,,,,m,18,220,fr,r,0,raw,2022-06-07_16h56.31.728,oddball,2022.1.2,59.889707223555476,
0,,,,,0,0,0,0,3,0,3,0,28,0,28,0,,,,,,,,,,,,,,,,,474.75038950005546,None,475.5672066002153,476.1676198001951,476.1509807999246,478.15161629999056,None,1,0.6139800203964114,2.6146146203391254,increament,0.6,5,standard,None,100,,,,,,,,m,18,220,fr,r,0,raw,2022-06-07_16h56.31.728,oddball,2022.1.2,59.889707223555476,
0,,,,,0,0,0,0,3,0,3,0,29,0,29,0,,,,,,,,,,,,,,,,,478.1686086002737,None,478.78522370010614,479.3856722000055,479.3692855001427,481.36977929994464,None,1,0.61243902053684,2.6128931203857064,increament,0.6,5,standard,None,100,,,,,,,,m,18,220,fr,r,0,raw,2022-06-07_16h56.31.728,oddball,2022.1.2,59.889707223555476,
0,,,,,0,0,0,0,4,0,4,0,0,0,0,0,,,,,,,,,,,,,,,483.2767199999653,None,493.34072590013966,None,493.9911116999574,494.59125370020047,494.57449459983036,496.57561030006036,None,1,0.6119599197991192,2.613230919931084,decreament,0.6,1,standard,None,100,,481.3868629001081,None,,,,,m,18,220,fr,r,0,raw,2022-06-07_16h56.31.728,oddball,2022.1.2,59.889707223555476,
0,,,,,0,0,0,0,4,0,4,0,1,0,1,0,,,,,,,,,,,,,,,,,496.5922087999061,None,497.27559980005026,497.8763633999042,497.85912400018424,499.8603572002612,None,1,0.6090651201084256,2.6103762201964855,decreament,0.6,1,standard,None,100,,,,,,,,m,18,220,fr,r,0,raw,2022-06-07_16h56.31.728,oddball,2022.1.2,59.889707223555476,
0,,,,,0,0,0,0,4,0,4,0,2,0,2,0,,,,,,,,,,,,,,,,,499.87744250008836,None,500.5604876000434,501.16040920000523,501.1438056998886,503.1447271001525,None,1,0.6122668199241161,2.6132677202112973,decreament,0.6,1,standard,None,100,,,,,,,,m,18,220,fr,r,0,raw,2022-06-07_16h56.31.728,oddball,2022.1.2,59.889707223555476,
0,,,,,0,0,0,0,4,0,4,0,3,0,3,0,,,,,,,,,,,,,,,,,503.16194899985567,None,503.89496499998495,504.4952501002699,504.47836469998583,506.47939130011946,None,1,0.6106106201186776,2.6117291199043393,decreament,0.6,1,standard,None,100,,,,,,,,m,18,220,fr,r,0,raw,2022-06-07_16h56.31.728,oddball,2022.1.2,59.889707223555476,
0,,,,,0,0,0,0,4,0,4,0,4,0,4,0,,,,,,,,,,,,,,,,,506.49653809983283,None,507.1627568001859,507.7631136002019,507.74630729993805,509.74678840022534,None,1,0.6133729200810194,2.613827320281416,decreament,0.6,1,standard,None,100,,,,,,,,m,18,220,fr,r,0,raw,2022-06-07_16h56.31.728,oddball,2022.1.2,59.889707223555476,
0,,,,,0,0,0,0,4,0,4,0,5,0,5,0,,,,,,,,,,,,,,,,,509.7633974002674,None,510.28081890009344,510.8808475001715,510.86419459991157,512.865209300071,None,1,0.6109487200155854,2.6120184203609824,decreament,0.6,1,standard,None,100,,,,,,,,m,18,220,fr,r,0,raw,2022-06-07_16h56.31.728,oddball,2022.1.2,59.889707223555476,
0,,,,,0,0,0,0,4,0,4,0,6,0,6,0,,,,,,,,,,,,,,,,,512.8815998998471,None,513.4151560999453,514.0149133000523,513.9984407001175,515.9993243999779,None,1,0.6132911196909845,2.614219419658184,decreament,0.6,1,standard,None,100,,,,,,,,m,18,220,fr,r,0,raw,2022-06-07_16h56.31.728,oddball,2022.1.2,59.889707223555476,
0,,,,,0,0,0,0,4,0,4,0,7,0,7,0,,,,,,,,,,,,,,,,,516.0163559000939,None,516.6162383998744,517.2166952001862,517.1999248000793,519.2006235001609,None,1,0.6085142199881375,2.609087519813329,decreament,0.6,1,standard,None,100,,,,,,,,m,18,220,fr,r,0,raw,2022-06-07_16h56.31.728,oddball,2022.1.2,59.889707223555476,
0,,,,,0,0,0,0,4,0,4,0,8,0,8,0,,,,,,,,,,,,,,,,,519.2175177000463,None,519.934164899867,520.5346679999493,520.5178911001422,522.5184965999797,None,1,0.6134064197540283,2.613988919649273,decreament,0.6,1,standard,None,100,,,,,,,,m,18,220,fr,r,0,raw,2022-06-07_16h56.31.728,oddball,2022.1.2,59.889707223555476,
0,,,,,0,0,0,0,4,0,4,0,9,0,9,0,,,,,,,,,,,,,,,,,522.535375600215,None,523.1855029999278,523.7860583998263,523.7690131999552,525.7699314001948,None,1,0.6110121197998524,2.6119549199938774,decreament,0.6,1,standard,None,100,,,,,,,,m,18,220,fr,r,0,raw,2022-06-07_16h56.31.728,oddball,2022.1.2,59.889707223555476,
0,,,,,0,0,0,0,4,0,4,0,10,0,10,0,,,,,,,,,,,,,,,,,525.7866742000915,None,526.3866242002696,526.9871110999957,526.9706688001752,528.9710150002502,None,1,0.6120243198238313,2.6122956196777523,decreament,0.6,1,standard,None,100,,,,,,,,m,18,220,fr,r,0,raw,2022-06-07_16h56.31.728,oddball,2022.1.2,59.889707223555476,
0,,,,,0,0,0,0,4,0,4,0,11,0,11,0,,,,,,,,,,,,,,,,,528.9875902999192,None,529.6710820002481,530.2714722999372,530.2547773998231,532.2556936000474,None,1,0.6135537200607359,2.6145086199976504,decreament,0.6,1,standard,None,100,,,,,,,,m,18,220,fr,r,0,raw,2022-06-07_16h56.31.728,oddball,2022.1.2,59.889707223555476,
0,,,,,0,0,0,0,4,0,4,0,12,0,12,0,,,,,,,,,,,,,,,,,532.2725881002843,None,533.0393682001159,533.6398296002299,533.6227914998308,535.6237306999974,None,1,0.6117418203502893,2.612745020072907,decreament,0.6,1,standard,None,100,,,,,,,,m,18,220,fr,r,0,raw,2022-06-07_16h56.31.728,oddball,2022.1.2,59.889707223555476,
0,,,,,0,0,0,0,4,0,4,0,13,0,13,0,,,,,,,,,,,,,,,,,535.6408428000286,None,536.2405999000184,536.4904493000358,536.45727299992,538.4577915999107,j,1,0.2432995201088488,2.2437861198559403,decreament,0.24,2,oddball,j,40,0.7343660001643002,,,,,,,m,18,220,fr,r,0,raw,2022-06-07_16h56.31.728,oddball,2022.1.2,59.889707223555476,
0,,,,,0,0,0,0,4,0,4,0,14,0,14,0,,,,,,,,,,,,,,,,,538.4746516002342,None,539.1417853999883,539.7420625002123,539.7252092999406,541.7258544000797,j,0,0.6113957203924656,2.6120240204036236,decreament,0.6,1,standard,None,100,0.5050946003757417,,,,,,,m,18,220,fr,r,0,raw,2022-06-07_16h56.31.728,oddball,2022.1.2,59.889707223555476,
0,,,,,0,0,0,0,4,0,4,0,15,0,15,0,,,,,,,,,,,,,,,,,541.742639800068,None,542.2926630000584,542.8928737002425,542.8760597999208,544.8770190998912,None,1,0.6113160201348364,2.612325320020318,decreament,0.6,1,standard,None,100,,,,,,,,m,18,220,fr,r,0,raw,2022-06-07_16h56.31.728,oddball,2022.1.2,59.889707223555476,
0,,,,,0,0,0,0,4,0,4,0,16,0,16,0,,,,,,,,,,,,,,,,,544.8939044000581,None,545.5111926002428,546.1108202999458,546.0941467001103,548.094966399949,None,1,0.6080012200400233,2.6088529201224446,decreament,0.6,1,standard,None,100,,,,,,,,m,18,220,fr,r,0,raw,2022-06-07_16h56.31.728,oddball,2022.1.2,59.889707223555476,
0,,,,,0,0,0,0,4,0,4,0,17,0,17,0,,,,,,,,,,,,,,,,,548.1114912000485,None,548.7617176002823,549.3620905000716,549.3457692000084,551.346247700043,None,1,0.6138827204704285,2.6143466201610863,decreament,0.6,1,standard,None,100,,,,,,,,m,18,220,fr,r,0,raw,2022-06-07_16h56.31.728,oddball,2022.1.2,59.889707223555476,
0,,,,,0,0,0,0,4,0,4,0,18,0,18,0,,,,,,,,,,,,,,,,,551.3645358998328,None,552.096418700181,552.5801089000888,552.5473481998779,554.5473222001456,None,0,0.4814941198565066,2.48138342006132,decreament,0.48,4,oddball,j,80,,,,,,,,m,18,220,fr,r,0,raw,2022-06-07_16h56.31.728,oddball,2022.1.2,59.889707223555476,
0,,,,,0,0,0,0,4,0,4,0,19,0,19,0,,,,,,,,,,,,,,,,,554.563965999987,None,555.1980934999883,555.7976068002172,555.7811892000027,557.7819543001242,None,1,0.6110426201485097,2.6118533201515675,decreament,0.6,1,standard,None,100,,,,,,,,m,18,220,fr,r,0,raw,2022-06-07_16h56.31.728,oddball,2022.1.2,59.889707223555476,
0,,,,,0,0,0,0,4,0,4,0,20,0,20,0,,,,,,,,,,,,,,,,,557.7986639998853,None,558.3983920002356,558.9987864000723,558.9823565999977,None,None,1,0.5992261203937232,2.5995538202114403,decreament,0.6,1,standard,None,100,,,,,,,,m,18,220,fr,r,0,raw,2022-06-07_16h56.31.728,oddball,2022.1.2,59.889707223555476,
0,,,,,0,0,0,0,4,0,4,0,21,0,21,0,,,,,,,,,,,,,,,,,560.9832664998248,None,561.6836182000116,562.2835166002624,562.2670843000524,564.2679069000296,None,1,0.6120273196138442,2.6128886197693646,decreament,0.6,1,standard,None,100,,,,,,,,m,18,220,fr,r,0,raw,2022-06-07_16h56.31.728,oddball,2022.1.2,59.889707223555476,
0,,,,,0,0,0,0,4,0,4,0,22,0,22,0,,,,,,,,,,,,,,,,,564.2845143000595,None,564.8512840000913,565.4514750000089,565.4348988998681,567.4355180002749,None,1,0.6122554200701416,2.612864420283586,decreament,0.6,1,standard,None,100,,,,,,,,m,18,220,fr,r,0,raw,2022-06-07_16h56.31.728,oddball,2022.1.2,59.889707223555476,
0,,,,,0,0,0,0,4,0,4,0,23,0,23,0,,,,,,,,,,,,,,,,,567.452224300243,None,567.9859794001095,568.3526917002164,568.319195299875,570.3204924999736,j,1,0.3625831203535199,2.3638817202299833,decreament,0.36,3,oddball,j,60,0.9122571004554629,,,,,,,m,18,220,fr,r,0,raw,2022-06-07_16h56.31.728,oddball,2022.1.2,59.889707223555476,
0,,,,,0,0,0,0,4,0,4,0,24,0,24,0,,,,,,,,,,,,,,,,,570.3367715999484,None,571.0371622000821,571.6371728000231,571.620796199888,573.6214347002096,None,1,0.6097112195566297,2.610417219810188,decreament,0.6,1,standard,None,100,,,,,,,,m,18,220,fr,r,0,raw,2022-06-07_16h56.31.728,oddball,2022.1.2,59.889707223555476,
0,,,,,0,0,0,0,4,0,4,0,25,0,25,0,,,,,,,,,,,,,,,,,573.6380882002413,None,574.2546390001662,574.8548071999103,574.8384934999049,576.8390859002247,None,1,0.6135577200911939,2.614054420031607,decreament,0.6,1,standard,None,100,,,,,,,,m,18,220,fr,r,0,raw,2022-06-07_16h56.31.728,oddball,2022.1.2,59.889707223555476,
0,,,,,0,0,0,0,4,0,4,0,26,0,26,0,,,,,,,,,,,,,,,,,576.8559766001999,None,577.5060474001803,578.1063792998902,578.089610400144,580.0903761000372,None,1,0.6125663202255964,2.6133281202055514,decreament,0.6,1,standard,None,100,,,,,,,,m,18,220,fr,r,0,raw,2022-06-07_16h56.31.728,oddball,2022.1.2,59.889707223555476,
0,,,,,0,0,0,0,4,0,4,0,27,0,27,0,,,,,,,,,,,,,,,,,580.1071136002429,None,580.7905732998624,581.3908736999147,581.3743632002734,583.3748174998909,None,1,0.6086227199994028,2.609090920072049,decreament,0.6,1,standard,None,100,,,,,,,,m,18,220,fr,r,0,raw,2022-06-07_16h56.31.728,oddball,2022.1.2,59.889707223555476,
0,,,,,0,0,0,0,4,0,4,0,28,0,28,0,,,,,,,,,,,,,,,,,583.3916058000177,None,584.1416092002764,584.7419928000309,584.7256076000631,586.7260627001524,None,1,0.6144629204645753,2.6148989205248654,decreament,0.6,1,standard,None,100,,,,,,,,m,18,220,fr,r,0,raw,2022-06-07_16h56.31.728,oddball,2022.1.2,59.889707223555476,
0,,,,,0,0,0,0,4,0,4,0,29,0,29,0,,,,,,,,,,,,,,,,,586.7427336000837,None,587.4264974002726,588.0266022002324,588.010056800209,590.011252600234,None,1,0.6123476200737059,2.6136327204294503,decreament,0.6,1,standard,None,100,,,,,,,,m,18,220,fr,r,0,raw,2022-06-07_16h56.31.728,oddball,2022.1.2,59.889707223555476,
0,,,,,0,0,0,0,5,0,5,0,0,0,0,0,,,,,,,,,,,,,,,591.0130360000767,None,591.8949791998602,None,592.4450623998418,593.0452089998871,593.0286510000005,595.0292945001274,None,1,0.6103505198843777,2.6110124196857214,increament,0.6,5,standard,None,100,,590.0278099998832,None,,,,,m,18,220,fr,r,0,raw,2022-06-07_16h56.31.728,oddball,2022.1.2,59.889707223555476,
0,,,,,0,0,0,0,5,0,5,0,1,0,1,0,,,,,,,,,,,,,,,,,595.0461964998394,None,595.7133971001022,596.3132837000303,596.2966626998968,598.2971950001083,None,1,0.612297419924289,2.61277562007308,increament,0.6,5,standard,None,100,,,,,,,,m,18,220,fr,r,0,raw,2022-06-07_16h56.31.728,oddball,2022.1.2,59.889707223555476,
0,,,,,0,0,0,0,5,0,5,0,2,0,2,0,,,,,,,,,,,,,,,,,598.3140970999375,None,598.9309307001531,599.5309190000407,599.5145739000291,601.5153934000991,None,1,0.611552519723773,2.612415919546038,increament,0.6,5,standard,None,100,,,,,,,,m,18,220,fr,r,0,raw,2022-06-07_16h56.31.728,oddball,2022.1.2,59.889707223555476,
0,,,,,0,0,0,0,5,0,5,0,3,0,3,0,,,,,,,,,,,,,,,,,601.5319638000801,None,602.3659828002565,602.9654295998625,602.948931899853,604.9502669000067,None,1,0.6122454199939966,2.6136717200279236,increament,0.6,5,standard,None,100,,,,,,,,m,18,220,fr,r,0,raw,2022-06-07_16h56.31.728,oddball,2022.1.2,59.889707223555476,
0,,,,,0,0,0,0,5,0,5,0,4,0,4,0,,,,,,,,,,,,,,,,,604.9663721998222,None,605.6668161000125,606.2668023002334,606.2504850002006,608.2512560999021,None,1,0.6108839199878275,2.6117048203013837,increament,0.6,5,standard,None,100,,,,,,,,m,18,220,fr,r,0,raw,2022-06-07_16h56.31.728,oddball,2022.1.2,59.889707223555476,
0,,,,,0,0,0,0,5,0,5,0,5,0,5,0,,,,,,,,,,,,,,,,,608.2679377999157,None,608.9182334002107,609.5179567998275,609.5014780000784,611.5022078999318,None,1,0.6123647205531597,2.613087920472026,increament,0.6,5,standard,None,100,,,,,,,,m,18,220,fr,r,0,raw,2022-06-07_16h56.31.728,oddball,2022.1.2,59.889707223555476,
0,,,,,0,0,0,0,5,0,5,0,6,0,6,0,,,,,,,,,,,,,,,,,611.5191538999788,None,612.2692022002302,612.8693126998842,612.8525188998319,614.8532850001939,None,1,0.6122155198827386,2.612995120231062,increament,0.6,5,standard,None,100,,,,,,,,m,18,220,fr,r,0,raw,2022-06-07_16h56.31.728,oddball,2022.1.2,59.889707223555476,
0,,,,,0,0,0,0,5,0,5,0,7,0,7,0,,,,,,,,,,,,,,,,,614.8701248001307,None,615.4374490999617,616.4041074002162,616.3706735000014,618.37152899988,j,1,0.9616660200990736,2.962508419994265,increament,0.96,8,oddball,j,160,0.01208490040153265,,,,,,,m,18,220,fr,r,0,raw,2022-06-07_16h56.31.728,oddball,2022.1.2,59.889707223555476,
0,,,,,0,0,0,0,5,0,5,0,8,0,8,0,,,,,,,,,,,,,,,,,618.3880675002001,None,619.1389488000423,619.7387156998739,619.7220025002025,621.7228882000782,j,0,0.609276819974184,2.6102479198016226,increament,0.6,5,standard,None,100,0.9812734997831285,,,,,,,m,18,220,fr,r,0,raw,2022-06-07_16h56.31.728,oddball,2022.1.2,59.889707223555476,
0,,,,,0,0,0,0,5,0,5,0,9,0,9,0,,,,,,,,,,,,,,,,,621.7397163002752,None,622.3231831002049,622.9233794002794,622.9067811998539,624.9072112999856,j,0,0.6103645195253193,2.610721019562334,increament,0.6,5,standard,None,100,0.8348046997562051,,,,,,,m,18,220,fr,r,0,raw,2022-06-07_16h56.31.728,oddball,2022.1.2,59.889707223555476,
0,,,,,0,0,0,0,5,0,5,0,10,0,10,0,,,,,,,,,,,,,,,,,624.9241260001436,None,625.5744441002607,626.1742652002722,626.1578182000667,628.1583918002434,None,1,0.6093737198971212,2.609939919784665,increament,0.6,5,standard,None,100,,,,,,,,m,18,220,fr,r,0,raw,2022-06-07_16h56.31.728,oddball,2022.1.2,59.889707223555476,
0,,,,,0,0,0,0,5,0,5,0,11,0,11,0,,,,,,,,,,,,,,,,,628.1751449001022,None,628.8921675002202,629.4924806002527,629.4758890001103,631.4767976999283,j,0,0.6096006198786199,2.610547420103103,increament,0.6,5,standard,None,100,0.42662280006334186,,,,,,,m,18,220,fr,r,0,raw,2022-06-07_16h56.31.728,oddball,2022.1.2,59.889707223555476,
0,,,,,0,0,0,0,5,0,5,0,12,0,12,0,,,,,,,,,,,,,,,,,631.4932579998858,None,632.0604874002747,632.6601460999809,632.6436804998666,634.6442505000159,None,1,0.6123401201330125,2.6128875203430653,increament,0.6,5,standard,None,100,,,,,,,,m,18,220,fr,r,0,raw,2022-06-07_16h56.31.728,oddball,2022.1.2,59.889707223555476,
0,,,,,0,0,0,0,5,0,5,0,13,0,13,0,,,,,,,,,,,,,,,,,634.6608433001675,None,635.2111186999828,635.8116502002813,635.7948425002396,637.7955550998449,None,1,0.612881219945848,2.61360481986776,increament,0.6,5,standard,None,100,,,,,,,,m,18,220,fr,r,0,raw,2022-06-07_16h56.31.728,oddball,2022.1.2,59.889707223555476,
0,,,,,0,0,0,0,5,0,5,0,14,0,14,0,,,,,,,,,,,,,,,,,637.8121217000298,None,638.5124890999869,639.1127897999249,639.0959335002117,641.0970709002577,None,1,0.6126543199643493,2.613828720059246,increament,0.6,5,standard,None,100,,,,,,,,m,18,220,fr,r,0,raw,2022-06-07_16h56.31.728,oddball,2022.1.2,59.889707223555476,
0,,,,,0,0,0,0,5,0,5,0,15,0,15,0,,,,,,,,,,,,,,,,,641.1136274002492,None,641.7302407999523,642.3306725001894,642.3140932000242,644.3148615998216,None,1,0.6122225201688707,2.6129955197684467,increament,0.6,5,standard,None,100,,,,,,,,m,18,220,fr,r,0,raw,2022-06-07_16h56.31.728,oddball,2022.1.2,59.889707223555476,
0,,,,,0,0,0,0,5,0,5,0,16,0,16,0,,,,,,,,,,,,,,,,,644.3312182002701,None,644.9649863000959,645.5650837002322,645.5484356000088,647.5494176000357,j,0,0.6133624198846519,2.614421419799328,increament,0.6,5,standard,None,100,0.35383239993825555,,,,,,,m,18,220,fr,r,0,raw,2022-06-07_16h56.31.728,oddball,2022.1.2,59.889707223555476,
0,,,,,0,0,0,0,5,0,5,0,17,0,17,0,,,,,,,,,,,,,,,,,647.5657852999866,None,648.299481399823,648.8999653002247,648.8831436000764,650.8838780000806,None,1,0.61249472014606,2.6132281203754246,increament,0.6,5,standard,None,100,,,,,,,,m,18,220,fr,r,0,raw,2022-06-07_16h56.31.728,oddball,2022.1.2,59.889707223555476,
0,,,,,0,0,0,0,5,0,5,0,18,0,18,0,,,,,,,,,,,,,,,,,650.9008916001767,None,651.5675447001122,652.1678161998279,652.1514551001601,654.1520572998561,None,1,0.6117813200689852,2.612355920020491,increament,0.6,5,standard,None,100,,,,,,,,m,18,220,fr,r,0,raw,2022-06-07_16h56.31.728,oddball,2022.1.2,59.889707223555476,
0,,,,,0,0,0,0,5,0,5,0,19,0,19,0,,,,,,,,,,,,,,,,,654.1691864002496,None,654.752294300124,655.3520836001262,655.3355763000436,657.3362439000048,None,1,0.6104057198390365,2.611051819752902,increament,0.6,5,standard,None,100,,,,,,,,m,18,220,fr,r,0,raw,2022-06-07_16h56.31.728,oddball,2022.1.2,59.889707223555476,
0,,,,,0,0,0,0,5,0,5,0,20,0,20,0,,,,,,,,,,,,,,,,,657.3529305001721,None,657.886685800273,658.4866067999974,658.4699276001193,660.4707380002365,None,1,0.6091347197070718,2.6099770199507475,increament,0.6,5,standard,None,100,,,,,,,,m,18,220,fr,r,0,raw,2022-06-07_16h56.31.728,oddball,2022.1.2,59.889707223555476,
0,,,,,0,0,0,0,5,0,5,0,21,0,21,0,,,,,,,,,,,,,,,,,660.487361300271,None,661.1709345001727,661.9051529001445,661.8715017000213,663.8721642000601,None,0,0.7301633199676871,2.7308326200582087,increament,0.72,6,oddball,j,120,,,,,,,,m,18,220,fr,r,0,raw,2022-06-07_16h56.31.728,oddball,2022.1.2,59.889707223555476,
0,,,,,0,0,0,0,5,0,5,0,22,0,22,0,,,,,,,,,,,,,,,,,663.8890736000612,None,664.6891564000398,665.289091099985,665.2727383999154,667.2734317001887,None,1,0.6128353197127581,2.6135435197502375,increament,0.6,5,standard,None,100,,,,,,,,m,18,220,fr,r,0,raw,2022-06-07_16h56.31.728,oddball,2022.1.2,59.889707223555476,
0,,,,,0,0,0,0,5,0,5,0,23,0,23,0,,,,,,,,,,,,,,,,,667.2900204998441,None,667.9403264001012,668.5405969000421,668.52370360028,670.5244649001397,None,1,0.6133688199333847,2.6141450200229883,increament,0.6,5,standard,None,100,,,,,,,,m,18,220,fr,r,0,raw,2022-06-07_16h56.31.728,oddball,2022.1.2,59.889707223555476,
0,,,,,0,0,0,0,5,0,5,0,24,0,24,0,,,,,,,,,,,,,,,,,670.5414916002192,None,671.1915947999805,671.7917722999118,671.7750611002557,673.7758235000074,None,1,0.6121054203249514,2.6128339199349284,increament,0.6,5,standard,None,100,,,,,,,,m,18,220,fr,r,0,raw,2022-06-07_16h56.31.728,oddball,2022.1.2,59.889707223555476,
0,,,,,0,0,0,0,5,0,5,0,25,0,25,0,,,,,,,,,,,,,,,,,673.7927541998215,None,674.3762391000055,674.9760751002468,674.9596091001295,676.9602502002381,j,0,0.6110548200085759,2.6117242202162743,increament,0.6,5,standard,None,100,0.3659317004494369,,,,,,,m,18,220,fr,r,0,raw,2022-06-07_16h56.31.728,oddball,2022.1.2,59.889707223555476,
0,,,,,0,0,0,0,5,0,5,0,26,0,26,0,,,,,,,,,,,,,,,,,676.9774564001709,None,677.6604797998443,678.5109198000282,678.4780172002502,680.4785078000277,None,0,0.8468690202571452,2.8473205203190446,increament,0.84,7,oddball,j,140,,,,,,,,m,18,220,fr,r,0,raw,2022-06-07_16h56.31.728,oddball,2022.1.2,59.889707223555476,
0,,,,,0,0,0,0,5,0,5,0,27,0,27,0,,,,,,,,,,,,,,,,,680.4950733999722,None,681.1288808002137,681.729164400138,681.7125862999819,683.7125186999328,None,1,0.6096546198241413,2.609485019929707,increament,0.6,5,standard,None,100,,,,,,,,m,18,220,fr,r,0,raw,2022-06-07_16h56.31.728,oddball,2022.1.2,59.889707223555476,
0,,,,,0,0,0,0,5,0,5,0,28,0,28,0,,,,,,,,,,,,,,,,,683.7291635000147,None,684.3965398999862,684.9965284001082,684.980228499975,686.9807047001086,None,1,0.6129644205793738,2.6134390202350914,increament,0.6,5,standard,None,100,,,,,,,,m,18,220,fr,r,0,raw,2022-06-07_16h56.31.728,oddball,2022.1.2,59.889707223555476,
0,,,,,0,0,0,0,5,0,5,0,29,0,29,0,,,,,,,,,,,,,,,,,686.9976518000476,None,687.7481525000185,688.3480489999056,688.3312253002077,690.3322216998786,None,1,0.6108276196755469,2.6119033196009696,increament,0.6,5,standard,None,100,,,,,,,,m,18,220,fr,r,0,raw,2022-06-07_16h56.31.728,oddball,2022.1.2,59.889707223555476,
0,,,,,0,0,0,0,6,0,6,0,0,0,0,0,,,,,,,,,,,,,,,691.7395701999776,None,693.9333926001564,None,694.6339378999546,695.2335512000136,695.2169160000049,697.2183829001151,None,1,0.6080325203947723,2.609605320263654,decreament,0.6,1,standard,None,100,,690.3499520998448,None,,,,,m,18,220,fr,r,0,raw,2022-06-07_16h56.31.728,oddball,2022.1.2,59.889707223555476,
0,,,,,0,0,0,0,6,0,6,0,1,0,1,0,,,,,,,,,,,,,,,,,697.2348954998888,None,698.0352026000619,698.6351928999647,698.6184253999963,700.6193741001189,None,1,0.6124538201838732,2.613420220091939,decreament,0.6,1,standard,None,100,,,,,,,,m,18,220,fr,r,0,raw,2022-06-07_16h56.31.728,oddball,2022.1.2,59.889707223555476,
0,,,,,0,0,0,0,6,0,6,0,2,0,2,0,,,,,,,,,,,,,,,,,700.6360712000169,None,701.2529854001477,701.8529634000733,701.836499299854,703.8371179001406,None,1,0.6122066196985543,2.6127877198159695,decreament,0.6,1,standard,None,100,,,,,,,,m,18,220,fr,r,0,raw,2022-06-07_16h56.31.728,oddball,2022.1.2,59.889707223555476,
0,,,,,0,0,0,0,6,0,6,0,3,0,3,0,,,,,,,,,,,,,,,,,703.8538310001604,None,704.5040329000913,705.1042967000976,705.0876943999901,707.0886853998527,None,1,0.6141018201597035,2.6151418201625347,decreament,0.6,1,standard,None,100,,,,,,,,m,18,220,fr,r,0,raw,2022-06-07_16h56.31.728,oddball,2022.1.2,59.889707223555476,
0,,,,,0,0,0,0,6,0,6,0,4,0,4,0,,,,,,,,,,,,,,,,,707.1054948000237,None,707.7721492000856,708.3722977000289,708.3556734002195,710.3564685001038,None,1,0.6114013199694455,2.6122228195890784,decreament,0.6,1,standard,None,100,,,,,,,,m,18,220,fr,r,0,raw,2022-06-07_16h56.31.728,oddball,2022.1.2,59.889707223555476,
0,,,,,0,0,0,0,6,0,6,0,5,0,5,0,,,,,,,,,,,,,,,,,710.3730462002568,None,711.173397900071,711.7735239001922,711.7572261001915,713.7577908998355,None,1,0.6116577200591564,2.612199420109391,decreament,0.6,1,standard,None,100,,,,,,,,m,18,220,fr,r,0,raw,2022-06-07_16h56.31.728,oddball,2022.1.2,59.889707223555476,
0,,,,,0,0,0,0,6,0,6,0,6,0,6,0,,,,,,,,,,,,,,,,,713.7745620999485,None,714.3749294001609,714.975016800221,714.9586633001454,716.9592503001913,None,1,0.6123354202136397,2.6128951204009354,decreament,0.6,1,standard,None,100,,,,,,,,m,18,220,fr,r,0,raw,2022-06-07_16h56.31.728,oddball,2022.1.2,59.889707223555476,
0,,,,,0,0,0,0,6,0,6,0,7,0,7,0,,,,,,,,,,,,,,,,,716.9756904998794,None,717.6591109000146,718.2593489000574,718.2426764001139,720.2437237999402,None,1,0.6124734203331172,2.6136717200279236,decreament,0.6,1,standard,None,100,,,,,,,,m,18,220,fr,r,0,raw,2022-06-07_16h56.31.728,oddball,2022.1.2,59.889707223555476,
0,,,,,0,0,0,0,6,0,6,0,8,0,8,0,,,,,,,,,,,,,,,,,720.2599768000655,None,720.8934300001711,721.3772044000216,721.3438646001741,723.344740100205,None,0,0.4796823197975755,2.480556219816208,decreament,0.48,4,oddball,j,80,,,,,,,,m,18,220,fr,r,0,raw,2022-06-07_16h56.31.728,oddball,2022.1.2,59.889707223555476,
0,,,,,0,0,0,0,6,0,6,0,9,0,9,0,,,,,,,,,,,,,,,,,723.361227999907,None,723.9114339002408,724.5118382000364,724.4950537001714,726.4958585998975,None,1,0.6115292198956013,2.61235111951828,decreament,0.6,1,standard,None,100,,,,,,,,m,18,220,fr,r,0,raw,2022-06-07_16h56.31.728,oddball,2022.1.2,59.889707223555476,
0,,,,,0,0,0,0,6,0,6,0,10,0,10,0,,,,,,,,,,,,,,,,,726.5125981001183,None,727.195987700019,727.7965672002174,727.7796920002438,729.7806334998459,None,1,0.6124960202723742,2.613500320352614,decreament,0.6,1,standard,None,100,,,,,,,,m,18,220,fr,r,0,raw,2022-06-07_16h56.31.728,oddball,2022.1.2,59.889707223555476,
0,,,,,0,0,0,0,6,0,6,0,11,0,11,0,,,,,,,,,,,,,,,,,729.7968708002008,None,730.447215499822,731.0473720999435,731.0308754998259,733.0314168999903,None,1,0.6122995195910335,2.6128245196305215,decreament,0.6,1,standard,None,100,,,,,,,,m,18,220,fr,r,0,raw,2022-06-07_16h56.31.728,oddball,2022.1.2,59.889707223555476,
0,,,,,0,0,0,0,6,0,6,0,12,0,12,0,,,,,,,,,,,,,,,,,733.0482681998983,None,733.6986086000688,734.2987533998676,734.2822230998427,736.2830322999507,None,1,0.6107045197859406,2.6116294199600816,decreament,0.6,1,standard,None,100,,,,,,,,m,18,220,fr,r,0,raw,2022-06-07_16h56.31.728,oddball,2022.1.2,59.889707223555476,
0,,,,,0,0,0,0,6,0,6,0,13,0,13,0,,,,,,,,,,,,,,,,,736.299728800077,None,736.9330088002607,737.5332460999489,737.5168834999204,739.5177305000834,None,1,0.6126206195913255,2.6134940199553967,decreament,0.6,1,standard,None,100,,,,,,,,m,18,220,fr,r,0,raw,2022-06-07_16h56.31.728,oddball,2022.1.2,59.889707223555476,
0,,,,,0,0,0,0,6,0,6,0,14,0,14,0,,,,,,,,,,,,,,,,,739.5355068999343,None,740.1176327001303,740.7177622001618,740.7015046998858,742.7020876999013,None,1,0.6126936203800142,2.6132232202216983,decreament,0.6,1,standard,None,100,,,,,,,,m,18,220,fr,r,0,raw,2022-06-07_16h56.31.728,oddball,2022.1.2,59.889707223555476,
0,,,,,0,0,0,0,6,0,6,0,15,0,15,0,,,,,,,,,,,,,,,,,742.7186775002629,None,743.3855230002664,743.9854341000319,743.9687927002087,745.9699646001682,None,1,0.610875719692558,2.612091519869864,decreament,0.6,1,standard,None,100,,,,,,,,m,18,220,fr,r,0,raw,2022-06-07_16h56.31.728,oddball,2022.1.2,59.889707223555476,
0,,,,,0,0,0,0,6,0,6,0,16,0,16,0,,,,,,,,,,,,,,,,,745.9864369998686,None,746.5705678998493,746.9368594000116,746.9035145998932,748.9043235001154,j,1,0.36027941945940256,2.3611053195782006,decreament,0.36,3,oddball,j,60,0.941911700181663,,,,,,,m,18,220,fr,r,0,raw,2022-06-07_16h56.31.728,oddball,2022.1.2,59.889707223555476,
0,,,,,0,0,0,0,6,0,6,0,17,0,17,0,,,,,,,,,,,,,,,,,748.9212561999448,None,749.4544518999755,750.0545987999067,750.0379591998644,752.0388473998755,j,0,0.611919220071286,2.612797620240599,decreament,0.6,1,standard,None,100,0.5607402003370225,,,,,,,m,18,220,fr,r,0,raw,2022-06-07_16h56.31.728,oddball,2022.1.2,59.889707223555476,
0,,,,,0,0,0,0,6,0,6,0,18,0,18,0,,,,,,,,,,,,,,,,,752.0555115998723,None,752.7060807999223,753.3057333002798,753.2889409000054,755.2901249001734,None,1,0.6076558199711144,2.608885819558054,decreament,0.6,1,standard,None,100,,,,,,,,m,18,220,fr,r,0,raw,2022-06-07_16h56.31.728,oddball,2022.1.2,59.889707223555476,
0,,,,,0,0,0,0,6,0,6,0,19,0,19,0,,,,,,,,,,,,,,,,,755.3067835001275,None,755.923386500217,756.5239412002265,756.5073410002515,758.5079296999611,None,1,0.6138500203378499,2.6144140204414725,decreament,0.6,1,standard,None,100,,,,,,,,m,18,220,fr,r,0,raw,2022-06-07_16h56.31.728,oddball,2022.1.2,59.889707223555476,
0,,,,,0,0,0,0,6,0,6,0,20,0,20,0,,,,,,,,,,,,,,,,,758.5248750001192,None,759.1418087002821,759.7419149000198,759.7253588000312,761.7262087999843,None,1,0.6114293201826513,2.6122524198144674,decreament,0.6,1,standard,None,100,,,,,,,,m,18,220,fr,r,0,raw,2022-06-07_16h56.31.728,oddball,2022.1.2,59.889707223555476,
0,,,,,0,0,0,0,6,0,6,0,21,0,21,0,,,,,,,,,,,,,,,,,761.7430949001573,None,762.342699599918,762.9432744998485,762.9266877002083,764.9268537000753,None,1,0.6127941198647022,2.61287131998688,decreament,0.6,1,standard,None,100,,,,,,,,m,18,220,fr,r,0,raw,2022-06-07_16h56.31.728,oddball,2022.1.2,59.889707223555476,
0,,,,,0,0,0,0,6,0,6,0,22,0,22,0,,,,,,,,,,,,,,,,,764.9434086000547,None,765.6106978999451,766.2107461998239,766.1942102001049,768.1950137000531,None,1,0.6115433196537197,2.612367019522935,decreament,0.6,1,standard,None,100,,,,,,,,m,18,220,fr,r,0,raw,2022-06-07_16h56.31.728,oddball,2022.1.2,59.889707223555476,
0,,,,,0,0,0,0,6,0,6,0,23,0,23,0,,,,,,,,,,,,,,,,,768.211730599869,None,768.7951012002304,769.3952652998269,769.378695699852,771.3794736000709,None,1,0.6128394198603928,2.6136120199225843,decreament,0.6,1,standard,None,100,,,,,,,,m,18,220,fr,r,0,raw,2022-06-07_16h56.31.728,oddball,2022.1.2,59.889707223555476,
0,,,,,0,0,0,0,6,0,6,0,24,0,24,0,,,,,,,,,,,,,,,,,771.3962575001642,None,772.0300238998607,772.6301755998284,772.6134798000567,774.6140519999899,None,1,0.6093341205269098,2.609843520447612,decreament,0.6,1,standard,None,100,,,,,,,,m,18,220,fr,r,0,raw,2022-06-07_16h56.31.728,oddball,2022.1.2,59.889707223555476,
0,,,,,0,0,0,0,6,0,6,0,25,0,25,0,,,,,,,,,,,,,,,,,774.6307227001525,None,775.3809572001919,775.9814168000594,775.9647046001628,777.9657200002111,None,1,0.6123426198028028,2.6134018199518323,decreament,0.6,1,standard,None,100,,,,,,,,m,18,220,fr,r,0,raw,2022-06-07_16h56.31.728,oddball,2022.1.2,59.889707223555476,
0,,,,,0,0,0,0,6,0,6,0,26,0,26,0,,,,,,,,,,,,,,,,,777.9832942001522,None,778.5157427000813,778.7654813998379,778.7322431998327,780.7332116998732,None,0,0.24373382050544024,2.2447781204245985,decreament,0.24,2,oddball,j,40,,,,,,,,m,18,220,fr,r,0,raw,2022-06-07_16h56.31.728,oddball,2022.1.2,59.889707223555476,
0,,,,,0,0,0,0,6,0,6,0,27,0,27,0,,,,,,,,,,,,,,,,,780.7495631002821,None,781.3164649000391,781.9168936000206,781.9003258999437,783.9008470000699,None,1,0.6146413199603558,2.6151306200772524,decreament,0.6,1,standard,None,100,,,,,,,,m,18,220,fr,r,0,raw,2022-06-07_16h56.31.728,oddball,2022.1.2,59.889707223555476,
0,,,,,0,0,0,0,6,0,6,0,28,0,28,0,,,,,,,,,,,,,,,,,783.9176813000813,None,784.6178994001821,785.2184009002522,785.2013957998715,787.2019152999856,None,1,0.6122359205037355,2.61274242028594,decreament,0.6,1,standard,None,100,,,,,,,,m,18,220,fr,r,0,raw,2022-06-07_16h56.31.728,oddball,2022.1.2,59.889707223555476,
0,,,,,0,0,0,0,6,0,6,0,29,0,29,0,,,,,,,,,,,,,,,,,787.2188400998712,None,787.9359964998439,788.5359681001864,788.5195050998591,790.5197331001982,None,1,0.6108297198079526,2.610952119808644,decreament,0.6,1,standard,None,100,,,,,,,,m,18,220,fr,r,0,raw,2022-06-07_16h56.31.728,oddball,2022.1.2,59.889707223555476,
0,,,,,0,0,0,0,7,0,7,0,0,0,0,0,,,,,,,,,,,,,,,791.9206960001029,None,794.354717799928,None,794.9719862001948,795.5720446999185,795.5554865002632,797.5559339001775,None,1,0.6087772198952734,2.6092142197303474,increament,0.6,5,standard,None,100,,790.5368360001594,None,,,,,m,18,220,fr,r,0,raw,2022-06-07_16h56.31.728,oddball,2022.1.2,59.889707223555476,
0,,,,,0,0,0,0,7,0,7,0,1,0,1,0,,,,,,,,,,,,,,,,,797.5727796000428,None,798.2232463001274,798.8230639002286,798.8062543999404,800.807452400215,None,1,0.6095110196620226,2.6107407198287547,increament,0.6,5,standard,None,100,,,,,,,,m,18,220,fr,r,0,raw,2022-06-07_16h56.31.728,oddball,2022.1.2,59.889707223555476,
0,,,,,0,0,0,0,7,0,7,0,2,0,2,0,,,,,,,,,,,,,,,,,800.8239613999613,None,801.5574853001162,802.1576339001767,802.1411878000945,804.1417630999349,None,1,0.6129526197910309,2.6135846194811165,increament,0.6,5,standard,None,100,,,,,,,,m,18,220,fr,r,0,raw,2022-06-07_16h56.31.728,oddball,2022.1.2,59.889707223555476,
0,,,,,0,0,0,0,7,0,7,0,3,0,3,0,,,,,,,,,,,,,,,,,804.1585776000284,None,804.8755744001828,805.4755991999991,805.4591922000982,807.459647399839,None,1,0.6129926200956106,2.6133788200095296,increament,0.6,5,standard,None,100,,,,,,,,m,18,220,fr,r,0,raw,2022-06-07_16h56.31.728,oddball,2022.1.2,59.889707223555476,
0,,,,,0,0,0,0,7,0,7,0,4,0,4,0,,,,,,,,,,,,,,,,,807.4763779002242,None,808.159935799893,808.7601962001063,808.7436668002047,810.7443929999135,None,1,0.6130017200484872,2.613797019701451,increament,0.6,5,standard,None,100,,,,,,,,m,18,220,fr,r,0,raw,2022-06-07_16h56.31.728,oddball,2022.1.2,59.889707223555476,
0,,,,,0,0,0,0,7,0,7,0,5,0,5,0,,,,,,,,,,,,,,,,,810.7613969999366,None,811.3942966000177,811.9949870002456,811.978125100024,813.9789721001871,None,1,0.614269720390439,2.6151272202841938,increament,0.6,5,standard,None,100,,,,,,,,m,18,220,fr,r,0,raw,2022-06-07_16h56.31.728,oddball,2022.1.2,59.889707223555476,
0,,,,,0,0,0,0,7,0,7,0,6,0,6,0,,,,,,,,,,,,,,,,,813.9956014002673,None,814.6458294000477,815.2461570999585,815.2292729001492,817.2306086998433,j,0,0.613628420047462,2.615050420165062,increament,0.6,5,standard,None,100,0.1363846999593079,,,,,,,m,18,220,fr,r,0,raw,2022-06-07_16h56.31.728,oddball,2022.1.2,59.889707223555476,
0,,,,,0,0,0,0,7,0,7,0,7,0,7,0,,,,,,,,,,,,,,,,,817.2469025999308,None,817.8804768999107,818.4806217998266,818.4642532002181,820.4648787998594,None,1,0.6128319203853607,2.6134138205088675,increament,0.6,5,standard,None,100,,,,,,,,m,18,220,fr,r,0,raw,2022-06-07_16h56.31.728,oddball,2022.1.2,59.889707223555476,
0,,,,,0,0,0,0,7,0,7,0,8,0,8,0,,,,,,,,,,,,,,,,,820.4813226000406,None,821.131531199906,821.7317591998726,821.715404199902,823.7162446998991,None,1,0.6129734199494123,2.614090620074421,increament,0.6,5,standard,None,100,,,,,,,,m,18,220,fr,r,0,raw,2022-06-07_16h56.31.728,oddball,2022.1.2,59.889707223555476,
0,,,,,0,0,0,0,7,0,7,0,9,0,9,0,,,,,,,,,,,,,,,,,823.7326173000038,None,824.3999275001697,825.1329910000786,825.0996995000169,827.1006511999294,None,0,0.7264571199193597,2.727433320134878,increament,0.72,6,oddball,j,120,,,,,,,,m,18,220,fr,r,0,raw,2022-06-07_16h56.31.728,oddball,2022.1.2,59.889707223555476,
0,,,,,0,0,0,0,7,0,7,0,10,0,10,0,,,,,,,,,,,,,,,,,827.1171722002327,None,827.8006676002406,828.4011758002453,828.3847114001401,830.385042199865,None,1,0.6134459204040468,2.6137554203160107,increament,0.6,5,standard,None,100,,,,,,,,m,18,220,fr,r,0,raw,2022-06-07_16h56.31.728,oddball,2022.1.2,59.889707223555476,
0,,,,,0,0,0,0,7,0,7,0,11,0,11,0,,,,,,,,,,,,,,,,,830.4019574001431,None,830.9856175002642,831.5855264998972,831.5691370000131,833.5698828999884,None,1,0.611868420150131,2.612660020124167,increament,0.6,5,standard,None,100,,,,,,,,m,18,220,fr,r,0,raw,2022-06-07_16h56.31.728,oddball,2022.1.2,59.889707223555476,
0,,,,,0,0,0,0,7,0,7,0,12,0,12,0,,,,,,,,,,,,,,,,,833.5868513998576,None,834.220120199956,834.8203950999305,834.8036712999456,836.8047357001342,None,1,0.6131314197555184,2.6142622199840844,increament,0.6,5,standard,None,100,,,,,,,,m,18,220,fr,r,0,raw,2022-06-07_16h56.31.728,oddball,2022.1.2,59.889707223555476,
0,,,,,0,0,0,0,7,0,7,0,13,0,13,0,,,,,,,,,,,,,,,,,836.823348400183,None,837.4384881001897,838.0380986002274,838.0213605999015,840.0222260998562,None,1,0.610119619872421,2.611005319748074,increament,0.6,5,standard,None,100,,,,,,,,m,18,220,fr,r,0,raw,2022-06-07_16h56.31.728,oddball,2022.1.2,59.889707223555476,
0,,,,,0,0,0,0,7,0,7,0,14,0,14,0,,,,,,,,,,,,,,,,,840.0388676999137,None,840.7059233002365,841.3060816000216,841.2895308998413,843.2907258002087,None,1,0.6096092197112739,2.61082751955837,increament,0.6,5,standard,None,100,,,,,,,,m,18,220,fr,r,0,raw,2022-06-07_16h56.31.728,oddball,2022.1.2,59.889707223555476,
0,,,,,0,0,0,0,7,0,7,0,15,0,15,0,,,,,,,,,,,,,,,,,843.3065261999145,None,843.907090799883,844.5074690999463,844.4907348002307,846.4912744001485,j,0,0.6092011197470129,2.609672619961202,increament,0.6,5,standard,None,100,0.3308018003590405,,,,,,,m,18,220,fr,r,0,raw,2022-06-07_16h56.31.728,oddball,2022.1.2,59.889707223555476,
0,,,,,0,0,0,0,7,0,7,0,16,0,16,0,,,,,,,,,,,,,,,,,846.5079044001177,None,847.2081614001654,847.8084849002771,847.7917873002589,849.792659800034,None,1,0.6117853200994432,2.612713519949466,increament,0.6,5,standard,None,100,,,,,,,,m,18,220,fr,r,0,raw,2022-06-07_16h56.31.728,oddball,2022.1.2,59.889707223555476,
0,,,,,0,0,0,0,7,0,7,0,17,0,17,0,,,,,,,,,,,,,,,,,849.8089458998293,None,850.3259410001338,850.9264397001825,850.9096595998853,852.9109891001135,None,1,0.6122107203118503,2.613908020313829,increament,0.6,5,standard,None,100,,,,,,,,m,18,220,fr,r,0,raw,2022-06-07_16h56.31.728,oddball,2022.1.2,59.889707223555476,
0,,,,,0,0,0,0,7,0,7,0,18,0,18,0,,,,,,,,,,,,,,,,,852.9283039001748,None,853.5438422998413,854.1443896000274,854.1275614998303,856.1283177998848,None,1,0.6128894202411175,2.6136429202742875,increament,0.6,5,standard,None,100,,,,,,,,m,18,220,fr,r,0,raw,2022-06-07_16h56.31.728,oddball,2022.1.2,59.889707223555476,
0,,,,,0,0,0,0,7,0,7,0,19,0,19,0,,,,,,,,,,,,,,,,,856.1451273998246,None,856.878826000262,857.478435699828,857.4623067001812,859.4626605999656,j,0,0.610997720155865,2.611367620062083,increament,0.6,5,standard,None,100,0.7994016003794968,,,,,,,m,18,220,fr,r,0,raw,2022-06-07_16h56.31.728,oddball,2022.1.2,59.889707223555476,
0,,,,,0,0,0,0,7,0,7,0,20,0,20,0,,,,,,,,,,,,,,,,,859.4794653002173,None,860.0965354000218,860.6966397999786,860.6798592000268,862.6805870002136,None,1,0.6108945203013718,2.6116007203236222,increament,0.6,5,standard,None,100,,,,,,,,m,18,220,fr,r,0,raw,2022-06-07_16h56.31.728,oddball,2022.1.2,59.889707223555476,
0,,,,,0,0,0,0,7,0,7,0,21,0,21,0,,,,,,,,,,,,,,,,,862.6973500000313,None,863.2977705001831,863.8976044999436,863.8810145999305,865.8820380000398,None,1,0.6126526203006506,2.613764320500195,increament,0.6,5,standard,None,100,,,,,,,,m,18,220,fr,r,0,raw,2022-06-07_16h56.31.728,oddball,2022.1.2,59.889707223555476,
0,,,,,0,0,0,0,7,0,7,0,22,0,22,0,,,,,,,,,,,,,,,,,865.8984078001231,None,866.4655343000777,867.0656249001622,867.0494269998744,869.0504435999319,j,0,0.6130778198130429,2.6141247199848294,increament,0.6,5,standard,None,100,0.22864790027961135,,,,,,,m,18,220,fr,r,0,raw,2022-06-07_16h56.31.728,oddball,2022.1.2,59.889707223555476,
0,,,,,0,0,0,0,7,0,7,0,23,0,23,0,,,,,,,,,,,,,,,,,869.0667833001353,None,869.6340107000433,870.2335489001125,870.2172190998681,872.2175651001744,None,1,0.610537719912827,2.6108341203071177,increament,0.6,5,standard,None,100,,,,,,,,m,18,220,fr,r,0,raw,2022-06-07_16h56.31.728,oddball,2022.1.2,59.889707223555476,
0,,,,,0,0,0,0,7,0,7,0,24,0,24,0,,,,,,,,,,,,,,,,,872.234365100041,None,872.9846124998294,873.8347948999144,873.8018859000877,875.8024539002217,j,1,0.8473460203967988,2.847952320240438,increament,0.84,7,oddball,j,140,0.49882159987464547,,,,,,,m,18,220,fr,r,0,raw,2022-06-07_16h56.31.728,oddball,2022.1.2,59.889707223555476,
0,,,,,0,0,0,0,7,0,7,0,25,0,25,0,,,,,,,,,,,,,,,,,875.8189719002694,None,876.4689870001748,877.0696052000858,877.0531978998333,879.0539873000234,None,1,0.6143157198093832,2.6151066198945045,increament,0.6,5,standard,None,100,,,,,,,,m,18,220,fr,r,0,raw,2022-06-07_16h56.31.728,oddball,2022.1.2,59.889707223555476,
0,,,,,0,0,0,0,7,0,7,0,26,0,26,0,,,,,,,,,,,,,,,,,879.0709044001997,None,879.7709049000405,880.3707771999761,880.3539475998841,882.355248699896,None,1,0.6109570199623704,2.6123471199534833,increament,0.6,5,standard,None,100,,,,,,,,m,18,220,fr,r,0,raw,2022-06-07_16h56.31.728,oddball,2022.1.2,59.889707223555476,
0,,,,,0,0,0,0,7,0,7,0,27,0,27,0,,,,,,,,,,,,,,,,,882.3713008002378,None,883.0216660001315,883.6219089999795,883.6052863998339,885.6062281001359,None,1,0.6123217204585671,2.613324520178139,increament,0.6,5,standard,None,100,,,,,,,,m,18,220,fr,r,0,raw,2022-06-07_16h56.31.728,oddball,2022.1.2,59.889707223555476,
0,,,,,0,0,0,0,7,0,7,0,28,0,28,0,,,,,,,,,,,,,,,,,885.6233712001704,None,886.4062508000061,887.3734587002546,887.340006200131,889.3408249998465,None,0,0.9619293198920786,2.962987119797617,increament,0.96,8,oddball,j,160,,,,,,,,m,18,220,fr,r,0,raw,2022-06-07_16h56.31.728,oddball,2022.1.2,59.889707223555476,
0,,,,,0,0,0,0,7,0,7,0,29,0,29,0,,,,,,,,,,,,,,,,,889.3576425998472,None,890.1076819002628,890.7081202999689,890.6918207001872,892.6920105000027,None,1,0.6107954196631908,2.6109038200229406,increament,0.6,5,standard,None,100,,,,,,,,m,18,220,fr,r,0,raw,2022-06-07_16h56.31.728,oddball,2022.1.2,59.889707223555476,
0,,,,,0,0,0,0,8,0,8,0,0,0,0,0,,,,,,,,,,,,,,,894.9161518998444,None,896.1601745998487,None,896.8438610001467,897.4440382998437,897.427248199936,899.4279940002598,None,1,0.6088422196917236,2.609632719773799,decreament,0.6,1,standard,None,100,,892.7088182000443,None,,,,,m,18,220,fr,r,0,raw,2022-06-07_16h56.31.728,oddball,2022.1.2,59.889707223555476,
0,,,,,0,0,0,0,8,0,8,0,1,0,1,0,,,,,,,,,,,,,,,,,899.4449356999248,None,900.0951837999746,900.6954788998701,900.6789616998285,902.6794280000031,None,1,0.6112001198343933,2.611664520110935,decreament,0.6,1,standard,None,100,,,,,,,,m,18,220,fr,r,0,raw,2022-06-07_16h56.31.728,oddball,2022.1.2,59.889707223555476,
0,,,,,0,0,0,0,8,0,8,0,2,0,2,0,,,,,,,,,,,,,,,,,902.6967174001038,None,903.3461811998859,903.9466001000255,903.9297849000432,905.9302885001525,None,1,0.6125490199774504,2.613042620010674,decreament,0.6,1,standard,None,100,,,,,,,,m,18,220,fr,r,0,raw,2022-06-07_16h56.31.728,oddball,2022.1.2,59.889707223555476,
0,,,,,0,0,0,0,8,0,8,0,3,0,3,0,,,,,,,,,,,,,,,,,905.9473375999369,None,906.5975323999301,907.1976681002416,907.1809404999949,909.1816540998407,None,1,0.6084414203651249,2.609141319990158,decreament,0.6,1,standard,None,100,,,,,,,,m,18,220,fr,r,0,raw,2022-06-07_16h56.31.728,oddball,2022.1.2,59.889707223555476,
0,,,,,0,0,0,0,8,0,8,0,4,0,4,0,,,,,,,,,,,,,,,,,909.1982376002707,None,909.9319537999108,910.5324205001816,910.5153912999667,912.516426499933,None,1,0.6123282196931541,2.61342551978305,decreament,0.6,1,standard,None,100,,,,,,,,m,18,220,fr,r,0,raw,2022-06-07_16h56.31.728,oddball,2022.1.2,59.889707223555476,
0,,,,,0,0,0,0,8,0,8,0,5,0,5,0,,,,,,,,,,,,,,,,,912.5332829998806,None,913.0830777999945,913.3333566002548,913.2999442000873,915.3006871999241,j,1,0.24661952024325728,2.24744362058118,decreament,0.24,2,oddball,j,40,0.7305056001059711,,,,,,,m,18,220,fr,r,0,raw,2022-06-07_16h56.31.728,oddball,2022.1.2,59.889707223555476,
0,,,,,0,0,0,0,8,0,8,0,6,0,6,0,,,,,,,,,,,,,,,,,915.3173644002527,None,915.9677778999321,916.5680374000221,916.5512163001113,918.5518884002231,None,1,0.6096492200158536,2.6103393197990954,decreament,0.6,1,standard,None,100,,,,,,,,m,18,220,fr,r,0,raw,2022-06-07_16h56.31.728,oddball,2022.1.2,59.889707223555476,
0,,,,,0,0,0,0,8,0,8,0,7,0,7,0,,,,,,,,,,,,,,,,,918.5688048000447,None,919.0853009000421,919.6857425002381,919.6690583000891,921.6696823001839,None,1,0.61233791988343,2.6129640196450055,decreament,0.6,1,standard,None,100,,,,,,,,m,18,220,fr,r,0,raw,2022-06-07_16h56.31.728,oddball,2022.1.2,59.889707223555476,
0,,,,,0,0,0,0,8,0,8,0,8,0,8,0,,,,,,,,,,,,,,,,,921.6862921998836,None,922.5032774000429,923.1035726000555,923.08673560014,925.0873108999804,j,0,0.611406120005995,2.6119687198661268,decreament,0.6,1,standard,None,100,0.36641940008848906,,,,,,,m,18,220,fr,r,0,raw,2022-06-07_16h56.31.728,oddball,2022.1.2,59.889707223555476,
0,,,,,0,0,0,0,8,0,8,0,9,0,9,0,,,,,,,,,,,,,,,,,925.1040019001812,None,925.6881876001135,926.2879205001518,926.271498200018,928.2725110002793,None,1,0.6091459197923541,2.6102442196570337,decreament,0.6,1,standard,None,100,,,,,,,,m,18,220,fr,r,0,raw,2022-06-07_16h56.31.728,oddball,2022.1.2,59.889707223555476,
0,,,,,0,0,0,0,8,0,8,0,10,0,10,0,,,,,,,,,,,,,,,,,928.2887443001382,None,929.0062083001249,929.6062155999243,929.5894325999543,931.5900416001678,None,1,0.6116813202388585,2.612306720111519,decreament,0.6,1,standard,None,100,,,,,,,,m,18,220,fr,r,0,raw,2022-06-07_16h56.31.728,oddball,2022.1.2,59.889707223555476,
0,,,,,0,0,0,0,8,0,8,0,11,0,11,0,,,,,,,,,,,,,,,,,931.6067429999821,None,932.340756200254,932.9407215001993,932.9239989002235,934.9247905998491,None,1,0.6101028197444975,2.610885719768703,decreament,0.6,1,standard,None,100,,,,,,,,m,18,220,fr,r,0,raw,2022-06-07_16h56.31.728,oddball,2022.1.2,59.889707223555476,
0,,,,,0,0,0,0,8,0,8,0,12,0,12,0,,,,,,,,,,,,,,,,,934.9414150998928,None,935.6251469999552,936.2256161998957,936.2086959001608,938.2092104000039,None,1,0.6134597198106349,2.613955520093441,decreament,0.6,1,standard,None,100,,,,,,,,m,18,220,fr,r,0,raw,2022-06-07_16h56.31.728,oddball,2022.1.2,59.889707223555476,
0,,,,,0,0,0,0,8,0,8,0,13,0,13,0,,,,,,,,,,,,,,,,,938.226308400277,None,938.8598874001764,939.4597653001547,939.4433448002674,941.4437664998695,j,0,0.6119266203604639,2.612322420347482,decreament,0.6,1,standard,None,100,0.7542217001318932,,,,,,,m,18,220,fr,r,0,raw,2022-06-07_16h56.31.728,oddball,2022.1.2,59.889707223555476,
0,,,,,0,0,0,0,8,0,8,0,14,0,14,0,,,,,,,,,,,,,,,,,941.4604821000248,None,942.2108237999491,942.811004600022,942.7946207001805,944.7949240999296,None,1,0.6125341197475791,2.6128056198358536,decreament,0.6,1,standard,None,100,,,,,,,,m,18,220,fr,r,0,raw,2022-06-07_16h56.31.728,oddball,2022.1.2,59.889707223555476,
0,,,,,0,0,0,0,8,0,8,0,15,0,15,0,,,,,,,,,,,,,,,,,944.8117849002592,None,945.579002500046,945.9454602999613,945.9121790998615,947.9128232998773,None,0,0.36321011930704117,2.363827219698578,decreament,0.36,3,oddball,j,60,,,,,,,,m,18,220,fr,r,0,raw,2022-06-07_16h56.31.728,oddball,2022.1.2,59.889707223555476,
0,,,,,0,0,0,0,8,0,8,0,16,0,16,0,,,,,,,,,,,,,,,,,947.9297365001403,None,948.5470352000557,949.1471824999899,949.1304076998495,951.1307927998714,j,0,0.609641820192337,2.609952019993216,decreament,0.6,1,standard,None,100,0.4182227002456784,,,,,,,m,18,220,fr,r,0,raw,2022-06-07_16h56.31.728,oddball,2022.1.2,59.889707223555476,
0,,,,,0,0,0,0,8,0,8,0,17,0,17,0,,,,,,,,,,,,,,,,,951.1474474002607,None,951.7480871998705,952.348080100026,952.3315389999188,954.3319081002846,j,0,0.6082839197479188,2.6085643200203776,decreament,0.6,1,standard,None,100,1.1053209002129734,,,,,,,m,18,220,fr,r,0,raw,2022-06-07_16h56.31.728,oddball,2022.1.2,59.889707223555476,
0,,,,,0,0,0,0,8,0,8,0,18,0,18,0,,,,,,,,,,,,,,,,,954.3486386002041,None,954.9988930001855,955.5991457002237,955.5827148999088,957.5834273998626,None,1,0.612713819835335,2.613446719944477,decreament,0.6,1,standard,None,100,,,,,,,,m,18,220,fr,r,0,raw,2022-06-07_16h56.31.728,oddball,2022.1.2,59.889707223555476,
0,,,,,0,0,0,0,8,0,8,0,19,0,19,0,,,,,,,,,,,,,,,,,957.6001043999568,None,958.1668664999306,958.7671834002249,958.7508252002299,960.7510056998581,None,1,0.6140050198882818,2.614052420016378,decreament,0.6,1,standard,None,100,,,,,,,,m,18,220,fr,r,0,raw,2022-06-07_16h56.31.728,oddball,2022.1.2,59.889707223555476,
0,,,,,0,0,0,0,8,0,8,0,20,0,20,0,,,,,,,,,,,,,,,,,960.7680275002494,None,961.4348571002483,962.0346774999052,962.0180656998418,964.0195639999583,j,0,0.6124081197194755,2.6139713199809194,decreament,0.6,1,standard,None,100,0.1312338998541236,,,,,,,m,18,220,fr,r,0,raw,2022-06-07_16h56.31.728,oddball,2022.1.2,59.889707223555476,
0,,,,,0,0,0,0,8,0,8,0,21,0,21,0,,,,,,,,,,,,,,,,,964.0364117999561,None,964.7529434999451,965.2361770002171,965.2194214998744,967.2206838000566,j,1,0.4943743194453418,2.4957539197057486,decreament,0.48,4,oddball,j,80,0.4492231998592615,,,,,,,m,18,220,fr,r,0,raw,2022-06-07_16h56.31.728,oddball,2022.1.2,59.889707223555476,
0,,,,,0,0,0,0,8,0,8,0,22,0,22,0,,,,,,,,,,,,,,,,,967.2377789001912,None,967.8537020999938,968.4540234999731,968.43788400013,970.438155000098,None,1,0.6140460199676454,2.614299519918859,decreament,0.6,1,standard,None,100,,,,,,,,m,18,220,fr,r,0,raw,2022-06-07_16h56.31.728,oddball,2022.1.2,59.889707223555476,
0,,,,,0,0,0,0,8,0,8,0,23,0,23,0,,,,,,,,,,,,,,,,,970.4549467000179,None,971.0052702999674,971.6057489998639,971.5891513000242,973.5893478002399,None,1,0.6118389195762575,2.6119219199754298,decreament,0.6,1,standard,None,100,,,,,,,,m,18,220,fr,r,0,raw,2022-06-07_16h56.31.728,oddball,2022.1.2,59.889707223555476,
0,,,,,0,0,0,0,8,0,8,0,24,0,24,0,,,,,,,,,,,,,,,,,973.605833500158,None,974.1397281000391,974.7395875002258,974.7230171998963,976.7238473999314,None,1,0.6111036194488406,2.61194101953879,decreament,0.6,1,standard,None,100,,,,,,,,m,18,220,fr,r,0,raw,2022-06-07_16h56.31.728,oddball,2022.1.2,59.889707223555476,
0,,,,,0,0,0,0,8,0,8,0,25,0,25,0,,,,,,,,,,,,,,,,,976.7403596001677,None,977.3574135000817,977.9577994998544,977.9411356998608,979.9419338000007,None,1,0.6135896202176809,2.6144604203291237,decreament,0.6,1,standard,None,100,,,,,,,,m,18,220,fr,r,0,raw,2022-06-07_16h56.31.728,oddball,2022.1.2,59.889707223555476,
0,,,,,0,0,0,0,8,0,8,0,26,0,26,0,,,,,,,,,,,,,,,,,979.9584154002368,None,980.5757436002605,981.1757534998469,981.1589644998312,983.1601070002653,None,1,0.6107776197604835,2.611941719893366,decreament,0.6,1,standard,None,100,,,,,,,,m,18,220,fr,r,0,raw,2022-06-07_16h56.31.728,oddball,2022.1.2,59.889707223555476,
0,,,,,0,0,0,0,8,0,8,0,27,0,27,0,,,,,,,,,,,,,,,,,983.177070800215,None,983.8600023002364,984.4602339998819,984.4438966000453,986.4442181000486,None,1,0.6121146199293435,2.612398419994861,decreament,0.6,1,standard,None,100,,,,,,,,m,18,220,fr,r,0,raw,2022-06-07_16h56.31.728,oddball,2022.1.2,59.889707223555476,
0,,,,,0,0,0,0,8,0,8,0,28,0,28,0,,,,,,,,,,,,,,,,,986.4609731999226,None,987.0445945998654,987.6449277000502,987.6282631000504,989.6289344001561,None,1,0.6123525202274323,2.6130276201292872,decreament,0.6,1,standard,None,100,,,,,,,,m,18,220,fr,r,0,raw,2022-06-07_16h56.31.728,oddball,2022.1.2,59.889707223555476,
0,,,,,0,0,0,0,8,0,8,0,29,0,29,0,,,,,,,,,,,,,,,,,989.6455609998666,None,990.3459561001509,990.9458121000789,990.9292517998256,992.9299747999758,None,1,0.6124469200149179,2.613131619989872,decreament,0.6,1,standard,None,100,,,,,,,,m,18,220,fr,r,0,raw,2022-06-07_16h56.31.728,oddball,2022.1.2,59.889707223555476,
0,,,,,0,0,0,0,9,0,9,0,0,0,0,0,,,,,,,,,,,,,,,993.8309539002366,None,994.6304792002775,None,995.2477845000103,995.847946099937,995.831488000229,997.8321942999028,None,1,0.6121572200208902,2.6128544197417796,increament,0.6,5,standard,None,100,,992.9468824998476,None,,,,,m,18,220,fr,r,0,raw,2022-06-07_16h56.31.728,oddball,2022.1.2,59.889707223555476,
0,,,,,0,0,0,0,9,0,9,0,1,0,1,0,,,,,,,,,,,,,,,,,997.8503709002398,None,998.465535200201,999.0655886000022,999.0489737000316,1001.0496200001799,None,1,0.6121501200832427,2.6128143202513456,increament,0.6,5,standard,None,100,,,,,,,,m,18,220,fr,r,0,raw,2022-06-07_16h56.31.728,oddball,2022.1.2,59.889707223555476,
0,,,,,0,0,0,0,9,0,9,0,2,0,2,0,,,,,,,,,,,,,,,,,1001.0666300002486,None,1001.7336468002759,1002.3335350002162,1002.316878600046,1004.3180702999234,None,1,0.6109759202226996,2.612225720193237,increament,0.6,5,standard,None,100,,,,,,,,m,18,220,fr,r,0,raw,2022-06-07_16h56.31.728,oddball,2022.1.2,59.889707223555476,
0,,,,,0,0,0,0,9,0,9,0,3,0,3,0,,,,,,,,,,,,,,,,,1004.3341919998638,None,1005.0350055000745,1005.6349276001565,1005.6181641998701,1007.6190106999129,None,1,0.6101394202560186,2.6110069202259183,increament,0.6,5,standard,None,100,,,,,,,,m,18,220,fr,r,0,raw,2022-06-07_16h56.31.728,oddball,2022.1.2,59.889707223555476,
0,,,,,0,0,0,0,9,0,9,0,4,0,4,0,,,,,,,,,,,,,,,,,1007.6357752000913,None,1008.1691204002127,1008.7693556002341,1008.7527831001207,1010.7538418001495,None,1,0.6122697200626135,2.613342519849539,increament,0.6,5,standard,None,100,,,,,,,,m,18,220,fr,r,0,raw,2022-06-07_16h56.31.728,oddball,2022.1.2,59.889707223555476,
0,,,,,0,0,0,0,9,0,9,0,5,0,5,0,,,,,,,,,,,,,,,,,1010.7703110999428,None,1011.3037888002582,1011.9040641998872,1011.8876143000089,1013.8879664000124,None,1,0.6128632198087871,2.6131557198241353,increament,0.6,5,standard,None,100,,,,,,,,m,18,220,fr,r,0,raw,2022-06-07_16h56.31.728,oddball,2022.1.2,59.889707223555476,
0,,,,,0,0,0,0,9,0,9,0,6,0,6,0,,,,,,,,,,,,,,,,,1013.9048374998383,None,1014.5384563002735,1015.1383930998854,1015.1219605002552,1017.1223884001374,None,1,0.6114663197658956,2.6118963197804987,increament,0.6,5,standard,None,100,,,,,,,,m,18,220,fr,r,0,raw,2022-06-07_16h56.31.728,oddball,2022.1.2,59.889707223555476,
0,,,,,0,0,0,0,9,0,9,0,7,0,7,0,,,,,,,,,,,,,,,,,1017.1391520998441,None,1017.7393096000887,1018.3394280001521,1018.3237129999325,1020.3239390999079,None,1,0.6128164199180901,2.6129671200178564,increament,0.6,5,standard,None,100,,,,,,,,m,18,220,fr,r,0,raw,2022-06-07_16h56.31.728,oddball,2022.1.2,59.889707223555476,
0,,,,,0,0,0,0,9,0,9,0,8,0,8,0,,,,,,,,,,,,,,,,,1020.3407052000985,None,1021.1074303998612,1022.0743975001387,1022.0409698998556,1024.042019000277,None,0,0.9626287198625505,2.9636930199339986,increament,0.96,8,oddball,j,160,,,,,,,,m,18,220,fr,r,0,raw,2022-06-07_16h56.31.728,oddball,2022.1.2,59.889707223555476,
0,,,,,0,0,0,0,9,0,9,0,9,0,9,0,,,,,,,,,,,,,,,,,1024.058594299946,None,1024.7754661999643,1025.3756687999703,1025.3589331000112,1027.3595901001245,None,1,0.6132479198276997,2.6138992197811604,increament,0.6,5,standard,None,100,,,,,,,,m,18,220,fr,r,0,raw,2022-06-07_16h56.31.728,oddball,2022.1.2,59.889707223555476,
0,,,,,0,0,0,0,9,0,9,0,10,0,10,0,,,,,,,,,,,,,,,,,1027.3765624002554,None,1028.043267100118,1028.6431109998375,1028.626519900281,1030.6275499998592,None,1,0.6098535195924342,2.610881819855422,increament,0.6,5,standard,None,100,,,,,,,,m,18,220,fr,r,0,raw,2022-06-07_16h56.31.728,oddball,2022.1.2,59.889707223555476,
0,,,,,0,0,0,0,9,0,9,0,11,0,11,0,,,,,,,,,,,,,,,,,1030.644229600206,None,1031.2607219000347,1031.8613681001589,1031.8445863998495,1033.8454121998511,None,1,0.6155973197892308,2.6164626199752092,increament,0.6,5,standard,None,100,,,,,,,,m,18,220,fr,r,0,raw,2022-06-07_16h56.31.728,oddball,2022.1.2,59.889707223555476,
0,,,,,0,0,0,0,9,0,9,0,12,0,12,0,,,,,,,,,,,,,,,,,1033.8624863000587,None,1034.5791539000347,1035.1795708001591,1035.1630255999044,1037.1638457998633,None,1,0.6125390199013054,2.6134340199641883,increament,0.6,5,standard,None,100,,,,,,,,m,18,220,fr,r,0,raw,2022-06-07_16h56.31.728,oddball,2022.1.2,59.889707223555476,
0,,,,,0,0,0,0,9,0,9,0,13,0,13,0,,,,,,,,,,,,,,,,,1037.1819885000587,None,1037.7968862000853,1038.3973675002344,1038.3808932001702,1040.3808372002095,None,1,0.6132971197366714,2.6131270197220147,increament,0.6,5,standard,None,100,,,,,,,,m,18,220,fr,r,0,raw,2022-06-07_16h56.31.728,oddball,2022.1.2,59.889707223555476,
0,,,,,0,0,0,0,9,0,9,0,14,0,14,0,,,,,,,,,,,,,,,,,1040.3975221002474,None,1041.1480721002445,1041.7487118998542,1041.7320007998496,1043.732056400273,None,1,0.6151068196631968,2.615105419885367,increament,0.6,5,standard,None,100,,,,,,,,m,18,220,fr,r,0,raw,2022-06-07_16h56.31.728,oddball,2022.1.2,59.889707223555476,
0,,,,,0,0,0,0,9,0,9,0,15,0,15,0,,,,,,,,,,,,,,,,,1043.748734800145,None,1044.466327200178,1045.066281999927,1045.0498815998435,1047.0504125999287,None,1,0.6123963198624551,2.612940319813788,increament,0.6,5,standard,None,100,,,,,,,,m,18,220,fr,r,0,raw,2022-06-07_16h56.31.728,oddball,2022.1.2,59.889707223555476,
0,,,,,0,0,0,0,9,0,9,0,16,0,16,0,,,,,,,,,,,,,,,,,1047.067216400057,None,1047.8508458998986,1048.5842408002354,1048.5512017998844,1050.5518125998788,None,0,0.7260710196569562,2.7267023199237883,increament,0.72,6,oddball,j,120,,,,,,,,m,18,220,fr,r,0,raw,2022-06-07_16h56.31.728,oddball,2022.1.2,59.889707223555476,
0,,,,,0,0,0,0,9,0,9,0,17,0,17,0,,,,,,,,,,,,,,,,,1050.5685735000297,None,1051.252104899846,1051.8525172001682,1051.8359762001783,1053.8371641002595,None,1,0.6127855195663869,2.6138616194948554,increament,0.6,5,standard,None,100,,,,,,,,m,18,220,fr,r,0,raw,2022-06-07_16h56.31.728,oddball,2022.1.2,59.889707223555476,
0,,,,,0,0,0,0,9,0,9,0,18,0,18,0,,,,,,,,,,,,,,,,,1053.8529472998343,None,1054.5705205001868,1055.1700475998223,1055.1536701000296,1057.154428599868,None,1,0.6124137197621167,2.6129103200510144,increament,0.6,5,standard,None,100,,,,,,,,m,18,220,fr,r,0,raw,2022-06-07_16h56.31.728,oddball,2022.1.2,59.889707223555476,
0,,,,,0,0,0,0,9,0,9,0,19,0,19,0,,,,,,,,,,,,,,,,,1057.1711154999211,None,1057.9212815999053,1058.5216923002154,1058.5048350002617,1060.5056071998551,None,1,0.6140012196265161,2.6147638196125627,increament,0.6,5,standard,None,100,,,,,,,,m,18,220,fr,r,0,raw,2022-06-07_16h56.31.728,oddball,2022.1.2,59.889707223555476,
0,,,,,0,0,0,0,9,0,9,0,20,0,20,0,,,,,,,,,,,,,,,,,1060.5221384000033,None,1061.1223991001025,1061.7227316000499,1061.7060928000137,1063.706888299901,None,1,0.6130907195620239,2.6139187198132277,increament,0.6,5,standard,None,100,,,,,,,,m,18,220,fr,r,0,raw,2022-06-07_16h56.31.728,oddball,2022.1.2,59.889707223555476,
0,,,,,0,0,0,0,9,0,9,0,21,0,21,0,,,,,,,,,,,,,,,,,1063.723511400167,None,1064.473544199951,1065.0741445999593,1065.0573836001568,1067.0581824001856,None,1,0.6147943204268813,2.6156393201090395,increament,0.6,5,standard,None,100,,,,,,,,m,18,220,fr,r,0,raw,2022-06-07_16h56.31.728,oddball,2022.1.2,59.889707223555476,
0,,,,,0,0,0,0,9,0,9,0,22,0,22,0,,,,,,,,,,,,,,,,,1067.0746762002818,None,1067.6249861000106,1068.2252164999954,1068.2087401002645,1070.2094359998591,None,1,0.6131242201663554,2.6137536205351353,increament,0.6,5,standard,None,100,,,,,,,,m,18,220,fr,r,0,raw,2022-06-07_16h56.31.728,oddball,2022.1.2,59.889707223555476,
0,,,,,0,0,0,0,9,0,9,0,23,0,23,0,,,,,,,,,,,,,,,,,1070.225951500237,None,1071.1095145000145,1071.9598083002493,1071.926503600087,1073.9276426001452,None,0,0.8457774198614061,2.8469786196947098,increament,0.84,7,oddball,j,140,,,,,,,,m,18,220,fr,r,0,raw,2022-06-07_16h56.31.728,oddball,2022.1.2,59.889707223555476,
0,,,,,0,0,0,0,9,0,9,0,24,0,24,0,,,,,,,,,,,,,,,,,1073.9449184001423,None,1074.5776463998482,1075.177856999915,1075.1610357002355,1077.1619504000992,None,1,0.6119829197414219,2.6128913196735084,increament,0.6,5,standard,None,100,,,,,,,,m,18,220,fr,r,0,raw,2022-06-07_16h56.31.728,oddball,2022.1.2,59.889707223555476,
0,,,,,0,0,0,0,9,0,9,0,25,0,25,0,,,,,,,,,,,,,,,,,1077.1788037000224,None,1077.7787760999054,1078.378876300063,1078.3626041002572,1080.3630595998839,None,1,0.6127918199636042,2.6132546197623014,increament,0.6,5,standard,None,100,,,,,,,,m,18,220,fr,r,0,raw,2022-06-07_16h56.31.728,oddball,2022.1.2,59.889707223555476,
0,,,,,0,0,0,0,9,0,9,0,26,0,26,0,,,,,,,,,,,,,,,,,1080.3799612000585,None,1080.9467633999884,1081.5467122001573,1081.530027099885,1083.531000399962,None,1,0.6130371196195483,2.614066319540143,increament,0.6,5,standard,None,100,,,,,,,,m,18,220,fr,r,0,raw,2022-06-07_16h56.31.728,oddball,2022.1.2,59.889707223555476,
0,,,,,0,0,0,0,9,0,9,0,27,0,27,0,,,,,,,,,,,,,,,,,1083.5480519998819,None,1084.1810057000257,1084.7816830002703,1084.7652107002214,1086.7653962001204,None,1,0.6147721195593476,2.614878219552338,increament,0.6,5,standard,None,100,,,,,,,,m,18,220,fr,r,0,raw,2022-06-07_16h56.31.728,oddball,2022.1.2,59.889707223555476,
0,,,,,0,0,0,0,9,0,9,0,28,0,28,0,,,,,,,,,,,,,,,,,1086.7821364998817,None,1087.3658779999241,1087.966271399986,1087.9497867999598,1089.9502444001846,None,1,0.6128730196505785,2.6134378197602928,increament,0.6,5,standard,None,100,,,,,,,,m,18,220,fr,r,0,raw,2022-06-07_16h56.31.728,oddball,2022.1.2,59.889707223555476,
0,,,,,0,0,0,0,9,0,9,0,29,0,29,0,,,,,,,,,,,,,,,,,1089.9670990002342,None,1090.5842414000072,1091.183739400003,1091.167080000043,1093.1682160999626,None,1,0.6112294201739132,2.6124301203526556,increament,0.6,5,standard,None,100,,,,,,,,m,18,220,fr,r,0,raw,2022-06-07_16h56.31.728,oddball,2022.1.2,59.889707223555476,
10,,,,,0,1,1,2,0,0,0,0,0,0,0,0,,,,,,,,,,,,,,,1273.8621318000369,None,1275.4701531999744,None,1276.254300300032,1276.8541673002765,1276.8375312001444,1278.838513799943,None,1,0.6109361196868122,2.6119721196591854,decreament,0.6,21,standard,None,100,,1273.2192748002708,None,1093.2088573002256,None,,,m,18,220,fr,r,0,raw,2022-06-07_16h56.31.728,oddball,2022.1.2,59.889707223555476,
10,,,,,0,1,1,2,0,0,0,0,1,0,1,0,,,,,,,,,,,,,,,,,1278.8562023001723,None,1279.638562799897,1280.2391321002506,1280.222095400095,1282.2234642999247,None,1,0.6117942202836275,2.6132262204773724,decreament,0.6,21,standard,None,100,,,,,,,,m,18,220,fr,r,0,raw,2022-06-07_16h56.31.728,oddball,2022.1.2,59.889707223555476,
10,,,,,0,1,1,2,0,0,0,0,2,0,2,0,,,,,,,,,,,,,,,,,1282.2396172001027,None,1282.9403201998211,1283.5403622998856,1283.5234342999756,1285.5241156001575,None,1,0.6111697196029127,2.6117914197966456,decreament,0.6,21,standard,None,100,,,,,,,,m,18,220,fr,r,0,raw,2022-06-07_16h56.31.728,oddball,2022.1.2,59.889707223555476,
10,,,,,0,1,1,2,0,0,0,0,3,0,3,0,,,,,,,,,,,,,,,,,1285.5406579999253,None,1286.1242527002469,1286.7244454999454,1286.7079901001416,1288.7083911998197,None,1,0.6126105203293264,2.61298592062667,decreament,0.6,21,standard,None,100,,,,,,,,m,18,220,fr,r,0,raw,2022-06-07_16h56.31.728,oddball,2022.1.2,59.889707223555476,
10,,,,,0,1,1,2,0,0,0,0,4,0,4,0,,,,,,,,,,,,,,,,,1288.7250518002547,None,1289.4255542000756,1290.0257967999205,1290.0094535001554,1292.0100504001603,None,1,0.6138651203364134,2.6144648203626275,decreament,0.6,21,standard,None,100,,,,,,,,m,18,220,fr,r,0,raw,2022-06-07_16h56.31.728,oddball,2022.1.2,59.889707223555476,
10,,,,,0,1,1,2,0,0,0,0,5,0,5,0,,,,,,,,,,,,,,,,,1292.0267882002518,None,1292.6265922002494,1293.1104736998677,1293.0771963000298,1295.0777060999535,j,1,0.48096812004223466,2.4814337198622525,decreament,0.48,24,oddball,j,80,0.7022748002782464,,,,,,,m,18,220,fr,r,0,raw,2022-06-07_16h56.31.728,oddball,2022.1.2,59.889707223555476,
10,,,,,0,1,1,2,0,0,0,0,6,0,6,0,,,,,,,,,,,,,,,,,1295.0946392002515,None,1295.6452625002712,1296.2448292002082,1296.2281307000667,1298.2290666000918,None,1,0.6092449203133583,2.610253220424056,decreament,0.6,21,standard,None,100,,,,,,,,m,18,220,fr,r,0,raw,2022-06-07_16h56.31.728,oddball,2022.1.2,59.889707223555476,
10,,,,,0,1,1,2,0,0,0,0,7,0,7,0,,,,,,,,,,,,,,,,,1298.2456892002374,None,1298.8289211001247,1299.429307000246,1299.4128239001147,1301.4134384999052,None,1,0.6136787203140557,2.614280620124191,decreament,0.6,21,standard,None,100,,,,,,,,m,18,220,fr,r,0,raw,2022-06-07_16h56.31.728,oddball,2022.1.2,59.889707223555476,
10,,,,,0,1,1,2,0,0,0,0,8,0,8,0,,,,,,,,,,,,,,,,,1301.4301144001074,None,1302.0637480998412,1302.663800700102,1302.6475586998276,1304.647800900042,None,1,0.6097265197895467,2.6096078199334443,decreament,0.6,21,standard,None,100,,,,,,,,m,18,220,fr,r,0,raw,2022-06-07_16h56.31.728,oddball,2022.1.2,59.889707223555476,
10,,,,,0,1,1,2,0,0,0,0,9,0,9,0,,,,,,,,,,,,,,,,,1304.6645382000133,None,1305.3315305002034,1305.9319103001617,1305.9153495002538,1307.916213199962,None,1,0.6117234202101827,2.6126035200431943,decreament,0.6,21,standard,None,100,,,,,,,,m,18,220,fr,r,0,raw,2022-06-07_16h56.31.728,oddball,2022.1.2,59.889707223555476,
10,,,,,0,1,1,2,0,0,0,0,10,0,10,0,,,,,,,,,,,,,,,,,1307.9332699002698,None,1308.5830919002183,1308.832921499852,1308.7999896002002,1310.8007884998806,None,0,0.2456746199168265,2.246474019717425,decreament,0.24,22,oddball,j,40,,,,,,,,m,18,220,fr,r,0,raw,2022-06-07_16h56.31.728,oddball,2022.1.2,59.889707223555476,
10,,,,,0,1,1,2,0,0,0,0,11,0,11,0,,,,,,,,,,,,,,,,,1310.8170481999405,None,1311.500470600091,1312.1006388999522,1312.0677324002609,1314.0688626999035,None,1,0.5990388197824359,2.6002288199961185,decreament,0.6,21,standard,None,100,,,,,,,,m,18,220,fr,r,0,raw,2022-06-07_16h56.31.728,oddball,2022.1.2,59.889707223555476,
10,,,,,0,1,1,2,0,0,0,0,12,0,12,0,,,,,,,,,,,,,,,,,1314.0861853999086,None,1314.8685142998584,1315.4688746999018,1315.4522715001367,1317.4529798999429,j,0,0.61235111951828,2.6130828196182847,decreament,0.6,21,standard,None,100,0.8632362000644207,,,,,,,m,18,220,fr,r,0,raw,2022-06-07_16h56.31.728,oddball,2022.1.2,59.889707223555476,
10,,,,,0,1,1,2,0,0,0,0,13,0,13,0,,,,,,,,,,,,,,,,,1317.4696375001222,None,1318.2866175998934,1318.8867978001945,1318.870327600278,1320.8712414000183,None,1,0.6129658198915422,2.6139466199092567,decreament,0.6,21,standard,None,100,,,,,,,,m,18,220,fr,r,0,raw,2022-06-07_16h56.31.728,oddball,2022.1.2,59.889707223555476,
