grating_freq,blocks_prac.thisRepN,blocks_prac.thisTrialN,blocks_prac.thisN,blocks_prac.thisIndex,blocks.thisRepN,blocks.thisTrialN,blocks.thisN,blocks.thisIndex,repeat_freq.thisRepN,repeat_freq.thisTrialN,repeat_freq.thisN,repeat_freq.thisIndex,trials.thisRepN,trials.thisTrialN,trials.thisN,trials.thisIndex,break_loop.thisRepN,break_loop.thisTrialN,break_loop.thisN,break_loop.thisIndex,rest_loop.thisRepN,rest_loop.thisTrialN,rest_loop.thisN,rest_loop.thisIndex,instruct_prac_text.started,instruct_prac_text.stopped,b_instruct_text_2_.started,b_instruct_text_2_.stopped,prac_done_text.started,prac_done_text.stopped,instruct_text.started,instruct_text.stopped,fixation.started,fixation.stopped,grating.started,grating.stopped,blank.started,blank.stopped,resp.keys,resp.corr,resp.started,resp.stopped,direction,duration,trigger,stim_type,corr_ans,scaling,resp.rt,rest_text.started,rest_text.stopped,text_2.started,text_2.stopped,thx_txt.started,thx_txt.stopped,gender,age,participant,language,main_hand,nBlock_prac,file_suffix,date,expName,psychopyVersion,frameRate,
20,,,,,0,0,0,3,0,0,0,0,0,0,0,0,,,,,,,,,21.02933229971677,None,28.368076299782842,None,34.37668340001255,None,39.35028090002015,None,43.656518899835646,None,44.21118199964985,44.82361129997298,44.773534999694675,46.77483889972791,None,1,0.6120296902954578,2.613432990387082,increament,0.6,45,standard,None,100,,,,,,,,f,23,221,fr,r,0,raw,2022-06-08_16h30.47.551,oddball,2022.1.2,59.86722661075024,
20,,,,,0,0,0,3,0,0,0,0,1,0,1,0,,,,,,,,,,,,,,,,,46.79103229986504,None,47.374875199981034,47.97522410005331,47.95850079972297,49.95903699984774,None,1,0.6135239894501865,2.6140339891426265,increament,0.6,45,standard,None,100,,,,,,,,f,23,221,fr,r,0,raw,2022-06-08_16h30.47.551,oddball,2022.1.2,59.86722661075024,
20,,,,,0,0,0,3,0,0,0,0,2,0,2,0,,,,,,,,,,,,,,,,,49.97562129981816,None,50.52640309976414,51.12619109963998,51.109372599981725,53.11022949963808,None,1,0.6091644898988307,2.610030190087855,increament,0.6,45,standard,None,100,,,,,,,,f,23,221,fr,r,0,raw,2022-06-08_16h30.47.551,oddball,2022.1.2,59.86722661075024,
20,,,,,0,0,0,3,0,0,0,0,3,0,3,0,,,,,,,,,,,,,,,,,53.12701359996572,None,53.72745899995789,54.327308299951255,54.31110509997234,56.311862299684435,None,1,0.6122173904441297,2.6129997903481126,increament,0.6,45,standard,None,100,,,,,,,,f,23,221,fr,r,0,raw,2022-06-08_16h30.47.551,oddball,2022.1.2,59.86722661075024,
20,,,,,0,0,0,3,0,0,0,0,4,0,4,0,,,,,,,,,,,,,,,,,56.32830519974232,None,56.89507579989731,57.49519159970805,57.47857779962942,59.479550399817526,None,1,0.6124975900165737,2.6134879901073873,increament,0.6,45,standard,None,100,,,,,,,,f,23,221,fr,r,0,raw,2022-06-08_16h30.47.551,oddball,2022.1.2,59.86722661075024,
20,,,,,0,0,0,3,0,0,0,0,5,0,5,0,,,,,,,,,,,,,,,,,59.49610590003431,None,60.046421200037,61.01292249979451,60.99641059990972,62.99729219963774,j,1,0.9748298898339272,2.975757190026343,increament,0.96,48,oddball,j,160,0.44924600049853325,,,,,,,f,23,221,fr,r,0,raw,2022-06-08_16h30.47.551,oddball,2022.1.2,59.86722661075024,
20,,,,,0,0,0,3,0,0,0,0,6,0,6,0,,,,,,,,,,,,,,,,,63.0141415996477,None,63.81442809989676,64.41447780001909,64.39828810002655,66.39927269984037,None,1,0.6125778900459409,2.61359039042145,increament,0.6,45,standard,None,100,,,,,,,,f,23,221,fr,r,0,raw,2022-06-08_16h30.47.551,oddball,2022.1.2,59.86722661075024,
20,,,,,0,0,0,3,0,0,0,0,7,0,7,0,,,,,,,,,,,,,,,,,66.4160993997939,None,67.06584020005539,67.66570540005341,67.6492575998418,69.65005389973521,None,1,0.6128075895830989,2.613686189521104,increament,0.6,45,standard,None,100,,,,,,,,f,23,221,fr,r,0,raw,2022-06-08_16h30.47.551,oddball,2022.1.2,59.86722661075024,
20,,,,,0,0,0,3,0,0,0,0,8,0,8,0,,,,,,,,,,,,,,,,,69.66659939987585,None,70.25006120000035,70.85050339996815,70.83388129994273,72.83455449994653,None,1,0.6114641893655062,2.612123389262706,increament,0.6,45,standard,None,100,,,,,,,,f,23,221,fr,r,0,raw,2022-06-08_16h30.47.551,oddball,2022.1.2,59.86722661075024,
20,,,,,0,0,0,3,0,0,0,0,9,0,9,0,,,,,,,,,,,,,,,,,72.85099269961938,None,73.55154079990461,74.15176869975403,74.13508090004325,76.13540659984574,None,1,0.6108003901317716,2.6110539897345006,increament,0.6,45,standard,None,100,,,,,,,,f,23,221,fr,r,0,raw,2022-06-08_16h30.47.551,oddball,2022.1.2,59.86722661075024,
20,,,,,0,0,0,3,0,0,0,0,10,0,10,0,,,,,,,,,,,,,,,,,76.15229399967939,None,76.75263640005141,77.60279130004346,77.56983239995316,79.57052179984748,j,1,0.8460556897334754,2.846781689673662,increament,0.84,47,oddball,j,140,0.5560393002815545,,,,,,,f,23,221,fr,r,0,raw,2022-06-08_16h30.47.551,oddball,2022.1.2,59.86722661075024,
20,,,,,0,0,0,3,0,0,0,0,11,0,11,0,,,,,,,,,,,,,,,,,79.58706229971722,None,80.23722619982436,80.83742319978774,80.82059539994225,82.82138189999387,None,1,0.6126752905547619,2.6134475907310843,increament,0.6,45,standard,None,100,,,,,,,,f,23,221,fr,r,0,raw,2022-06-08_16h30.47.551,oddball,2022.1.2,59.86722661075024,
20,,,,,0,0,0,3,0,0,0,0,12,0,12,0,,,,,,,,,,,,,,,,,82.83840380003676,None,83.42148879962042,84.0220593996346,84.00548119982705,86.0061769997701,None,1,0.6121790898032486,2.612909290008247,increament,0.6,45,standard,None,100,,,,,,,,f,23,221,fr,r,0,raw,2022-06-08_16h30.47.551,oddball,2022.1.2,59.86722661075024,
20,,,,,0,0,0,3,0,0,0,0,13,0,13,0,,,,,,,,,,,,,,,,,86.02284220000729,None,86.62296309974045,87.22352369967848,87.20659719966352,89.20707339979708,None,1,0.6105206897482276,2.6109499894082546,increament,0.6,45,standard,None,100,,,,,,,,f,23,221,fr,r,0,raw,2022-06-08_16h30.47.551,oddball,2022.1.2,59.86722661075024,
20,,,,,0,0,0,3,0,0,0,0,14,0,14,0,,,,,,,,,,,,,,,,,89.2237746999599,None,90.02423729980364,90.62473649997264,90.60821439977735,92.60859479987994,None,1,0.6126349898986518,2.6129908901639283,increament,0.6,45,standard,None,100,,,,,,,,f,23,221,fr,r,0,raw,2022-06-08_16h30.47.551,oddball,2022.1.2,59.86722661075024,
20,,,,,0,0,0,3,0,0,0,0,15,0,15,0,,,,,,,,,,,,,,,,,92.6251602997072,None,93.3588628997095,93.95934910001233,93.94266329985112,95.94307369971648,None,1,0.613538290373981,2.6138635901734233,increament,0.6,45,standard,None,100,,,,,,,,f,23,221,fr,r,0,raw,2022-06-08_16h30.47.551,oddball,2022.1.2,59.86722661075024,
20,,,,,0,0,0,3,0,0,0,0,16,0,16,0,,,,,,,,,,,,,,,,,95.95953099988401,None,96.56026929989457,97.1603012997657,97.14366329973564,99.14385579992086,None,1,0.6108747902326286,2.6110032899305224,increament,0.6,45,standard,None,100,,,,,,,,f,23,221,fr,r,0,raw,2022-06-08_16h30.47.551,oddball,2022.1.2,59.86722661075024,
20,,,,,0,0,0,3,0,0,0,0,17,0,17,0,,,,,,,,,,,,,,,,,99.16074620001018,None,99.81077079987153,100.41096240002662,100.39432549988851,102.39557159971446,None,1,0.6150983897969127,2.616385089699179,increament,0.6,45,standard,None,100,,,,,,,,f,23,221,fr,r,0,raw,2022-06-08_16h30.47.551,oddball,2022.1.2,59.86722661075024,
20,,,,,0,0,0,3,0,0,0,0,18,0,18,0,,,,,,,,,,,,,,,,,102.41219939989969,None,103.04644079972059,103.64597269985825,103.6295236996375,105.63007459975779,None,1,0.6083886898122728,2.6089476901106536,increament,0.6,45,standard,None,100,,,,,,,,f,23,221,fr,r,0,raw,2022-06-08_16h30.47.551,oddball,2022.1.2,59.86722661075024,
20,,,,,0,0,0,3,0,0,0,0,19,0,19,0,,,,,,,,,,,,,,,,,105.64720909995958,None,106.1969883996062,106.79732109978795,106.78055399982259,108.78129019960761,None,1,0.6129094902426004,2.613613990135491,increament,0.6,45,standard,None,100,,,,,,,,f,23,221,fr,r,0,raw,2022-06-08_16h30.47.551,oddball,2022.1.2,59.86722661075024,
20,,,,,0,0,0,3,0,0,0,0,20,0,20,0,,,,,,,,,,,,,,,,,108.79786939965561,None,109.38107909960672,109.98130209976807,109.96461909962818,111.96591309970245,None,1,0.6146966898813844,2.616073689889163,increament,0.6,45,standard,None,100,,,,,,,,f,23,221,fr,r,0,raw,2022-06-08_16h30.47.551,oddball,2022.1.2,59.86722661075024,
20,,,,,0,0,0,3,0,0,0,0,21,0,21,0,,,,,,,,,,,,,,,,,111.98267899965867,None,112.51613859971985,113.11639550002292,113.09951059985906,115.10054189991206,None,1,0.6125335898250341,2.613572089932859,increament,0.6,45,standard,None,100,,,,,,,,f,23,221,fr,r,0,raw,2022-06-08_16h30.47.551,oddball,2022.1.2,59.86722661075024,
20,,,,,0,0,0,3,0,0,0,0,22,0,22,0,,,,,,,,,,,,,,,,,115.1174670998007,None,115.76777239982039,116.36752179963514,116.35096089961007,118.35152799962088,None,1,0.6082238899543881,2.6087720901705325,increament,0.6,45,standard,None,100,,,,,,,,f,23,221,fr,r,0,raw,2022-06-08_16h30.47.551,oddball,2022.1.2,59.86722661075024,
20,,,,,0,0,0,3,0,0,0,0,23,0,23,0,,,,,,,,,,,,,,,,,118.36813479987904,None,119.0352657996118,119.63521640002728,119.6186748999171,121.61939299991354,None,1,0.61289939051494,2.6136306901462376,increament,0.6,45,standard,None,100,,,,,,,,f,23,221,fr,r,0,raw,2022-06-08_16h30.47.551,oddball,2022.1.2,59.86722661075024,
20,,,,,0,0,0,3,0,0,0,0,24,0,24,0,,,,,,,,,,,,,,,,,121.63637499976903,None,122.16977849975228,122.77004819968715,122.75395329995081,124.75404999963939,None,1,0.6096515897661448,2.609651189763099,increament,0.6,45,standard,None,100,,,,,,,,f,23,221,fr,r,0,raw,2022-06-08_16h30.47.551,oddball,2022.1.2,59.86722661075024,
20,,,,,0,0,0,3,0,0,0,0,25,0,25,0,,,,,,,,,,,,,,,,,124.77088339999318,None,125.3039816999808,126.03767409967259,126.0044078999199,128.00544019974768,None,0,0.7304271897301078,2.7315158899873495,increament,0.72,46,oddball,j,120,,,,,,,,f,23,221,fr,r,0,raw,2022-06-08_16h30.47.551,oddball,2022.1.2,59.86722661075024,
20,,,,,0,0,0,3,0,0,0,0,26,0,26,0,,,,,,,,,,,,,,,,,128.02191089978442,None,128.63896259991452,129.2389090997167,129.2224752996117,131.22308999998495,None,1,0.6117590903304517,2.6123591903597116,increament,0.6,45,standard,None,100,,,,,,,,f,23,221,fr,r,0,raw,2022-06-08_16h30.47.551,oddball,2022.1.2,59.86722661075024,
20,,,,,0,0,0,3,0,0,0,0,27,0,27,0,,,,,,,,,,,,,,,,,131.23981009982526,None,131.9069914999418,132.5070013999939,132.49083599960431,134.4909566999413,None,1,0.611509489826858,2.6115650897845626,increament,0.6,45,standard,None,100,,,,,,,,f,23,221,fr,r,0,raw,2022-06-08_16h30.47.551,oddball,2022.1.2,59.86722661075024,
20,,,,,0,0,0,3,0,0,0,0,28,0,28,0,,,,,,,,,,,,,,,,,134.50790489977226,None,135.1078537995927,135.7080238997005,135.69174909964204,137.69220920000225,None,1,0.6130046900361776,2.613425590097904,increament,0.6,45,standard,None,100,,,,,,,,f,23,221,fr,r,0,raw,2022-06-08_16h30.47.551,oddball,2022.1.2,59.86722661075024,
20,,,,,0,0,0,3,0,0,0,0,29,0,29,0,,,,,,,,,,,,,,,,,137.7087592999451,None,138.40910219959915,139.00975009985268,138.9928052998148,140.99366179993376,None,1,0.6139168897643685,2.614753889851272,increament,0.6,45,standard,None,100,,,,,,,,f,23,221,fr,r,0,raw,2022-06-08_16h30.47.551,oddball,2022.1.2,59.86722661075024,
20,,,,,0,0,0,3,1,0,1,0,0,0,0,0,,,,,,,,,,,,,,,144.92200439982116,None,148.04628799995407,None,148.71326870005578,149.31333689996973,149.29664659965783,151.2974230996333,None,1,0.6119978898204863,2.612768089864403,decreament,0.6,41,standard,None,100,,141.01062089996412,None,,,,,f,23,221,fr,r,0,raw,2022-06-08_16h30.47.551,oddball,2022.1.2,59.86722661075024,
20,,,,,0,0,0,3,1,0,1,0,1,0,1,0,,,,,,,,,,,,,,,,,151.31434209970757,None,151.83146059978753,152.43111300002784,152.41438609967008,154.41549969976768,None,1,0.6116370898671448,2.6127772899344563,decreament,0.6,41,standard,None,100,,,,,,,,f,23,221,fr,r,0,raw,2022-06-08_16h30.47.551,oddball,2022.1.2,59.86722661075024,
20,,,,,0,0,0,3,1,0,1,0,2,0,2,0,,,,,,,,,,,,,,,,,154.43191829975694,None,154.99895439995453,155.59903139993548,155.58266019960865,157.58293609973043,None,1,0.6126509900204837,2.6128665902651846,decreament,0.6,41,standard,None,100,,,,,,,,f,23,221,fr,r,0,raw,2022-06-08_16h30.47.551,oddball,2022.1.2,59.86722661075024,
20,,,,,0,0,0,3,1,0,1,0,3,0,3,0,,,,,,,,,,,,,,,,,157.59981889976189,None,158.33321549976245,158.93365819985047,158.9172299997881,160.91785019962117,None,1,0.6129924901761115,2.6136103901080787,decreament,0.6,41,standard,None,100,,,,,,,,f,23,221,fr,r,0,raw,2022-06-08_16h30.47.551,oddball,2022.1.2,59.86722661075024,
20,,,,,0,0,0,3,1,0,1,0,4,0,4,0,,,,,,,,,,,,,,,,,160.9346394999884,None,161.701634099707,162.30177129991353,162.28491069981828,164.28568199975416,None,1,0.6107532903552055,2.6115243900567293,decreament,0.6,41,standard,None,100,,,,,,,,f,23,221,fr,r,0,raw,2022-06-08_16h30.47.551,oddball,2022.1.2,59.86722661075024,
20,,,,,0,0,0,3,1,0,1,0,5,0,5,0,,,,,,,,,,,,,,,,,164.30261430004612,None,164.98606200003996,165.58605809975415,165.5694489995949,167.56986969988793,None,1,0.6109420894645154,2.6113358894363046,decreament,0.6,41,standard,None,100,,,,,,,,f,23,221,fr,r,0,raw,2022-06-08_16h30.47.551,oddball,2022.1.2,59.86722661075024,
20,,,,,0,0,0,3,1,0,1,0,6,0,6,0,,,,,,,,,,,,,,,,,167.58649489982054,None,168.1870367997326,168.6703305998817,168.63719399971887,170.6376409996301,j,1,0.47968159057199955,2.4800774906761944,decreament,0.48,44,oddball,j,80,0.6491475999355316,,,,,,,f,23,221,fr,r,0,raw,2022-06-08_16h30.47.551,oddball,2022.1.2,59.86722661075024,
20,,,,,0,0,0,3,1,0,1,0,7,0,7,0,,,,,,,,,,,,,,,,,170.65427419962361,None,171.33824169961736,171.93853479996324,171.9218267998658,173.92289639962837,None,1,0.6119598899967968,2.6130752903409302,decreament,0.6,41,standard,None,100,,,,,,,,f,23,221,fr,r,0,raw,2022-06-08_16h30.47.551,oddball,2022.1.2,59.86722661075024,
20,,,,,0,0,0,3,1,0,1,0,8,0,8,0,,,,,,,,,,,,,,,,,173.9394336999394,None,174.622745399829,175.22306119976565,175.20680369995534,177.20726519962773,None,1,0.6134561905637383,2.6138495905324817,decreament,0.6,41,standard,None,100,,,,,,,,f,23,221,fr,r,0,raw,2022-06-08_16h30.47.551,oddball,2022.1.2,59.86722661075024,
20,,,,,0,0,0,3,1,0,1,0,9,0,9,0,,,,,,,,,,,,,,,,,177.2238348997198,None,177.94113489985466,178.54127819975838,178.52458189986646,180.52478599967435,None,1,0.6094669895246625,2.6096197897568345,decreament,0.6,41,standard,None,100,,,,,,,,f,23,221,fr,r,0,raw,2022-06-08_16h30.47.551,oddball,2022.1.2,59.86722661075024,
20,,,,,0,0,0,3,1,0,1,0,10,0,10,0,,,,,,,,,,,,,,,,,180.54173860000446,None,181.39190319972113,181.99236289970577,181.97579549998045,183.97662519989535,None,1,0.6132253892719746,2.6141130891628563,decreament,0.6,41,standard,None,100,,,,,,,,f,23,221,fr,r,0,raw,2022-06-08_16h30.47.551,oddball,2022.1.2,59.86722661075024,
20,,,,,0,0,0,3,1,0,1,0,11,0,11,0,,,,,,,,,,,,,,,,,183.99404529994354,None,184.5433946000412,185.14342609979212,185.12693380005658,187.12776589998975,None,1,0.6098056891933084,2.610645989421755,decreament,0.6,41,standard,None,100,,,,,,,,f,23,221,fr,r,0,raw,2022-06-08_16h30.47.551,oddball,2022.1.2,59.86722661075024,
20,,,,,0,0,0,3,1,0,1,0,12,0,12,0,,,,,,,,,,,,,,,,,187.14485649997368,None,187.81136709963903,188.41160300001502,188.3948757997714,190.39534479985014,None,1,0.6122285900637507,2.6126463902182877,decreament,0.6,41,standard,None,100,,,,,,,,f,23,221,fr,r,0,raw,2022-06-08_16h30.47.551,oddball,2022.1.2,59.86722661075024,
20,,,,,0,0,0,3,1,0,1,0,13,0,13,0,,,,,,,,,,,,,,,,,190.4125270997174,None,190.99621080001816,191.59610309964046,191.57932749995962,193.57999819982797,None,1,0.6115249902941287,2.6122203902341425,decreament,0.6,41,standard,None,100,,,,,,,,f,23,221,fr,r,0,raw,2022-06-08_16h30.47.551,oddball,2022.1.2,59.86722661075024,
20,,,,,0,0,0,3,1,0,1,0,14,0,14,0,,,,,,,,,,,,,,,,,193.59694839967415,None,194.2467288998887,194.84725089976564,194.8305948995985,196.83114959998056,None,1,0.6138196899555624,2.61439369013533,decreament,0.6,41,standard,None,100,,,,,,,,f,23,221,fr,r,0,raw,2022-06-08_16h30.47.551,oddball,2022.1.2,59.86722661075024,
20,,,,,0,0,0,3,1,0,1,0,15,0,15,0,,,,,,,,,,,,,,,,,196.8481541997753,None,197.56512229982764,198.1651875996031,198.14847949985415,200.14944389974698,None,1,0.6119005894288421,2.6128995893523097,decreament,0.6,41,standard,None,100,,,,,,,,f,23,221,fr,r,0,raw,2022-06-08_16h30.47.551,oddball,2022.1.2,59.86722661075024,
20,,,,,0,0,0,3,1,0,1,0,16,0,16,0,,,,,,,,,,,,,,,,,200.16597920004278,None,200.71604579966515,201.31621499964967,201.29981149965897,203.30041839974,None,1,0.613556089811027,2.61420168960467,decreament,0.6,41,standard,None,100,,,,,,,,f,23,221,fr,r,0,raw,2022-06-08_16h30.47.551,oddball,2022.1.2,59.86722661075024,
20,,,,,0,0,0,3,1,0,1,0,17,0,17,0,,,,,,,,,,,,,,,,,203.31710259988904,None,203.93422719975933,204.5342774996534,204.5175661998801,206.5183528997004,None,1,0.6094173900783062,2.61018119007349,decreament,0.6,41,standard,None,100,,,,,,,,f,23,221,fr,r,0,raw,2022-06-08_16h30.47.551,oddball,2022.1.2,59.86722661075024,
20,,,,,0,0,0,3,1,0,1,0,18,0,18,0,,,,,,,,,,,,,,,,,206.5350922998041,None,207.11859299987555,207.71862880000845,207.70199480000883,209.70303109986708,None,1,0.612491890322417,2.6135283899493515,decreament,0.6,41,standard,None,100,,,,,,,,f,23,221,fr,r,0,raw,2022-06-08_16h30.47.551,oddball,2022.1.2,59.86722661075024,
20,,,,,0,0,0,3,1,0,1,0,19,0,19,0,,,,,,,,,,,,,,,,,209.71956989960745,None,210.52028009993955,211.12017059978098,211.10358859971166,213.10419919993728,None,1,0.6106206895783544,2.6112233893945813,decreament,0.6,41,standard,None,100,,,,,,,,f,23,221,fr,r,0,raw,2022-06-08_16h30.47.551,oddball,2022.1.2,59.86722661075024,
20,,,,,0,0,0,3,1,0,1,0,20,0,20,0,,,,,,,,,,,,,,,,,213.12096319999546,None,213.78788359975442,214.38811649987474,214.37125239986926,216.37187109980732,None,1,0.6106744897551835,2.6112980898469687,decreament,0.6,41,standard,None,100,,,,,,,,f,23,221,fr,r,0,raw,2022-06-08_16h30.47.551,oddball,2022.1.2,59.86722661075024,
20,,,,,0,0,0,3,1,0,1,0,21,0,21,0,,,,,,,,,,,,,,,,,216.38907899986953,None,216.93900189967826,217.53902209969237,217.52252449980006,219.52314049983397,None,1,0.611752990167588,2.6123642902821302,decreament,0.6,41,standard,None,100,,,,,,,,f,23,221,fr,r,0,raw,2022-06-08_16h30.47.551,oddball,2022.1.2,59.86722661075024,
20,,,,,0,0,0,3,1,0,1,0,22,0,22,0,,,,,,,,,,,,,,,,,219.53995030000806,None,220.20707739982754,220.8073284998536,220.79045769991353,222.7914040996693,None,1,0.6094720899127424,2.610434189904481,decreament,0.6,41,standard,None,100,,,,,,,,f,23,221,fr,r,0,raw,2022-06-08_16h30.47.551,oddball,2022.1.2,59.86722661075024,
20,,,,,0,0,0,3,1,0,1,0,23,0,23,0,,,,,,,,,,,,,,,,,222.80797560000792,None,223.3919061999768,223.9921089997515,223.97502009989694,225.97628049971536,None,1,0.6092088897712529,2.610536189749837,decreament,0.6,41,standard,None,100,,,,,,,,f,23,221,fr,r,0,raw,2022-06-08_16h30.47.551,oddball,2022.1.2,59.86722661075024,
20,,,,,0,0,0,3,1,0,1,0,24,0,24,0,,,,,,,,,,,,,,,,,225.99454869981855,None,226.592529699672,226.9598269998096,226.92643589992076,228.92706110002473,j,1,0.36254569003358483,2.363184290006757,decreament,0.36,43,oddball,j,60,0.8311276002787054,,,,,,,f,23,221,fr,r,0,raw,2022-06-08_16h30.47.551,oddball,2022.1.2,59.86722661075024,
20,,,,,0,0,0,3,1,0,1,0,25,0,25,0,,,,,,,,,,,,,,,,,228.945179999806,None,229.76005509961396,230.3606518995948,230.34409549972042,232.3448451999575,None,1,0.6150728901848197,2.6158416904509068,decreament,0.6,41,standard,None,100,,,,,,,,f,23,221,fr,r,0,raw,2022-06-08_16h30.47.551,oddball,2022.1.2,59.86722661075024,
20,,,,,0,0,0,3,1,0,1,0,26,0,26,0,,,,,,,,,,,,,,,,,232.3615060998127,None,233.0452082999982,233.64580109994859,233.62870609993115,235.62936739996076,None,1,0.6096108900383115,2.610149889718741,decreament,0.6,41,standard,None,100,,,,,,,,f,23,221,fr,r,0,raw,2022-06-08_16h30.47.551,oddball,2022.1.2,59.86722661075024,
20,,,,,0,0,0,3,1,0,1,0,27,0,27,0,,,,,,,,,,,,,,,,,235.64599179988727,None,236.42981769982725,237.03021129965782,237.01345960004255,239.014180699829,None,1,0.6093634902499616,2.6100122900679708,decreament,0.6,41,standard,None,100,,,,,,,,f,23,221,fr,r,0,raw,2022-06-08_16h30.47.551,oddball,2022.1.2,59.86722661075024,
20,,,,,0,0,0,3,1,0,1,0,28,0,28,0,,,,,,,,,,,,,,,,,239.03083689976484,None,239.64758539991453,240.24765100004151,240.23106669960544,242.23173969984055,None,1,0.612468789331615,2.6131483893841505,decreament,0.6,41,standard,None,100,,,,,,,,f,23,221,fr,r,0,raw,2022-06-08_16h30.47.551,oddball,2022.1.2,59.86722661075024,
20,,,,,0,0,0,3,1,0,1,0,29,0,29,0,,,,,,,,,,,,,,,,,242.2483087000437,None,242.93234399985522,243.1825198996812,243.1490388996899,245.14955829968676,j,1,0.24143109051510692,2.241928890813142,decreament,0.24,42,oddball,j,40,0.7193492003716528,,,,,,,f,23,221,fr,r,0,raw,2022-06-08_16h30.47.551,oddball,2022.1.2,59.86722661075024,
20,,,,,0,0,0,3,2,0,2,0,0,0,0,0,,,,,,,,,,,,,,,248.32158460002393,None,251.43549779988825,None,252.00245949998498,252.60247609997168,252.5857515996322,254.58650449989364,None,1,0.6087095895782113,2.6094809896312654,increament,0.6,45,standard,None,100,,245.16646909993142,None,,,,,f,23,221,fr,r,0,raw,2022-06-08_16h30.47.551,oddball,2022.1.2,59.86722661075024,
20,,,,,0,0,0,3,2,0,2,0,1,0,1,0,,,,,,,,,,,,,,,,,254.60326989972964,None,255.25385809969157,255.8539545997046,255.83751789992675,257.83814819995314,None,1,0.6114584896713495,2.6120452899485826,increament,0.6,45,standard,None,100,,,,,,,,f,23,221,fr,r,0,raw,2022-06-08_16h30.47.551,oddball,2022.1.2,59.86722661075024,
20,,,,,0,0,0,3,2,0,2,0,2,0,2,0,,,,,,,,,,,,,,,,,257.8545365999453,None,258.52163559990004,259.12148889992386,259.1051924000494,261.10578549979255,None,1,0.6124118901789188,2.613093589898199,increament,0.6,45,standard,None,100,,,,,,,,f,23,221,fr,r,0,raw,2022-06-08_16h30.47.551,oddball,2022.1.2,59.86722661075024,
20,,,,,0,0,0,3,2,0,2,0,3,0,3,0,,,,,,,,,,,,,,,,,261.12264069961384,None,261.7557971999049,262.3564083999954,262.33962979959324,264.34033309994265,None,1,0.611506789457053,2.6122069894336164,increament,0.6,45,standard,None,100,,,,,,,,f,23,221,fr,r,0,raw,2022-06-08_16h30.47.551,oddball,2022.1.2,59.86722661075024,
20,,,,,0,0,0,3,2,0,2,0,4,0,4,0,,,,,,,,,,,,,,,,,264.3571039000526,None,264.9404752999544,265.540591399651,265.5239609000273,267.5247979997657,None,1,0.612695989664644,2.613578289747238,increament,0.6,45,standard,None,100,,,,,,,,f,23,221,fr,r,0,raw,2022-06-08_16h30.47.551,oddball,2022.1.2,59.86722661075024,
20,,,,,0,0,0,3,2,0,2,0,5,0,5,0,,,,,,,,,,,,,,,,,267.54182239994407,None,268.12524720001966,268.8583469996229,268.8250517998822,270.8258932000026,j,1,0.725854389835149,2.7267210902646184,increament,0.72,46,oddball,j,120,0.740049900021404,,,,,,,f,23,221,fr,r,0,raw,2022-06-08_16h30.47.551,oddball,2022.1.2,59.86722661075024,
20,,,,,0,0,0,3,2,0,2,0,6,0,6,0,,,,,,,,,,,,,,,,,270.84260779991746,None,271.44298999989405,272.043103300035,272.0265421997756,274.02768850000575,None,1,0.6076732901856303,2.6089285905472934,increament,0.6,45,standard,None,100,,,,,,,,f,23,221,fr,r,0,raw,2022-06-08_16h30.47.551,oddball,2022.1.2,59.86722661075024,
20,,,,,0,0,0,3,2,0,2,0,7,0,7,0,,,,,,,,,,,,,,,,,274.0460624997504,None,274.6442563999444,275.2446334999986,275.227857099846,277.22902669990435,None,1,0.6125947902910411,2.6137794898822904,increament,0.6,45,standard,None,100,,,,,,,,f,23,221,fr,r,0,raw,2022-06-08_16h30.47.551,oddball,2022.1.2,59.86722661075024,
20,,,,,0,0,0,3,2,0,2,0,8,0,8,0,,,,,,,,,,,,,,,,,277.2461112998426,None,277.8288146997802,278.42883979994804,278.41253549978137,280.41305239964277,None,1,0.6099146902561188,2.610467290505767,increament,0.6,45,standard,None,100,,,,,,,,f,23,221,fr,r,0,raw,2022-06-08_16h30.47.551,oddball,2022.1.2,59.86722661075024,
20,,,,,0,0,0,3,2,0,2,0,9,0,9,0,,,,,,,,,,,,,,,,,280.4296869998798,None,281.2470486997627,281.8468484999612,281.83039439981803,283.83121360000223,None,1,0.6117614898830652,2.6125816898420453,increament,0.6,45,standard,None,100,,,,,,,,f,23,221,fr,r,0,raw,2022-06-08_16h30.47.551,oddball,2022.1.2,59.86722661075024,
20,,,,,0,0,0,3,2,0,2,0,10,0,10,0,,,,,,,,,,,,,,,,,283.84767439961433,None,284.4478229996748,285.04802979994565,285.03148530004546,287.03233799990267,None,1,0.6092704902403057,2.610142690129578,increament,0.6,45,standard,None,100,,,,,,,,f,23,221,fr,r,0,raw,2022-06-08_16h30.47.551,oddball,2022.1.2,59.86722661075024,
20,,,,,0,0,0,3,2,0,2,0,11,0,11,0,,,,,,,,,,,,,,,,,287.0487640998326,None,287.6161152999848,288.2159194997512,288.19928349973634,290.1997648999095,None,1,0.6124493908137083,2.612909690476954,increament,0.6,45,standard,None,100,,,,,,,,f,23,221,fr,r,0,raw,2022-06-08_16h30.47.551,oddball,2022.1.2,59.86722661075024,
20,,,,,0,0,0,3,2,0,2,0,12,0,12,0,,,,,,,,,,,,,,,,,290.2166430996731,None,290.8168840999715,291.41734919976443,291.40056659979746,293.40122999995947,None,1,0.6129893902689219,2.613643790129572,increament,0.6,45,standard,None,100,,,,,,,,f,23,221,fr,r,0,raw,2022-06-08_16h30.47.551,oddball,2022.1.2,59.86722661075024,
20,,,,,0,0,0,3,2,0,2,0,13,0,13,0,,,,,,,,,,,,,,,,,293.41806839965284,None,293.9846715996973,294.5853726998903,294.56834300002083,296.5692730997689,None,1,0.6128160902298987,2.613745490089059,increament,0.6,45,standard,None,100,,,,,,,,f,23,221,fr,r,0,raw,2022-06-08_16h30.47.551,oddball,2022.1.2,59.86722661075024,
20,,,,,0,0,0,3,2,0,2,0,14,0,14,0,,,,,,,,,,,,,,,,,296.5857581999153,None,297.1861461997032,297.7861003000289,297.7698340998031,299.770264999941,None,1,0.6132826898247004,2.6136762900277972,increament,0.6,45,standard,None,100,,,,,,,,f,23,221,fr,r,0,raw,2022-06-08_16h30.47.551,oddball,2022.1.2,59.86722661075024,
20,,,,,0,0,0,3,2,0,2,0,15,0,15,0,,,,,,,,,,,,,,,,,299.786866299808,None,300.33773979963735,300.93749619973823,300.9208288998343,302.9212752999738,None,1,0.6097688898444176,2.61012178985402,increament,0.6,45,standard,None,100,,,,,,,,f,23,221,fr,r,0,raw,2022-06-08_16h30.47.551,oddball,2022.1.2,59.86722661075024,
20,,,,,0,0,0,3,2,0,2,0,16,0,16,0,,,,,,,,,,,,,,,,,302.9382325997576,None,303.57172099966556,304.17191019980237,304.15525109972805,306.1566800000146,None,1,0.6097375894896686,2.611234789248556,increament,0.6,45,standard,None,100,,,,,,,,f,23,221,fr,r,0,raw,2022-06-08_16h30.47.551,oddball,2022.1.2,59.86722661075024,
20,,,,,0,0,0,3,2,0,2,0,17,0,17,0,,,,,,,,,,,,,,,,,306.17278519971296,None,306.80623449990526,307.7732069999911,307.7401582999155,309.7408588998951,j,1,0.9628538899123669,2.9638236896134913,increament,0.96,48,oddball,j,160,0.5680230003781617,,,,,,,f,23,221,fr,r,0,raw,2022-06-08_16h30.47.551,oddball,2022.1.2,59.86722661075024,
20,,,,,0,0,0,3,2,0,2,0,18,0,18,0,,,,,,,,,,,,,,,,,309.75742749962956,None,310.3743047998287,310.9748760997318,310.95809519989416,312.95863489992917,None,1,0.6131143900565803,2.613605590071529,increament,0.6,45,standard,None,100,,,,,,,,f,23,221,fr,r,0,raw,2022-06-08_16h30.47.551,oddball,2022.1.2,59.86722661075024,
20,,,,,0,0,0,3,2,0,2,0,19,0,19,0,,,,,,,,,,,,,,,,,312.9754494000226,None,313.50869749998674,314.10896239988506,314.09246929967776,316.0937709999271,None,1,0.614001190289855,2.615381690207869,increament,0.6,45,standard,None,100,,,,,,,,f,23,221,fr,r,0,raw,2022-06-08_16h30.47.551,oddball,2022.1.2,59.86722661075024,
20,,,,,0,0,0,3,2,0,2,0,20,0,20,0,,,,,,,,,,,,,,,,,316.1104361000471,None,316.7766432999633,317.37687419960275,317.3602877999656,319.3607621998526,None,1,0.6123524899594486,2.612977290060371,increament,0.6,45,standard,None,100,,,,,,,,f,23,221,fr,r,0,raw,2022-06-08_16h30.47.551,oddball,2022.1.2,59.86722661075024,
20,,,,,0,0,0,3,2,0,2,0,21,0,21,0,,,,,,,,,,,,,,,,,319.3777410998009,None,320.0449532000348,320.6449349997565,320.6284300000407,322.62899670004845,None,1,0.6114524900913239,2.6120389900170267,increament,0.6,45,standard,None,100,,,,,,,,f,23,221,fr,r,0,raw,2022-06-08_16h30.47.551,oddball,2022.1.2,59.86722661075024,
20,,,,,0,0,0,3,2,0,2,0,22,0,22,0,,,,,,,,,,,,,,,,,322.64584969962016,None,323.49601959995925,324.34609869960696,324.31279170000926,326.3141127997078,j,1,0.8453161898069084,2.8467078898102045,increament,0.84,47,oddball,j,140,0.5406516999937594,,,,,,,f,23,221,fr,r,0,raw,2022-06-08_16h30.47.551,oddball,2022.1.2,59.86722661075024,
20,,,,,0,0,0,3,2,0,2,0,23,0,23,0,,,,,,,,,,,,,,,,,326.33027629973367,None,326.91400490002707,327.5142035000026,327.4975740998052,329.4984728000127,None,1,0.613181290216744,2.614163590129465,increament,0.6,45,standard,None,100,,,,,,,,f,23,221,fr,r,0,raw,2022-06-08_16h30.47.551,oddball,2022.1.2,59.86722661075024,
20,,,,,0,0,0,3,2,0,2,0,24,0,24,0,,,,,,,,,,,,,,,,,329.51472699968144,None,330.08176589990035,330.6820838996209,330.6654246998951,332.66594839980826,None,1,0.6113851903937757,2.6119168903678656,increament,0.6,45,standard,None,100,,,,,,,,f,23,221,fr,r,0,raw,2022-06-08_16h30.47.551,oddball,2022.1.2,59.86722661075024,
20,,,,,0,0,0,3,2,0,2,0,25,0,25,0,,,,,,,,,,,,,,,,,332.6829760996625,None,333.4000665997155,334.00015740003437,333.9835622999817,335.98393439967185,None,1,0.6125255897641182,2.6128157898783684,increament,0.6,45,standard,None,100,,,,,,,,f,23,221,fr,r,0,raw,2022-06-08_16h30.47.551,oddball,2022.1.2,59.86722661075024,
20,,,,,0,0,0,3,2,0,2,0,26,0,26,0,,,,,,,,,,,,,,,,,336.00058549968526,None,336.70099140005186,337.30142709985375,337.2847356996499,339.2853377996944,None,1,0.6124889897182584,2.6130168894305825,increament,0.6,45,standard,None,100,,,,,,,,f,23,221,fr,r,0,raw,2022-06-08_16h30.47.551,oddball,2022.1.2,59.86722661075024,
20,,,,,0,0,0,3,2,0,2,0,27,0,27,0,,,,,,,,,,,,,,,,,339.3022229997441,None,339.9189108996652,340.51929509965703,340.50309309968725,342.5030918996781,None,1,0.611871590372175,2.6117618903517723,increament,0.6,45,standard,None,100,,,,,,,,f,23,221,fr,r,0,raw,2022-06-08_16h30.47.551,oddball,2022.1.2,59.86722661075024,
20,,,,,0,0,0,3,2,0,2,0,28,0,28,0,,,,,,,,,,,,,,,,,342.5196762997657,None,343.25358979962766,343.853785299696,343.8369091995992,345.83770129969344,None,1,0.6120875906199217,2.6128530902788043,increament,0.6,45,standard,None,100,,,,,,,,f,23,221,fr,r,0,raw,2022-06-08_16h30.47.551,oddball,2022.1.2,59.86722661075024,
20,,,,,0,0,0,3,2,0,2,0,29,0,29,0,,,,,,,,,,,,,,,,,345.85456650005654,None,346.50469370000064,347.1051385998726,347.0884279999882,349.0890397997573,None,1,0.6137220901437104,2.6142538897693157,increament,0.6,45,standard,None,100,,,,,,,,f,23,221,fr,r,0,raw,2022-06-08_16h30.47.551,oddball,2022.1.2,59.86722661075024,
20,,,,,0,0,0,3,3,0,3,0,0,0,0,0,,,,,,,,,,,,,,,351.42873060004786,None,353.89095839997754,None,354.7580484999344,355.35825589997694,355.34137709997594,357.34209409961477,None,1,0.6085535897873342,2.609223189763725,decreament,0.6,41,standard,None,100,,349.106116599869,None,,,,,f,23,221,fr,r,0,raw,2022-06-08_16h30.47.551,oddball,2022.1.2,59.86722661075024,
20,,,,,0,0,0,3,3,0,3,0,1,0,1,0,,,,,,,,,,,,,,,,,357.35878899972886,None,357.8759325998835,358.47600909974426,358.4592196997255,360.4598907995969,None,1,0.6116979899816215,2.6123965899460018,decreament,0.6,41,standard,None,100,,,,,,,,f,23,221,fr,r,0,raw,2022-06-08_16h30.47.551,oddball,2022.1.2,59.86722661075024,
20,,,,,0,0,0,3,3,0,3,0,2,0,2,0,,,,,,,,,,,,,,,,,360.4768609995954,None,361.1269447999075,361.7269261996262,361.7104535000399,363.7115581999533,None,1,0.6122647901065648,2.613471790216863,decreament,0.6,41,standard,None,100,,,,,,,,f,23,221,fr,r,0,raw,2022-06-08_16h30.47.551,oddball,2022.1.2,59.86722661075024,
20,,,,,0,0,0,3,3,0,3,0,3,0,3,0,,,,,,,,,,,,,,,,,363.72810669988394,None,364.2950474000536,364.8948621000163,364.8783877999522,366.8788461997174,None,1,0.610209190286696,2.6106519903987646,decreament,0.6,41,standard,None,100,,,,,,,,f,23,221,fr,r,0,raw,2022-06-08_16h30.47.551,oddball,2022.1.2,59.86722661075024,
20,,,,,0,0,0,3,3,0,3,0,4,0,4,0,,,,,,,,,,,,,,,,,366.8957364996895,None,367.52944279974326,368.1297234999947,368.1134306997992,370.11359649989754,None,1,0.6116171893663704,2.6117170895449817,decreament,0.6,41,standard,None,100,,,,,,,,f,23,221,fr,r,0,raw,2022-06-08_16h30.47.551,oddball,2022.1.2,59.86722661075024,
20,,,,,0,0,0,3,3,0,3,0,5,0,5,0,,,,,,,,,,,,,,,,,370.13041589967906,None,370.8311278000474,371.31405299995095,371.29744339967147,373.2983455997892,j,1,0.49146529007703066,2.4924403904005885,decreament,0.48,44,oddball,j,80,0.723620000295341,,,,,,,f,23,221,fr,r,0,raw,2022-06-08_16h30.47.551,oddball,2022.1.2,59.86722661075024,
20,,,,,0,0,0,3,3,0,3,0,6,0,6,0,,,,,,,,,,,,,,,,,373.3146625999361,None,373.86511859996244,374.46573059959337,374.4490747996606,376.44950419990346,None,1,0.6116542904637754,2.6120487903244793,decreament,0.6,41,standard,None,100,,,,,,,,f,23,221,fr,r,0,raw,2022-06-08_16h30.47.551,oddball,2022.1.2,59.86722661075024,
20,,,,,0,0,0,3,3,0,3,0,7,0,7,0,,,,,,,,,,,,,,,,,376.46599880000576,None,377.0829508998431,377.6833828999661,377.6667820997536,379.6671321997419,None,1,0.6135096903890371,2.6138177905231714,decreament,0.6,41,standard,None,100,,,,,,,,f,23,221,fr,r,0,raw,2022-06-08_16h30.47.551,oddball,2022.1.2,59.86722661075024,
20,,,,,0,0,0,3,3,0,3,0,8,0,8,0,,,,,,,,,,,,,,,,,379.68410169985145,None,380.3340358999558,380.93426879961044,380.9179098997265,382.91851089987904,None,1,0.6135009895078838,2.614156889729202,decreament,0.6,41,standard,None,100,,,,,,,,f,23,221,fr,r,0,raw,2022-06-08_16h30.47.551,oddball,2022.1.2,59.86722661075024,
20,,,,,0,0,0,3,3,0,3,0,9,0,9,0,,,,,,,,,,,,,,,,,382.93509289994836,None,383.5684626000002,384.168944099918,384.15246000001207,386.1529796998948,None,1,0.6134473900310695,2.613878290168941,decreament,0.6,41,standard,None,100,,,,,,,,f,23,221,fr,r,0,raw,2022-06-08_16h30.47.551,oddball,2022.1.2,59.86722661075024,
20,,,,,0,0,0,3,3,0,3,0,10,0,10,0,,,,,,,,,,,,,,,,,386.1695856996812,None,386.76999539975077,387.37035619979724,387.3535512997769,389.3544636997394,None,1,0.6139175896532834,2.6148695899173617,decreament,0.6,41,standard,None,100,,,,,,,,f,23,221,fr,r,0,raw,2022-06-08_16h30.47.551,oddball,2022.1.2,59.86722661075024,
20,,,,,0,0,0,3,3,0,3,0,11,0,11,0,,,,,,,,,,,,,,,,,389.3714491999708,None,390.08791169989854,390.6882934998721,390.67176279984415,392.672341699712,j,0,0.6126564904116094,2.6131990905851126,decreament,0.6,41,standard,None,100,0.6930944002233446,,,,,,,f,23,221,fr,r,0,raw,2022-06-08_16h30.47.551,oddball,2022.1.2,59.86722661075024,
20,,,,,0,0,0,3,3,0,3,0,12,0,12,0,,,,,,,,,,,,,,,,,392.68883210001513,None,393.38922279980034,393.9891558997333,393.97308059968054,395.9736744998954,None,1,0.6130892904475331,2.6136871902272105,decreament,0.6,41,standard,None,100,,,,,,,,f,23,221,fr,r,0,raw,2022-06-08_16h30.47.551,oddball,2022.1.2,59.86722661075024,
20,,,,,0,0,0,3,3,0,3,0,13,0,13,0,,,,,,,,,,,,,,,,,395.9908145000227,None,396.59063869994134,397.19029069971293,397.17413459997624,399.1747029996477,None,1,0.6113031902350485,2.611912490334362,decreament,0.6,41,standard,None,100,,,,,,,,f,23,221,fr,r,0,raw,2022-06-08_16h30.47.551,oddball,2022.1.2,59.86722661075024,
20,,,,,0,0,0,3,3,0,3,0,14,0,14,0,,,,,,,,,,,,,,,,,399.1919003999792,None,399.70868699997663,400.30841679964215,400.29179499996826,402.29261439992115,None,1,0.6093405894935131,2.6102291895076632,decreament,0.6,41,standard,None,100,,,,,,,,f,23,221,fr,r,0,raw,2022-06-08_16h30.47.551,oddball,2022.1.2,59.86722661075024,
20,,,,,0,0,0,3,3,0,3,0,15,0,15,0,,,,,,,,,,,,,,,,,402.3095255000517,None,402.95959899993613,403.559723299928,403.5431448998861,405.543702499941,None,1,0.6106047900393605,2.6111958902329206,decreament,0.6,41,standard,None,100,,,,,,,,f,23,221,fr,r,0,raw,2022-06-08_16h30.47.551,oddball,2022.1.2,59.86722661075024,
20,,,,,0,0,0,3,3,0,3,0,16,0,16,0,,,,,,,,,,,,,,,,,405.56090639997274,None,406.1609895997681,406.76099890004843,406.7443933999166,408.7447402998805,j,0,0.6113501898944378,2.611682489980012,decreament,0.6,41,standard,None,100,0.6758984006009996,,,,,,,f,23,221,fr,r,0,raw,2022-06-08_16h30.47.551,oddball,2022.1.2,59.86722661075024,
20,,,,,0,0,0,3,3,0,3,0,17,0,17,0,,,,,,,,,,,,,,,,,408.76145190000534,None,409.39550569979474,409.9953143997118,409.9787229998037,411.97971039963886,None,1,0.6115171904675663,2.612575190141797,decreament,0.6,41,standard,None,100,,,,,,,,f,23,221,fr,r,0,raw,2022-06-08_16h30.47.551,oddball,2022.1.2,59.86722661075024,
20,,,,,0,0,0,3,3,0,3,0,18,0,18,0,,,,,,,,,,,,,,,,,411.9967453000136,None,412.5965578998439,413.1965152998455,413.1800206997432,415.1808651997708,None,1,0.6122318902052939,2.61311949044466,decreament,0.6,41,standard,None,100,,,,,,,,f,23,221,fr,r,0,raw,2022-06-08_16h30.47.551,oddball,2022.1.2,59.86722661075024,
20,,,,,0,0,0,3,3,0,3,0,19,0,19,0,,,,,,,,,,,,,,,,,415.1973273996264,None,415.8474359996617,416.2141919997521,416.18166369991377,418.18187869992107,j,1,0.3639337900094688,2.3641218901611865,decreament,0.36,43,oddball,j,60,0.7834581001661718,,,,,,,f,23,221,fr,r,0,raw,2022-06-08_16h30.47.551,oddball,2022.1.2,59.86722661075024,
20,,,,,0,0,0,3,3,0,3,0,20,0,20,0,,,,,,,,,,,,,,,,,418.1986594996415,None,418.8322813999839,419.43269739998505,419.415928799659,421.4167011999525,None,1,0.612173090223223,2.612909990362823,decreament,0.6,41,standard,None,100,,,,,,,,f,23,221,fr,r,0,raw,2022-06-08_16h30.47.551,oddball,2022.1.2,59.86722661075024,
20,,,,,0,0,0,3,3,0,3,0,21,0,21,0,,,,,,,,,,,,,,,,,421.43333429982886,None,422.13345209974796,422.73332569980994,422.7167785000056,424.71763429977,None,1,0.6119053903967142,2.612772790249437,decreament,0.6,41,standard,None,100,,,,,,,,f,23,221,fr,r,0,raw,2022-06-08_16h30.47.551,oddball,2022.1.2,59.86722661075024,
20,,,,,0,0,0,3,3,0,3,0,22,0,22,0,,,,,,,,,,,,,,,,,424.734587199986,None,425.4679079996422,426.06810149969533,426.0516268997453,428.0522364997305,None,1,0.6128680896945298,2.6135149896144867,decreament,0.6,41,standard,None,100,,,,,,,,f,23,221,fr,r,0,raw,2022-06-08_16h30.47.551,oddball,2022.1.2,59.86722661075024,
20,,,,,0,0,0,3,3,0,3,0,23,0,23,0,,,,,,,,,,,,,,,,,428.06883029965684,None,428.6023506997153,429.20266659976915,429.18590349983424,431.1869003996253,None,1,0.6126340902410448,2.613661090377718,decreament,0.6,41,standard,None,100,,,,,,,,f,23,221,fr,r,0,raw,2022-06-08_16h30.47.551,oddball,2022.1.2,59.86722661075024,
20,,,,,0,0,0,3,3,0,3,0,24,0,24,0,,,,,,,,,,,,,,,,,431.20342519972473,None,431.8702821000479,432.4707928998396,432.4544464997016,434.45491259964183,None,1,0.6111740893684328,2.611413189675659,decreament,0.6,41,standard,None,100,,,,,,,,f,23,221,fr,r,0,raw,2022-06-08_16h30.47.551,oddball,2022.1.2,59.86722661075024,
20,,,,,0,0,0,3,3,0,3,0,25,0,25,0,,,,,,,,,,,,,,,,,434.47227729996666,None,435.30505419988185,435.90477499971166,435.88811589963734,437.88920470001176,None,1,0.6117493906058371,2.6129054906778038,decreament,0.6,41,standard,None,100,,,,,,,,f,23,221,fr,r,0,raw,2022-06-08_16h30.47.551,oddball,2022.1.2,59.86722661075024,
20,,,,,0,0,0,3,3,0,3,0,26,0,26,0,,,,,,,,,,,,,,,,,437.9064132999629,None,438.42287729959935,438.6728345998563,438.6397487996146,440.6406473000534,j,1,0.2460895897820592,2.2470172895118594,decreament,0.24,42,oddball,j,40,0.6050193002447486,,,,,,,f,23,221,fr,r,0,raw,2022-06-08_16h30.47.551,oddball,2022.1.2,59.86722661075024,
20,,,,,0,0,0,3,3,0,3,0,27,0,27,0,,,,,,,,,,,,,,,,,440.65716899977997,None,441.3739111996256,441.9742431999184,441.95751910004765,443.95827239984646,None,1,0.6124577904120088,2.6132285902276635,decreament,0.6,41,standard,None,100,,,,,,,,f,23,221,fr,r,0,raw,2022-06-08_16h30.47.551,oddball,2022.1.2,59.86722661075024,
20,,,,,0,0,0,3,3,0,3,0,28,0,28,0,,,,,,,,,,,,,,,,,443.97488190000877,None,444.5921805999242,445.19198989961296,445.1755414996296,447.17613429995254,None,1,0.6099045895971358,2.610438789706677,decreament,0.6,41,standard,None,100,,,,,,,,f,23,221,fr,r,0,raw,2022-06-08_16h30.47.551,oddball,2022.1.2,59.86722661075024,
20,,,,,0,0,0,3,3,0,3,0,29,0,29,0,,,,,,,,,,,,,,,,,447.1928707999177,None,447.75970569998026,448.35998559975997,448.3434433997609,450.34385299962014,None,1,0.6111823902465403,2.6115717901848257,decreament,0.6,41,standard,None,100,,,,,,,,f,23,221,fr,r,0,raw,2022-06-08_16h30.47.551,oddball,2022.1.2,59.86722661075024,
20,,,,,0,0,0,3,4,0,4,0,0,0,0,0,,,,,,,,,,,,,,,454.74577019969,None,457.21341019961983,None,457.7803744999692,458.38070449978113,458.3636681996286,460.3646807996556,None,1,0.6117120902054012,2.612772590480745,increament,0.6,45,standard,None,100,,450.36104969959706,None,,,,,f,23,221,fr,r,0,raw,2022-06-08_16h30.47.551,oddball,2022.1.2,59.86722661075024,
20,,,,,0,0,0,3,4,0,4,0,1,0,1,0,,,,,,,,,,,,,,,,,460.381360899657,None,461.0147560997866,461.61489699967206,461.59820349980146,463.5987934996374,None,1,0.6124308900907636,2.6129638901911676,increament,0.6,45,standard,None,100,,,,,,,,f,23,221,fr,r,0,raw,2022-06-08_16h30.47.551,oddball,2022.1.2,59.86722661075024,
20,,,,,0,0,0,3,4,0,4,0,2,0,2,0,,,,,,,,,,,,,,,,,463.6158351995982,None,464.2994470000267,464.89961039973423,464.88314819987863,466.8838098999113,None,1,0.6128076892346144,2.6134233893826604,increament,0.6,45,standard,None,100,,,,,,,,f,23,221,fr,r,0,raw,2022-06-08_16h30.47.551,oddball,2022.1.2,59.86722661075024,
20,,,,,0,0,0,3,4,0,4,0,3,0,3,0,,,,,,,,,,,,,,,,,466.90021670004353,None,467.51720119966194,468.1169646997005,468.100327800028,470.10184919973835,None,1,0.6123561901040375,2.614030889701098,increament,0.6,45,standard,None,100,,,,,,,,f,23,221,fr,r,0,raw,2022-06-08_16h30.47.551,oddball,2022.1.2,59.86722661075024,
20,,,,,0,0,0,3,4,0,4,0,4,0,4,0,,,,,,,,,,,,,,,,,470.11949459975585,None,470.6518363999203,471.25164069980383,471.23516419995576,473.2357185999863,None,1,0.6080528902821243,2.608611789997667,increament,0.6,45,standard,None,100,,,,,,,,f,23,221,fr,r,0,raw,2022-06-08_16h30.47.551,oddball,2022.1.2,59.86722661075024,
20,,,,,0,0,0,3,4,0,4,0,5,0,5,0,,,,,,,,,,,,,,,,,473.25233219983056,None,473.9030360998586,474.50329489959404,474.48638999974355,476.48758669989184,None,1,0.610838090069592,2.6121237901970744,increament,0.6,45,standard,None,100,,,,,,,,f,23,221,fr,r,0,raw,2022-06-08_16h30.47.551,oddball,2022.1.2,59.86722661075024,
20,,,,,0,0,0,3,4,0,4,0,6,0,6,0,,,,,,,,,,,,,,,,,476.50636709993705,None,477.1540949996561,477.75459379982203,477.7379087996669,479.7384294997901,None,1,0.613386089913547,2.613897889852524,increament,0.6,45,standard,None,100,,,,,,,,f,23,221,fr,r,0,raw,2022-06-08_16h30.47.551,oddball,2022.1.2,59.86722661075024,
20,,,,,0,0,0,3,4,0,4,0,7,0,7,0,,,,,,,,,,,,,,,,,479.7551426999271,None,480.388910099864,480.98879799991846,480.97240209998563,482.9730332000181,None,1,0.6115212901495397,2.6121559902094305,increament,0.6,45,standard,None,100,,,,,,,,f,23,221,fr,r,0,raw,2022-06-08_16h30.47.551,oddball,2022.1.2,59.86722661075024,
20,,,,,0,0,0,3,4,0,4,0,8,0,8,0,,,,,,,,,,,,,,,,,482.99015219975263,None,483.6064183996059,484.2067529000342,484.1901751998812,486.1910325996578,None,1,0.6133991898968816,2.6142751895822585,increament,0.6,45,standard,None,100,,,,,,,,f,23,221,fr,r,0,raw,2022-06-08_16h30.47.551,oddball,2022.1.2,59.86722661075024,
20,,,,,0,0,0,3,4,0,4,0,9,0,9,0,,,,,,,,,,,,,,,,,486.2075242996216,None,486.92435989994556,487.52466659992933,487.5079950997606,489.5086548998952,None,1,0.6131312898360193,2.6137625901028514,increament,0.6,45,standard,None,100,,,,,,,,f,23,221,fr,r,0,raw,2022-06-08_16h30.47.551,oddball,2022.1.2,59.86722661075024,
20,,,,,0,0,0,3,4,0,4,0,10,0,10,0,,,,,,,,,,,,,,,,,489.525696599856,None,490.1257392996922,490.7258558999747,490.70937129994854,492.71027889987454,None,1,0.6122722895815969,2.6132483896799386,increament,0.6,45,standard,None,100,,,,,,,,f,23,221,fr,r,0,raw,2022-06-08_16h30.47.551,oddball,2022.1.2,59.86722661075024,
20,,,,,0,0,0,3,4,0,4,0,11,0,11,0,,,,,,,,,,,,,,,,,492.72665849979967,None,493.37689789989963,494.2271557999775,494.19374719960615,496.19434619974345,j,1,0.8462146893143654,2.846800689585507,increament,0.84,47,oddball,j,140,0.5146638005971909,,,,,,,f,23,221,fr,r,0,raw,2022-06-08_16h30.47.551,oddball,2022.1.2,59.86722661075024,
20,,,,,0,0,0,3,4,0,4,0,12,0,12,0,,,,,,,,,,,,,,,,,496.2109329998493,None,496.8786124000326,497.47873459989205,497.46179219987243,499.4628307996318,None,1,0.6116709900088608,2.6128366901539266,increament,0.6,45,standard,None,100,,,,,,,,f,23,221,fr,r,0,raw,2022-06-08_16h30.47.551,oddball,2022.1.2,59.86722661075024,
20,,,,,0,0,0,3,4,0,4,0,13,0,13,0,,,,,,,,,,,,,,,,,499.47956359991804,None,500.24617319973186,500.8469997998327,500.8303641998209,502.8305792999454,None,1,0.6138864899985492,2.614003790076822,increament,0.6,45,standard,None,100,,,,,,,,f,23,221,fr,r,0,raw,2022-06-08_16h30.47.551,oddball,2022.1.2,59.86722661075024,
20,,,,,0,0,0,3,4,0,4,0,14,0,14,0,,,,,,,,,,,,,,,,,502.84749919967726,None,503.4642045996152,504.0646219998598,504.04796459991485,506.0487895999104,None,1,0.6136294901371002,2.614522790070623,increament,0.6,45,standard,None,100,,,,,,,,f,23,221,fr,r,0,raw,2022-06-08_16h30.47.551,oddball,2022.1.2,59.86722661075024,
20,,,,,0,0,0,3,4,0,4,0,15,0,15,0,,,,,,,,,,,,,,,,,506.065765499603,None,506.71531469980255,507.3158696000464,507.29913769988343,509.2994715999812,None,1,0.613485190551728,2.6137272901833057,increament,0.6,45,standard,None,100,,,,,,,,f,23,221,fr,r,0,raw,2022-06-08_16h30.47.551,oddball,2022.1.2,59.86722661075024,
20,,,,,0,0,0,3,4,0,4,0,16,0,16,0,,,,,,,,,,,,,,,,,509.31622689962387,None,509.9998761997558,510.5999847999774,510.5833752998151,512.5842936998233,None,1,0.6129596899263561,2.6138771902769804,increament,0.6,45,standard,None,100,,,,,,,,f,23,221,fr,r,0,raw,2022-06-08_16h30.47.551,oddball,2022.1.2,59.86722661075024,
20,,,,,0,0,0,3,4,0,4,0,17,0,17,0,,,,,,,,,,,,,,,,,512.6009108000435,None,513.184560299851,513.7849736995995,513.768301599659,515.7691646995954,None,1,0.6130370902828872,2.6139215901494026,increament,0.6,45,standard,None,100,,,,,,,,f,23,221,fr,r,0,raw,2022-06-08_16h30.47.551,oddball,2022.1.2,59.86722661075024,
20,,,,,0,0,0,3,4,0,4,0,18,0,18,0,,,,,,,,,,,,,,,,,515.785960899666,None,516.4524860000238,517.0524482997134,517.0359197999351,519.036694899667,None,1,0.6138312900438905,2.6145996898412704,increament,0.6,45,standard,None,100,,,,,,,,f,23,221,fr,r,0,raw,2022-06-08_16h30.47.551,oddball,2022.1.2,59.86722661075024,
20,,,,,0,0,0,3,4,0,4,0,19,0,19,0,,,,,,,,,,,,,,,,,519.0536595997401,None,519.6870531998575,520.2871237997897,520.2705574999563,522.2713828999549,None,1,0.6123721906915307,2.6136261904612184,increament,0.6,45,standard,None,100,,,,,,,,f,23,221,fr,r,0,raw,2022-06-08_16h30.47.551,oddball,2022.1.2,59.86722661075024,
20,,,,,0,0,0,3,4,0,4,0,20,0,20,0,,,,,,,,,,,,,,,,,522.2882007998414,None,522.988254699856,523.5884147998877,523.5720642996021,525.572476499714,None,1,0.61217569001019,2.612574990373105,increament,0.6,45,standard,None,100,,,,,,,,f,23,221,fr,r,0,raw,2022-06-08_16h30.47.551,oddball,2022.1.2,59.86722661075024,
20,,,,,0,0,0,3,4,0,4,0,21,0,21,0,,,,,,,,,,,,,,,,,525.5895738997497,None,526.1396979000419,526.7396018998697,526.7228760998696,528.7236668998376,None,1,0.6080048894509673,2.608801689464599,increament,0.6,45,standard,None,100,,,,,,,,f,23,221,fr,r,0,raw,2022-06-08_16h30.47.551,oddball,2022.1.2,59.86722661075024,
20,,,,,0,0,0,3,4,0,4,0,22,0,22,0,,,,,,,,,,,,,,,,,528.7405062997714,None,529.4236284997314,530.157272499986,530.123980099801,532.1252872999758,None,0,0.7312325900420547,2.7326500904746354,increament,0.72,46,oddball,j,120,,,,,,,,f,23,221,fr,r,0,raw,2022-06-08_16h30.47.551,oddball,2022.1.2,59.86722661075024,
20,,,,,0,0,0,3,4,0,4,0,23,0,23,0,,,,,,,,,,,,,,,,,532.1429995996878,None,532.8419897998683,533.4421117999591,533.4255951000378,535.4262362997979,None,1,0.6115404898300767,2.612197189591825,increament,0.6,45,standard,None,100,,,,,,,,f,23,221,fr,r,0,raw,2022-06-08_16h30.47.551,oddball,2022.1.2,59.86722661075024,
20,,,,,0,0,0,3,4,0,4,0,24,0,24,0,,,,,,,,,,,,,,,,,535.4432172998786,None,536.0265277000144,536.626547599677,536.6097768996842,538.6109976000153,None,1,0.6129801901988685,2.6142240902408957,increament,0.6,45,standard,None,100,,,,,,,,f,23,221,fr,r,0,raw,2022-06-08_16h30.47.551,oddball,2022.1.2,59.86722661075024,
20,,,,,0,0,0,3,4,0,4,0,25,0,25,0,,,,,,,,,,,,,,,,,538.6273649996147,None,539.2112598000094,539.8114405996166,539.7946941000409,541.7953400998376,None,1,0.6108334898017347,2.6114491899497807,increament,0.6,45,standard,None,100,,,,,,,,f,23,221,fr,r,0,raw,2022-06-08_16h30.47.551,oddball,2022.1.2,59.86722661075024,
20,,,,,0,0,0,3,4,0,4,0,26,0,26,0,,,,,,,,,,,,,,,,,541.8120523998514,None,542.4792312998325,543.4458523998037,543.41297689965,545.413109799847,j,1,0.9601201894693077,2.960179889574647,increament,0.96,48,oddball,j,160,0.5506175002083182,,,,,,,f,23,221,fr,r,0,raw,2022-06-08_16h30.47.551,oddball,2022.1.2,59.86722661075024,
20,,,,,0,0,0,3,4,0,4,0,27,0,27,0,,,,,,,,,,,,,,,,,545.429924399592,None,546.1133873998187,546.7137059997767,546.6971396999434,548.6978819998913,None,1,0.6138244899921119,2.614576289895922,increament,0.6,45,standard,None,100,,,,,,,,f,23,221,fr,r,0,raw,2022-06-08_16h30.47.551,oddball,2022.1.2,59.86722661075024,
20,,,,,0,0,0,3,4,0,4,0,28,0,28,0,,,,,,,,,,,,,,,,,548.7145551997237,None,549.3316112998873,549.9322291999124,549.9152523996308,551.9163146000355,None,1,0.6129187899641693,2.613936790265143,increament,0.6,45,standard,None,100,,,,,,,,f,23,221,fr,r,0,raw,2022-06-08_16h30.47.551,oddball,2022.1.2,59.86722661075024,
20,,,,,0,0,0,3,4,0,4,0,29,0,29,0,,,,,,,,,,,,,,,,,551.9324129996821,None,552.5660668998025,553.1663897996768,553.1500002997927,555.1505014998838,None,1,0.6094816904515028,2.609947790391743,increament,0.6,45,standard,None,100,,,,,,,,f,23,221,fr,r,0,raw,2022-06-08_16h30.47.551,oddball,2022.1.2,59.86722661075024,
20,,,,,0,0,0,3,5,0,5,0,0,0,0,0,,,,,,,,,,,,,,,557.922061199788,None,559.9687243998051,None,560.585572599899,561.1858898997307,561.1693686000071,563.1701774997637,None,1,0.6136547899805009,2.614523089956492,decreament,0.6,41,standard,None,100,,555.1693730000407,None,,,,,f,23,221,fr,r,0,raw,2022-06-08_16h30.47.551,oddball,2022.1.2,59.86722661075024,
20,,,,,0,0,0,3,5,0,5,0,1,0,1,0,,,,,,,,,,,,,,,,,563.1867137998343,None,563.820364699699,564.4207929000258,564.4041248997673,566.4049247996882,None,1,0.6133213904686272,2.6141590904444456,decreament,0.6,41,standard,None,100,,,,,,,,f,23,221,fr,r,0,raw,2022-06-08_16h30.47.551,oddball,2022.1.2,59.86722661075024,
20,,,,,0,0,0,3,5,0,5,0,2,0,2,0,,,,,,,,,,,,,,,,,566.4217224996537,None,567.0714215999469,567.6717570996843,567.6552549996413,569.6558280996978,None,1,0.6093035899102688,2.6098890900611877,decreament,0.6,41,standard,None,100,,,,,,,,f,23,221,fr,r,0,raw,2022-06-08_16h30.47.551,oddball,2022.1.2,59.86722661075024,
20,,,,,0,0,0,3,5,0,5,0,3,0,3,0,,,,,,,,,,,,,,,,,569.6727908998728,None,570.3228005999699,570.9229537998326,570.9066467997618,572.9069786998443,None,1,0.6136668901890516,2.613957390189171,decreament,0.6,41,standard,None,100,,,,,,,,f,23,221,fr,r,0,raw,2022-06-08_16h30.47.551,oddball,2022.1.2,59.86722661075024,
20,,,,,0,0,0,3,5,0,5,0,4,0,4,0,,,,,,,,,,,,,,,,,572.9238942000084,None,573.4738435000181,574.0745437997393,574.0576745998114,576.0583885996602,None,1,0.6113945906981826,2.6120919906534255,decreament,0.6,41,standard,None,100,,,,,,,,f,23,221,fr,r,0,raw,2022-06-08_16h30.47.551,oddball,2022.1.2,59.86722661075024,
20,,,,,0,0,0,3,5,0,5,0,5,0,5,0,,,,,,,,,,,,,,,,,576.0752514000051,None,576.6917062997818,577.2919704997912,577.2752866996452,579.2767741996795,None,1,0.6138305896893144,2.615442289505154,decreament,0.6,41,standard,None,100,,,,,,,,f,23,221,fr,r,0,raw,2022-06-08_16h30.47.551,oddball,2022.1.2,59.86722661075024,
20,,,,,0,0,0,3,5,0,5,0,6,0,6,0,,,,,,,,,,,,,,,,,579.29344030004,None,579.8266268996522,580.4264791999012,580.410025799647,582.4107137997635,None,1,0.6125291897915304,2.61322668986395,decreament,0.6,41,standard,None,100,,,,,,,,f,23,221,fr,r,0,raw,2022-06-08_16h30.47.551,oddball,2022.1.2,59.86722661075024,
20,,,,,0,0,0,3,5,0,5,0,7,0,7,0,,,,,,,,,,,,,,,,,582.4273550999351,None,583.194371199701,583.7946349997073,583.7778228996322,585.7789540998638,None,1,0.612576789688319,2.6137780901044607,decreament,0.6,41,standard,None,100,,,,,,,,f,23,221,fr,r,0,raw,2022-06-08_16h30.47.551,oddball,2022.1.2,59.86722661075024,
20,,,,,0,0,0,3,5,0,5,0,8,0,8,0,,,,,,,,,,,,,,,,,585.7955608996563,None,586.4787963996641,587.0790005996823,587.0626367996447,589.0633554998785,None,1,0.6123322905041277,2.6130758905783296,decreament,0.6,41,standard,None,100,,,,,,,,f,23,221,fr,r,0,raw,2022-06-08_16h30.47.551,oddball,2022.1.2,59.86722661075024,
20,,,,,0,0,0,3,5,0,5,0,9,0,9,0,,,,,,,,,,,,,,,,,589.0801426996477,None,589.6469242996536,590.2467314000241,590.2301383996382,592.2315809000283,None,1,0.612248090095818,2.613767589908093,decreament,0.6,41,standard,None,100,,,,,,,,f,23,221,fr,r,0,raw,2022-06-08_16h30.47.551,oddball,2022.1.2,59.86722661075024,
20,,,,,0,0,0,3,5,0,5,0,10,0,10,0,,,,,,,,,,,,,,,,,592.2488461998291,None,593.0481338999234,593.4147834996693,593.3813555999659,595.3821652997285,j,1,0.3624799894168973,2.3632799894548953,decreament,0.36,43,oddball,j,60,0.6072125006467104,,,,,,,f,23,221,fr,r,0,raw,2022-06-08_16h30.47.551,oddball,2022.1.2,59.86722661075024,
20,,,,,0,0,0,3,5,0,5,0,11,0,11,0,,,,,,,,,,,,,,,,,595.398766499944,None,596.1495172996074,596.7495773998089,596.7329579996876,598.7335413000546,None,1,0.6118642906658351,2.6124674906022847,decreament,0.6,41,standard,None,100,,,,,,,,f,23,221,fr,r,0,raw,2022-06-08_16h30.47.551,oddball,2022.1.2,59.86722661075024,
20,,,,,0,0,0,3,5,0,5,0,12,0,12,0,,,,,,,,,,,,,,,,,598.7505155997351,None,599.4005541000515,600.0004278998822,599.9838282000273,601.9847180997021,None,1,0.6124262902885675,2.6132996901869774,decreament,0.6,41,standard,None,100,,,,,,,,f,23,221,fr,r,0,raw,2022-06-08_16h30.47.551,oddball,2022.1.2,59.86722661075024,
20,,,,,0,0,0,3,5,0,5,0,13,0,13,0,,,,,,,,,,,,,,,,,602.0015469999053,None,602.6354032997042,603.2351352996193,603.218629699666,605.2193668996915,None,1,0.6097475900314748,2.610462789889425,decreament,0.6,41,standard,None,100,,,,,,,,f,23,221,fr,r,0,raw,2022-06-08_16h30.47.551,oddball,2022.1.2,59.86722661075024,
20,,,,,0,0,0,3,5,0,5,0,14,0,14,0,,,,,,,,,,,,,,,,,605.23603489995,None,605.8196478998289,606.4200309999287,606.4031699998304,608.4036268997006,None,1,0.6128428899683058,2.6132498900406063,decreament,0.6,41,standard,None,100,,,,,,,,f,23,221,fr,r,0,raw,2022-06-08_16h30.47.551,oddball,2022.1.2,59.86722661075024,
20,,,,,0,0,0,3,5,0,5,0,15,0,15,0,,,,,,,,,,,,,,,,,608.4204262997955,None,609.1209939997643,609.7208984997123,609.7044674996287,611.7051804000512,None,1,0.6098695900291204,2.610607590060681,decreament,0.6,41,standard,None,100,,,,,,,,f,23,221,fr,r,0,raw,2022-06-08_16h30.47.551,oddball,2022.1.2,59.86722661075024,
20,,,,,0,0,0,3,5,0,5,0,16,0,16,0,,,,,,,,,,,,,,,,,611.7216701996513,None,612.4052164000459,613.0060159997083,612.9891388998367,614.9899663999677,None,1,0.6143456897698343,2.615207889582962,decreament,0.6,41,standard,None,100,,,,,,,,f,23,221,fr,r,0,raw,2022-06-08_16h30.47.551,oddball,2022.1.2,59.86722661075024,
20,,,,,0,0,0,3,5,0,5,0,17,0,17,0,,,,,,,,,,,,,,,,,615.0064350999892,None,615.656628599856,616.2570435996167,616.240136299748,618.2409306997433,None,1,0.6110268901102245,2.6118231900036335,decreament,0.6,41,standard,None,100,,,,,,,,f,23,221,fr,r,0,raw,2022-06-08_16h30.47.551,oddball,2022.1.2,59.86722661075024,
20,,,,,0,0,0,3,5,0,5,0,18,0,18,0,,,,,,,,,,,,,,,,,618.2578945998102,None,618.9411133998074,619.4245580998249,619.391439399682,621.3921501999721,None,0,0.4794878903776407,2.4802091903984547,decreament,0.48,44,oddball,j,80,,,,,,,,f,23,221,fr,r,0,raw,2022-06-08_16h30.47.551,oddball,2022.1.2,59.86722661075024,
20,,,,,0,0,0,3,5,0,5,0,19,0,19,0,,,,,,,,,,,,,,,,,621.4088443997316,None,622.1926619997248,622.7928509996273,622.7764679999091,624.7767241997644,None,1,0.612263289745897,2.61248078988865,decreament,0.6,41,standard,None,100,,,,,,,,f,23,221,fr,r,0,raw,2022-06-08_16h30.47.551,oddball,2022.1.2,59.86722661075024,
20,,,,,0,0,0,3,5,0,5,0,20,0,20,0,,,,,,,,,,,,,,,,,624.7933927997947,None,625.5436274996027,626.1437541996129,626.1274047000334,628.1280152997933,None,1,0.6135590896010399,2.614190089982003,decreament,0.6,41,standard,None,100,,,,,,,,f,23,221,fr,r,0,raw,2022-06-08_16h30.47.551,oddball,2022.1.2,59.86722661075024,
20,,,,,0,0,0,3,5,0,5,0,21,0,21,0,,,,,,,,,,,,,,,,,628.1446528998204,None,628.7784518999979,629.3783231000416,629.3615799997933,631.3634575000033,None,1,0.6121690906584263,2.614219490904361,decreament,0.6,41,standard,None,100,,,,,,,,f,23,221,fr,r,0,raw,2022-06-08_16h30.47.551,oddball,2022.1.2,59.86722661075024,
20,,,,,0,0,0,3,5,0,5,0,22,0,22,0,,,,,,,,,,,,,,,,,631.379458699841,None,632.1296632997692,632.7296882998198,632.7133802999742,634.7139213997871,None,1,0.6129734897986054,2.613515889737755,decreament,0.6,41,standard,None,100,,,,,,,,f,23,221,fr,r,0,raw,2022-06-08_16h30.47.551,oddball,2022.1.2,59.86722661075024,
20,,,,,0,0,0,3,5,0,5,0,23,0,23,0,,,,,,,,,,,,,,,,,634.7308181999251,None,635.4306962997653,635.6809117998928,635.6474714996293,637.6483424999751,j,1,0.2468351903371513,2.2477542902342975,decreament,0.24,42,oddball,j,40,1.0292851002886891,,,,,,,f,23,221,fr,r,0,raw,2022-06-08_16h30.47.551,oddball,2022.1.2,59.86722661075024,
20,,,,,0,0,0,3,5,0,5,0,24,0,24,0,,,,,,,,,,,,,,,,,637.6650741999038,None,638.2817490999587,638.8822562997229,638.8654646999203,640.8661721996032,None,1,0.612848490010947,2.6135483901016414,decreament,0.6,41,standard,None,100,,,,,,,,f,23,221,fr,r,0,raw,2022-06-08_16h30.47.551,oddball,2022.1.2,59.86722661075024,
20,,,,,0,0,0,3,5,0,5,0,25,0,25,0,,,,,,,,,,,,,,,,,640.8828480998054,None,641.6332918996923,642.2333708000369,642.2165652997792,644.2175026000477,None,1,0.6101055899634957,2.611099089961499,decreament,0.6,41,standard,None,100,,,,,,,,f,23,221,fr,r,0,raw,2022-06-08_16h30.47.551,oddball,2022.1.2,59.86722661075024,
20,,,,,0,0,0,3,5,0,5,0,26,0,26,0,,,,,,,,,,,,,,,,,644.2346424995922,None,644.9511750997044,645.5516389999539,645.5348057998344,647.535450599622,None,1,0.6118245893158019,2.612461189273745,decreament,0.6,41,standard,None,100,,,,,,,,f,23,221,fr,r,0,raw,2022-06-08_16h30.47.551,oddball,2022.1.2,59.86722661075024,
20,,,,,0,0,0,3,5,0,5,0,27,0,27,0,,,,,,,,,,,,,,,,,647.5521363997832,None,648.2025172999129,648.8029075996019,648.7862203996629,650.7866782997735,None,1,0.6092323907651007,2.6096342904493213,decreament,0.6,41,standard,None,100,,,,,,,,f,23,221,fr,r,0,raw,2022-06-08_16h30.47.551,oddball,2022.1.2,59.86722661075024,
20,,,,,0,0,0,3,5,0,5,0,28,0,28,0,,,,,,,,,,,,,,,,,650.8032775996253,None,651.4366576997563,652.0366756999865,652.0201396998018,654.0211250996217,None,1,0.6136581907048821,2.6146555906161666,decreament,0.6,41,standard,None,100,,,,,,,,f,23,221,fr,r,0,raw,2022-06-08_16h30.47.551,oddball,2022.1.2,59.86722661075024,
20,,,,,0,0,0,3,5,0,5,0,29,0,29,0,,,,,,,,,,,,,,,,,654.0379315996543,None,654.6217458997853,655.2214277000166,655.2049620999023,657.2056746999733,None,1,0.6093062902800739,2.6100581903010607,decreament,0.6,41,standard,None,100,,,,,,,,f,23,221,fr,r,0,raw,2022-06-08_16h30.47.551,oddball,2022.1.2,59.86722661075024,
20,,,,,0,0,0,3,6,0,6,0,0,0,0,0,,,,,,,,,,,,,,,659.4132818998769,None,663.058125899639,None,663.8084483998828,664.4081578999758,664.3915506997146,666.3922730996273,None,1,0.6114515899680555,2.612150389701128,increament,0.6,45,standard,None,100,,657.2228622999974,None,,,,,f,23,221,fr,r,0,raw,2022-06-08_16h30.47.551,oddball,2022.1.2,59.86722661075024,
20,,,,,0,0,0,3,6,0,6,0,1,0,1,0,,,,,,,,,,,,,,,,,666.4090835996903,None,667.0263751996681,667.6267443997785,667.6096369996667,669.6104277996346,None,1,0.6097662900574505,2.610507989767939,increament,0.6,45,standard,None,100,,,,,,,,f,23,221,fr,r,0,raw,2022-06-08_16h30.47.551,oddball,2022.1.2,59.86722661075024,
20,,,,,0,0,0,3,6,0,6,0,2,0,2,0,,,,,,,,,,,,,,,,,669.6271589999087,None,670.1774768000469,670.7777539999224,670.7610228997655,672.7614175998606,None,1,0.6125261895358562,2.612883389927447,increament,0.6,45,standard,None,100,,,,,,,,f,23,221,fr,r,0,raw,2022-06-08_16h30.47.551,oddball,2022.1.2,59.86722661075024,
20,,,,,0,0,0,3,6,0,6,0,3,0,3,0,,,,,,,,,,,,,,,,,672.7787198997103,None,673.545451299753,674.1453172997572,674.1288211997598,676.1297466000542,None,1,0.6091783898882568,2.610144989565015,increament,0.6,45,standard,None,100,,,,,,,,f,23,221,fr,r,0,raw,2022-06-08_16h30.47.551,oddball,2022.1.2,59.86722661075024,
20,,,,,0,0,0,3,6,0,6,0,4,0,4,0,,,,,,,,,,,,,,,,,676.1463532997295,None,676.9801378999837,677.5798919997178,677.5630913996138,679.5642222999595,None,1,0.6081777908839285,2.6093466905876994,increament,0.6,45,standard,None,100,,,,,,,,f,23,221,fr,r,0,raw,2022-06-08_16h30.47.551,oddball,2022.1.2,59.86722661075024,
20,,,,,0,0,0,3,6,0,6,0,5,0,5,0,,,,,,,,,,,,,,,,,679.5807154998183,None,680.2479421999305,680.8482710998505,680.8317959997803,682.8328654998913,None,1,0.6131560900248587,2.614263689611107,increament,0.6,45,standard,None,100,,,,,,,,f,23,221,fr,r,0,raw,2022-06-08_16h30.47.551,oddball,2022.1.2,59.86722661075024,
20,,,,,0,0,0,3,6,0,6,0,6,0,6,0,,,,,,,,,,,,,,,,,682.8493689997122,None,683.4323036000133,684.032717899885,684.0161163997836,686.0168392998166,None,1,0.6122079901397228,2.612953090108931,increament,0.6,45,standard,None,100,,,,,,,,f,23,221,fr,r,0,raw,2022-06-08_16h30.47.551,oddball,2022.1.2,59.86722661075024,
20,,,,,0,0,0,3,6,0,6,0,7,0,7,0,,,,,,,,,,,,,,,,,686.0331520000473,None,686.6506052999757,687.2504367996007,687.2336099999957,689.2348241000436,None,1,0.609186289831996,2.6104675899259746,increament,0.6,45,standard,None,100,,,,,,,,f,23,221,fr,r,0,raw,2022-06-08_16h30.47.551,oddball,2022.1.2,59.86722661075024,
20,,,,,0,0,0,3,6,0,6,0,8,0,8,0,,,,,,,,,,,,,,,,,689.2513148998842,None,689.8846413996071,690.4847635999322,690.4682016996667,692.4689013999887,None,1,0.6126693901605904,2.6134109902195632,increament,0.6,45,standard,None,100,,,,,,,,f,23,221,fr,r,0,raw,2022-06-08_16h30.47.551,oddball,2022.1.2,59.86722661075024,
20,,,,,0,0,0,3,6,0,6,0,9,0,9,0,,,,,,,,,,,,,,,,,692.4856093996204,None,693.085835899692,693.6861494998448,693.6699194000103,695.6704758997075,None,1,0.6127566900104284,2.6132982899434865,increament,0.6,45,standard,None,100,,,,,,,,f,23,221,fr,r,0,raw,2022-06-08_16h30.47.551,oddball,2022.1.2,59.86722661075024,
20,,,,,0,0,0,3,6,0,6,0,10,0,10,0,,,,,,,,,,,,,,,,,695.6873711999506,None,696.3372197998688,696.9376528998837,696.9208179996349,698.9217127999291,None,1,0.6122428895905614,2.613187689334154,increament,0.6,45,standard,None,100,,,,,,,,f,23,221,fr,r,0,raw,2022-06-08_16h30.47.551,oddball,2022.1.2,59.86722661075024,
20,,,,,0,0,0,3,6,0,6,0,11,0,11,0,,,,,,,,,,,,,,,,,698.9381391997449,None,699.5217665997334,700.1217727996409,700.1051444998011,702.1057885000482,None,1,0.6123579903505743,2.612979090306908,increament,0.6,45,standard,None,100,,,,,,,,f,23,221,fr,r,0,raw,2022-06-08_16h30.47.551,oddball,2022.1.2,59.86722661075024,
20,,,,,0,0,0,3,6,0,6,0,12,0,12,0,,,,,,,,,,,,,,,,,702.1226923996583,None,702.9062335998751,703.756628099829,703.7231896999292,705.7241473998874,j,1,0.8467185902409256,2.8476949902251363,increament,0.84,47,oddball,j,140,0.4804927003569901,,,,,,,f,23,221,fr,r,0,raw,2022-06-08_16h30.47.551,oddball,2022.1.2,59.86722661075024,
20,,,,,0,0,0,3,6,0,6,0,13,0,13,0,,,,,,,,,,,,,,,,,705.7405669996515,None,706.2745157997124,706.8744568997063,706.8580699996091,708.8588000000454,None,1,0.612737990450114,2.613498790189624,increament,0.6,45,standard,None,100,,,,,,,,f,23,221,fr,r,0,raw,2022-06-08_16h30.47.551,oddball,2022.1.2,59.86722661075024,
20,,,,,0,0,0,3,6,0,6,0,14,0,14,0,,,,,,,,,,,,,,,,,708.875803399831,None,709.5589577998035,710.1590912998654,710.1422345000319,712.1430724998936,None,1,0.6117179901339114,2.612560990266502,increament,0.6,45,standard,None,100,,,,,,,,f,23,221,fr,r,0,raw,2022-06-08_16h30.47.551,oddball,2022.1.2,59.86722661075024,
20,,,,,0,0,0,3,6,0,6,0,15,0,15,0,,,,,,,,,,,,,,,,,712.1601538998075,None,712.710042799823,713.3101013000123,713.2934787999839,715.2944036996923,None,1,0.6132502905093133,2.614163590595126,increament,0.6,45,standard,None,100,,,,,,,,f,23,221,fr,r,0,raw,2022-06-08_16h30.47.551,oddball,2022.1.2,59.86722661075024,
20,,,,,0,0,0,3,6,0,6,0,16,0,16,0,,,,,,,,,,,,,,,,,715.3111164998263,None,715.8613515999168,716.461440499872,716.4446927998215,718.4455174999312,None,1,0.6076712906360626,2.608483790419996,increament,0.6,45,standard,None,100,,,,,,,,f,23,221,fr,r,0,raw,2022-06-08_16h30.47.551,oddball,2022.1.2,59.86722661075024,
20,,,,,0,0,0,3,6,0,6,0,17,0,17,0,,,,,,,,,,,,,,,,,718.4624394997954,None,719.0792306996882,719.6797829996794,719.6629593996331,721.663301799912,None,1,0.611875890288502,2.6121453903615475,increament,0.6,45,standard,None,100,,,,,,,,f,23,221,fr,r,0,raw,2022-06-08_16h30.47.551,oddball,2022.1.2,59.86722661075024,
20,,,,,0,0,0,3,6,0,6,0,18,0,18,0,,,,,,,,,,,,,,,,,721.6802066997625,None,722.2470042998902,722.8471836997196,722.8307495997287,724.831009699963,None,1,0.6135104903951287,2.613763090223074,increament,0.6,45,standard,None,100,,,,,,,,f,23,221,fr,r,0,raw,2022-06-08_16h30.47.551,oddball,2022.1.2,59.86722661075024,
20,,,,,0,0,0,3,6,0,6,0,19,0,19,0,,,,,,,,,,,,,,,,,724.847684700042,None,725.5485412999988,726.1484073000029,726.1317861997522,728.1326066995971,None,1,0.6122853900305927,2.61311998963356,increament,0.6,45,standard,None,100,,,,,,,,f,23,221,fr,r,0,raw,2022-06-08_16h30.47.551,oddball,2022.1.2,59.86722661075024,
20,,,,,0,0,0,3,6,0,6,0,20,0,20,0,,,,,,,,,,,,,,,,,728.1494287997484,None,728.7995692999102,729.3998479996808,729.3832525997423,731.384137599729,None,1,0.6115594902075827,2.6124278898350894,increament,0.6,45,standard,None,100,,,,,,,,f,23,221,fr,r,0,raw,2022-06-08_16h30.47.551,oddball,2022.1.2,59.86722661075024,
20,,,,,0,0,0,3,6,0,6,0,21,0,21,0,,,,,,,,,,,,,,,,,731.4005235997029,None,732.0339166000485,732.634153299965,732.6182963997126,734.6183773996308,None,1,0.6129028899595141,2.612918990198523,increament,0.6,45,standard,None,100,,,,,,,,f,23,221,fr,r,0,raw,2022-06-08_16h30.47.551,oddball,2022.1.2,59.86722661075024,
20,,,,,0,0,0,3,6,0,6,0,22,0,22,0,,,,,,,,,,,,,,,,,734.6350746997632,None,735.302057299763,736.2691758000292,736.2360298000276,738.2364403000101,j,1,0.9628937905654311,2.963272090535611,increament,0.96,48,oddball,j,160,0.7023517000488937,,,,,,,f,23,221,fr,r,0,raw,2022-06-08_16h30.47.551,oddball,2022.1.2,59.86722661075024,
20,,,,,0,0,0,3,6,0,6,0,23,0,23,0,,,,,,,,,,,,,,,,,738.2530573997647,None,738.8699050997384,739.4699471998028,739.4535176996142,741.4544877996668,None,1,0.6131027899682522,2.614147590007633,increament,0.6,45,standard,None,100,,,,,,,,f,23,221,fr,r,0,raw,2022-06-08_16h30.47.551,oddball,2022.1.2,59.86722661075024,
20,,,,,0,0,0,3,6,0,6,0,24,0,24,0,,,,,,,,,,,,,,,,,741.4713430996053,None,742.1047752997838,742.7045903997496,742.6881499998271,744.6888095997274,None,1,0.6125076902098954,2.613211190328002,increament,0.6,45,standard,None,100,,,,,,,,f,23,221,fr,r,0,raw,2022-06-08_16h30.47.551,oddball,2022.1.2,59.86722661075024,
20,,,,,0,0,0,3,6,0,6,0,25,0,25,0,,,,,,,,,,,,,,,,,744.7056618998758,None,745.2892529997043,745.8895634999499,745.8727866997942,747.8733485997654,None,1,0.6070949896238744,2.6076309895142913,increament,0.6,45,standard,None,100,,,,,,,,f,23,221,fr,r,0,raw,2022-06-08_16h30.47.551,oddball,2022.1.2,59.86722661075024,
20,,,,,0,0,0,3,6,0,6,0,26,0,26,0,,,,,,,,,,,,,,,,,747.890261599794,None,748.5899830996059,749.1906968997791,749.1737778000534,751.174859599676,None,1,0.6128531899303198,2.6139612896367908,increament,0.6,45,standard,None,100,,,,,,,,f,23,221,fr,r,0,raw,2022-06-08_16h30.47.551,oddball,2022.1.2,59.86722661075024,
20,,,,,0,0,0,3,6,0,6,0,27,0,27,0,,,,,,,,,,,,,,,,,751.1913154996,None,751.9082837998867,752.5084469998255,752.4919598000124,754.4925968996249,None,1,0.6119008897803724,2.612546590156853,increament,0.6,45,standard,None,100,,,,,,,,f,23,221,fr,r,0,raw,2022-06-08_16h30.47.551,oddball,2022.1.2,59.86722661075024,
20,,,,,0,0,0,3,6,0,6,0,28,0,28,0,,,,,,,,,,,,,,,,,754.5089964000508,None,755.1092880996875,755.8428415996023,755.8097796998918,757.810495799873,None,0,0.7308829897083342,2.731602389831096,increament,0.72,46,oddball,j,120,,,,,,,,f,23,221,fr,r,0,raw,2022-06-08_16h30.47.551,oddball,2022.1.2,59.86722661075024,
20,,,,,0,0,0,3,6,0,6,0,29,0,29,0,,,,,,,,,,,,,,,,,757.8272370998748,None,758.5110304998234,759.1110052997246,759.0943477996625,761.0951490998268,None,1,0.609439390245825,2.610246689990163,increament,0.6,45,standard,None,100,,,,,,,,f,23,221,fr,r,0,raw,2022-06-08_16h30.47.551,oddball,2022.1.2,59.86722661075024,
20,,,,,0,0,0,3,7,0,7,0,0,0,0,0,,,,,,,,,,,,,,,767.0830647996627,None,773.1163758998737,None,773.6664939997718,774.2667086999863,774.2499927999452,776.2506715999916,None,1,0.6098161903209984,2.610461790114641,decreament,0.6,41,standard,None,100,,761.11307259975,None,,,,,f,23,221,fr,r,0,raw,2022-06-08_16h30.47.551,oddball,2022.1.2,59.86722661075024,
20,,,,,0,0,0,3,7,0,7,0,1,0,1,0,,,,,,,,,,,,,,,,,776.2674078997225,None,776.9178436999209,777.5179633996449,777.5012672999874,779.5024814996868,None,1,0.6101734894327819,2.611450389493257,decreament,0.6,41,standard,None,100,,,,,,,,f,23,221,fr,r,0,raw,2022-06-08_16h30.47.551,oddball,2022.1.2,59.86722661075024,
20,,,,,0,0,0,3,7,0,7,0,2,0,2,0,,,,,,,,,,,,,,,,,779.5186311998405,None,780.1190916998312,780.7193266996183,780.7023540996015,782.7031343998387,None,1,0.6122390902601182,2.6130060902796686,decreament,0.6,41,standard,None,100,,,,,,,,f,23,221,fr,r,0,raw,2022-06-08_16h30.47.551,oddball,2022.1.2,59.86722661075024,
20,,,,,0,0,0,3,7,0,7,0,3,0,3,0,,,,,,,,,,,,,,,,,782.720051500015,None,783.3533405996859,783.9540182999335,783.9371441998519,785.938117200043,None,1,0.6135296900756657,2.614559090230614,decreament,0.6,41,standard,None,100,,,,,,,,f,23,221,fr,r,0,raw,2022-06-08_16h30.47.551,oddball,2022.1.2,59.86722661075024,
20,,,,,0,0,0,3,7,0,7,0,4,0,4,0,,,,,,,,,,,,,,,,,785.9555730996653,None,786.5216316999868,787.1216126997024,787.1049175998196,789.1054259999655,None,1,0.609277589712292,2.6097698900848627,decreament,0.6,41,standard,None,100,,,,,,,,f,23,221,fr,r,0,raw,2022-06-08_16h30.47.551,oddball,2022.1.2,59.86722661075024,
20,,,,,0,0,0,3,7,0,7,0,5,0,5,0,,,,,,,,,,,,,,,,,789.122367199976,None,789.8394382996485,790.2062829998322,790.1730350996368,792.1732888999395,j,1,0.3624214897863567,2.362575590144843,decreament,0.36,43,oddball,j,60,0.974066000431776,,,,,,,f,23,221,fr,r,0,raw,2022-06-08_16h30.47.551,oddball,2022.1.2,59.86722661075024,
20,,,,,0,0,0,3,7,0,7,0,6,0,6,0,,,,,,,,,,,,,,,,,792.1899994998239,None,792.9575483999215,793.5572750996798,793.5408183997497,795.5413166997023,None,1,0.6116329901851714,2.612106290180236,decreament,0.6,41,standard,None,100,,,,,,,,f,23,221,fr,r,0,raw,2022-06-08_16h30.47.551,oddball,2022.1.2,59.86722661075024,
20,,,,,0,0,0,3,7,0,7,0,7,0,7,0,,,,,,,,,,,,,,,,,795.5578832998872,None,796.191996499896,796.7923286999576,796.7754635997117,798.7764586997218,None,1,0.6119608897715807,2.6129552898928523,decreament,0.6,41,standard,None,100,,,,,,,,f,23,221,fr,r,0,raw,2022-06-08_16h30.47.551,oddball,2022.1.2,59.86722661075024,
20,,,,,0,0,0,3,7,0,7,0,8,0,8,0,,,,,,,,,,,,,,,,,798.7926622997038,None,799.493202299811,800.0933600999415,800.0769120999612,802.0774399996735,None,1,0.6111341905780137,2.6116147902794182,decreament,0.6,41,standard,None,100,,,,,,,,f,23,221,fr,r,0,raw,2022-06-08_16h30.47.551,oddball,2022.1.2,59.86722661075024,
20,,,,,0,0,0,3,7,0,7,0,9,0,9,0,,,,,,,,,,,,,,,,,802.0940024997108,None,802.7774836998433,803.37746099988,803.3609572998248,805.3617022996768,None,1,0.6113881897181273,2.612152389716357,decreament,0.6,41,standard,None,100,,,,,,,,f,23,221,fr,r,0,raw,2022-06-08_16h30.47.551,oddball,2022.1.2,59.86722661075024,
20,,,,,0,0,0,3,7,0,7,0,10,0,10,0,,,,,,,,,,,,,,,,,805.3786900998093,None,806.0285318996757,806.6289553996176,806.6123893000185,808.6129787997343,None,1,0.6133893895894289,2.6139626898802817,decreament,0.6,41,standard,None,100,,,,,,,,f,23,221,fr,r,0,raw,2022-06-08_16h30.47.551,oddball,2022.1.2,59.86722661075024,
20,,,,,0,0,0,3,7,0,7,0,11,0,11,0,,,,,,,,,,,,,,,,,808.6295498996042,None,809.3470243997872,809.946985699702,809.9308443996124,811.9308597999625,None,1,0.6101903901435435,2.6101227905601263,decreament,0.6,41,standard,None,100,,,,,,,,f,23,221,fr,r,0,raw,2022-06-08_16h30.47.551,oddball,2022.1.2,59.86722661075024,
20,,,,,0,0,0,3,7,0,7,0,12,0,12,0,,,,,,,,,,,,,,,,,811.9474164997227,None,812.5478045996279,813.1483437996358,813.1316655999981,815.132118599955,None,1,0.6127569903619587,2.6131406906060874,decreament,0.6,41,standard,None,100,,,,,,,,f,23,221,fr,r,0,raw,2022-06-08_16h30.47.551,oddball,2022.1.2,59.86722661075024,
20,,,,,0,0,0,3,7,0,7,0,13,0,13,0,,,,,,,,,,,,,,,,,815.149142799899,None,815.8996408996172,816.1492331000045,816.1163177997805,818.1164830997586,j,1,0.24557818984612823,2.245675290003419,decreament,0.24,42,oddball,j,40,0.6700189001858234,,,,,,,f,23,221,fr,r,0,raw,2022-06-08_16h30.47.551,oddball,2022.1.2,59.86722661075024,
20,,,,,0,0,0,3,7,0,7,0,14,0,14,0,,,,,,,,,,,,,,,,,818.1334762996994,None,818.7668345998973,819.3671921999194,819.3504747999832,821.3512103999965,None,1,0.6132943900302052,2.614041390363127,decreament,0.6,41,standard,None,100,,,,,,,,f,23,221,fr,r,0,raw,2022-06-08_16h30.47.551,oddball,2022.1.2,59.86722661075024,
20,,,,,0,0,0,3,7,0,7,0,15,0,15,0,,,,,,,,,,,,,,,,,821.3677693000063,None,822.0183077999391,822.6181772998534,822.601632699836,824.6023931996897,None,1,0.6120560900308192,2.6128904898650944,decreament,0.6,41,standard,None,100,,,,,,,,f,23,221,fr,r,0,raw,2022-06-08_16h30.47.551,oddball,2022.1.2,59.86722661075024,
20,,,,,0,0,0,3,7,0,7,0,16,0,16,0,,,,,,,,,,,,,,,,,824.6194807998836,None,825.2364994999953,825.8363977000117,825.8198402998969,827.8204858996905,None,1,0.609993290156126,2.610635890159756,decreament,0.6,41,standard,None,100,,,,,,,,f,23,221,fr,r,0,raw,2022-06-08_16h30.47.551,oddball,2022.1.2,59.86722661075024,
20,,,,,0,0,0,3,7,0,7,0,17,0,17,0,,,,,,,,,,,,,,,,,827.8369858996011,None,828.4538364997134,829.0538949999027,829.0373926996253,831.0384251996875,None,1,0.612232890445739,2.613305790349841,decreament,0.6,41,standard,None,100,,,,,,,,f,23,221,fr,r,0,raw,2022-06-08_16h30.47.551,oddball,2022.1.2,59.86722661075024,
20,,,,,0,0,0,3,7,0,7,0,18,0,18,0,,,,,,,,,,,,,,,,,831.0551200998016,None,831.7216749000363,832.3221096997149,832.3053667000495,834.3061035997234,None,1,0.6139302900992334,2.614647990092635,decreament,0.6,41,standard,None,100,,,,,,,,f,23,221,fr,r,0,raw,2022-06-08_16h30.47.551,oddball,2022.1.2,59.86722661075024,
20,,,,,0,0,0,3,7,0,7,0,19,0,19,0,,,,,,,,,,,,,,,,,834.3226812998764,None,834.9062015996315,835.5065806000493,835.4900485998951,837.4908431996591,None,1,0.6124712899327278,2.6132829901762307,decreament,0.6,41,standard,None,100,,,,,,,,f,23,221,fr,r,0,raw,2022-06-08_16h30.47.551,oddball,2022.1.2,59.86722661075024,
20,,,,,0,0,0,3,7,0,7,0,20,0,20,0,,,,,,,,,,,,,,,,,837.509601299651,None,838.2743464000523,838.8748132996261,838.8578798999079,840.8586927000433,None,1,0.6131345899775624,2.6139710899442434,decreament,0.6,41,standard,None,100,,,,,,,,f,23,221,fr,r,0,raw,2022-06-08_16h30.47.551,oddball,2022.1.2,59.86722661075024,
20,,,,,0,0,0,3,7,0,7,0,21,0,21,0,,,,,,,,,,,,,,,,,840.8756089997478,None,841.6089275996201,842.2090289997868,842.1928125000559,844.1930640996434,None,1,0.6132659893482924,2.6134379897266626,decreament,0.6,41,standard,None,100,,,,,,,,f,23,221,fr,r,0,raw,2022-06-08_16h30.47.551,oddball,2022.1.2,59.86722661075024,
20,,,,,0,0,0,3,7,0,7,0,22,0,22,0,,,,,,,,,,,,,,,,,844.2100173998624,None,845.043695599772,845.5268337000161,845.5104700997472,None,j,1,0.4790039900690317,2.4795313901267946,decreament,0.48,44,oddball,j,80,0.6048628003336489,,,,,,,f,23,221,fr,r,0,raw,2022-06-08_16h30.47.551,oddball,2022.1.2,59.86722661075024,
20,,,,,0,0,0,3,7,0,7,0,23,0,23,0,,,,,,,,,,,,,,,,,847.5112998997793,None,848.0948087000288,848.6950874999166,848.6784844999202,850.6791769997217,None,1,0.612994990311563,2.6136552901007235,decreament,0.6,41,standard,None,100,,,,,,,,f,23,221,fr,r,0,raw,2022-06-08_16h30.47.551,oddball,2022.1.2,59.86722661075024,
20,,,,,0,0,0,3,7,0,7,0,24,0,24,0,,,,,,,,,,,,,,,,,850.695537599735,None,851.3795861997642,851.9796476997435,851.9629486999474,853.9633338996209,None,1,0.6081107896752656,2.608434989582747,decreament,0.6,41,standard,None,100,,,,,,,,f,23,221,fr,r,0,raw,2022-06-08_16h30.47.551,oddball,2022.1.2,59.86722661075024,
20,,,,,0,0,0,3,7,0,7,0,25,0,25,0,,,,,,,,,,,,,,,,,853.9801966999657,None,854.6306175999343,855.2306601000018,855.2142798998393,857.2147563998587,None,1,0.6116841896437109,2.6121469899080694,decreament,0.6,41,standard,None,100,,,,,,,,f,23,221,fr,r,0,raw,2022-06-08_16h30.47.551,oddball,2022.1.2,59.86722661075024,
20,,,,,0,0,0,3,7,0,7,0,26,0,26,0,,,,,,,,,,,,,,,,,857.2313953996636,None,857.9654667996801,858.5653557996266,858.5491303997114,860.5495249000378,None,1,0.6124325897544622,2.6127981897443533,decreament,0.6,41,standard,None,100,,,,,,,,f,23,221,fr,r,0,raw,2022-06-08_16h30.47.551,oddball,2022.1.2,59.86722661075024,
20,,,,,0,0,0,3,7,0,7,0,27,0,27,0,,,,,,,,,,,,,,,,,860.5664707999676,None,861.1661417996511,861.7669398998842,861.7498085000552,863.7506671999581,None,1,0.6134245898574591,2.614262089598924,decreament,0.6,41,standard,None,100,,,,,,,,f,23,221,fr,r,0,raw,2022-06-08_16h30.47.551,oddball,2022.1.2,59.86722661075024,
20,,,,,0,0,0,3,7,0,7,0,28,0,28,0,,,,,,,,,,,,,,,,,863.7672873996198,None,864.3846048000269,864.9843431999907,864.9680131999776,866.9683746998198,None,1,0.6085866899229586,2.608880490064621,decreament,0.6,41,standard,None,100,,,,,,,,f,23,221,fr,r,0,raw,2022-06-08_16h30.47.551,oddball,2022.1.2,59.86722661075024,
20,,,,,0,0,0,3,7,0,7,0,29,0,29,0,,,,,,,,,,,,,,,,,866.9853172996081,None,867.5858803996816,868.1856982000172,868.1689920998178,870.169512799941,None,1,0.6096326904371381,2.6101338900625706,decreament,0.6,41,standard,None,100,,,,,,,,f,23,221,fr,r,0,raw,2022-06-08_16h30.47.551,oddball,2022.1.2,59.86722661075024,
20,,,,,0,0,0,3,8,0,8,0,0,0,0,0,,,,,,,,,,,,,,,876.3117255000398,None,878.7573985997587,None,879.4732250999659,880.0733692999929,880.0567393000238,882.0574000999331,None,1,0.6089613898657262,2.6096204896457493,increament,0.6,45,standard,None,100,,870.1862042997964,None,,,,,f,23,221,fr,r,0,raw,2022-06-08_16h30.47.551,oddball,2022.1.2,59.86722661075024,
20,,,,,0,0,0,3,8,0,8,0,1,0,1,0,,,,,,,,,,,,,,,,,882.0742990998551,None,882.691301099956,883.2912800996564,883.274574500043,885.2752624996938,None,1,0.6122134900651872,2.612949389964342,increament,0.6,45,standard,None,100,,,,,,,,f,23,221,fr,r,0,raw,2022-06-08_16h30.47.551,oddball,2022.1.2,59.86722661075024,
20,,,,,0,0,0,3,8,0,8,0,2,0,2,0,,,,,,,,,,,,,,,,,885.2921543996781,None,885.992478299886,886.5923349000514,886.5759190996177,888.5765324998647,None,1,0.6116607896983624,2.6122631896287203,increament,0.6,45,standard,None,100,,,,,,,,f,23,221,fr,r,0,raw,2022-06-08_16h30.47.551,oddball,2022.1.2,59.86722661075024,
20,,,,,0,0,0,3,8,0,8,0,3,0,3,0,,,,,,,,,,,,,,,,,888.5931976996362,None,889.2435266999528,889.8438867996447,889.8277860996313,891.8280201996677,None,1,0.6105503900907934,2.6107386904768646,increament,0.6,45,standard,None,100,,,,,,,,f,23,221,fr,r,0,raw,2022-06-08_16h30.47.551,oddball,2022.1.2,59.86722661075024,
20,,,,,0,0,0,3,8,0,8,0,4,0,4,0,,,,,,,,,,,,,,,,,891.844845699612,None,892.4780794996768,893.0786870997399,893.061835099943,895.0627335999161,None,1,0.6124039897695184,2.6133417896926403,increament,0.6,45,standard,None,100,,,,,,,,f,23,221,fr,r,0,raw,2022-06-08_16h30.47.551,oddball,2022.1.2,59.86722661075024,
20,,,,,0,0,0,3,8,0,8,0,5,0,5,0,,,,,,,,,,,,,,,,,895.079084799625,None,895.7131634997204,896.4462845996022,896.413371199742,898.4141038996167,j,1,0.7283953898586333,2.7291348897852004,increament,0.72,46,oddball,j,120,0.7414407003670931,,,,,,,f,23,221,fr,r,0,raw,2022-06-08_16h30.47.551,oddball,2022.1.2,59.86722661075024,
20,,,,,0,0,0,3,8,0,8,0,6,0,6,0,,,,,,,,,,,,,,,,,898.4305573999882,None,899.1642096997239,899.7644269997254,899.7478740997612,901.7483405997045,None,1,0.6111043896526098,2.611544389743358,increament,0.6,45,standard,None,100,,,,,,,,f,23,221,fr,r,0,raw,2022-06-08_16h30.47.551,oddball,2022.1.2,59.86722661075024,
20,,,,,0,0,0,3,8,0,8,0,7,0,7,0,,,,,,,,,,,,,,,,,901.7650837996043,None,902.3986897999421,902.9987104996108,902.9824311998673,904.9830469000153,None,1,0.6101560895331204,2.610779189504683,increament,0.6,45,standard,None,100,,,,,,,,f,23,221,fr,r,0,raw,2022-06-08_16h30.47.551,oddball,2022.1.2,59.86722661075024,
20,,,,,0,0,0,3,8,0,8,0,8,0,8,0,,,,,,,,,,,,,,,,,904.999720599968,None,905.66663219966,906.2662983997725,906.2497866996564,908.250938499812,None,1,0.6110381903126836,2.6122037903405726,increament,0.6,45,standard,None,100,,,,,,,,f,23,221,fr,r,0,raw,2022-06-08_16h30.47.551,oddball,2022.1.2,59.86722661075024,
20,,,,,0,0,0,3,8,0,8,0,9,0,9,0,,,,,,,,,,,,,,,,,908.2675210996531,None,908.9508432997391,909.5512096998282,909.5349943996407,911.5351037997752,None,1,0.6146928905509412,2.614894890692085,increament,0.6,45,standard,None,100,,,,,,,,f,23,221,fr,r,0,raw,2022-06-08_16h30.47.551,oddball,2022.1.2,59.86722661075024,
20,,,,,0,0,0,3,8,0,8,0,10,0,10,0,,,,,,,,,,,,,,,,,911.5518445000052,None,912.1021806998178,912.7024918999523,912.6857121996582,914.6864491999149,None,1,0.6132403905503452,2.613957790657878,increament,0.6,45,standard,None,100,,,,,,,,f,23,221,fr,r,0,raw,2022-06-08_16h30.47.551,oddball,2022.1.2,59.86722661075024,
20,,,,,0,0,0,3,8,0,8,0,11,0,11,0,,,,,,,,,,,,,,,,,914.7032124996185,None,915.3866332997568,915.9873355999589,915.9705643998459,917.971145299729,None,1,0.6121626901440322,2.6127361902035773,increament,0.6,45,standard,None,100,,,,,,,,f,23,221,fr,r,0,raw,2022-06-08_16h30.47.551,oddball,2022.1.2,59.86722661075024,
20,,,,,0,0,0,3,8,0,8,0,12,0,12,0,,,,,,,,,,,,,,,,,917.9877494997345,None,918.8050353997387,919.4048293000087,919.3881142996252,921.3890685997903,None,1,0.6091126897372305,2.6101166899316013,increament,0.6,45,standard,None,100,,,,,,,,f,23,221,fr,r,0,raw,2022-06-08_16h30.47.551,oddball,2022.1.2,59.86722661075024,
20,,,,,0,0,0,3,8,0,8,0,13,0,13,0,,,,,,,,,,,,,,,,,921.4057859997265,None,922.0560009996407,922.6560806999914,922.6397440996952,924.6403411999345,None,1,0.6126994900405407,2.613319589756429,increament,0.6,45,standard,None,100,,,,,,,,f,23,221,fr,r,0,raw,2022-06-08_16h30.47.551,oddball,2022.1.2,59.86722661075024,
20,,,,,0,0,0,3,8,0,8,0,14,0,14,0,,,,,,,,,,,,,,,,,924.657055599615,None,925.3237381000072,925.9239847999997,925.9076148997992,927.9082390996628,None,1,0.6139050903730094,2.6145555903203785,increament,0.6,45,standard,None,100,,,,,,,,f,23,221,fr,r,0,raw,2022-06-08_16h30.47.551,oddball,2022.1.2,59.86722661075024,
20,,,,,0,0,0,3,8,0,8,0,15,0,15,0,,,,,,,,,,,,,,,,,927.925069599878,None,928.5921187000349,929.1920729000121,929.1753108999692,931.1766368998215,None,1,0.6110645900480449,2.612433389760554,increament,0.6,45,standard,None,100,,,,,,,,f,23,221,fr,r,0,raw,2022-06-08_16h30.47.551,oddball,2022.1.2,59.86722661075024,
20,,,,,0,0,0,3,8,0,8,0,16,0,16,0,,,,,,,,,,,,,,,,,931.1937037999742,None,931.9099748996086,932.759948999621,932.7273253998719,934.7279681996442,None,0,0.8438394903205335,2.844453290104866,increament,0.84,47,oddball,j,140,,,,,,,,f,23,221,fr,r,0,raw,2022-06-08_16h30.47.551,oddball,2022.1.2,59.86722661075024,
20,,,,,0,0,0,3,8,0,8,0,17,0,17,0,,,,,,,,,,,,,,,,,934.7439838997088,None,935.3443339997903,935.9449443998747,935.9281493998133,937.9289059997536,None,1,0.6108805895783007,2.6111724893562496,increament,0.6,45,standard,None,100,,,,,,,,f,23,221,fr,r,0,raw,2022-06-08_16h30.47.551,oddball,2022.1.2,59.86722661075024,
20,,,,,0,0,0,3,8,0,8,0,18,0,18,0,,,,,,,,,,,,,,,,,937.9452267996967,None,938.612134099938,939.2123949998058,939.195961699821,941.1966487998143,None,1,0.6138540902175009,2.6145508899353445,increament,0.6,45,standard,None,100,,,,,,,,f,23,221,fr,r,0,raw,2022-06-08_16h30.47.551,oddball,2022.1.2,59.86722661075024,
20,,,,,0,0,0,3,8,0,8,0,19,0,19,0,,,,,,,,,,,,,,,,,941.2132424996234,None,941.9301154999994,942.5303039997816,942.5139802997,944.5145306000486,None,1,0.613610090687871,2.6141304904595017,increament,0.6,45,standard,None,100,,,,,,,,f,23,221,fr,r,0,raw,2022-06-08_16h30.47.551,oddball,2022.1.2,59.86722661075024,
20,,,,,0,0,0,3,8,0,8,0,20,0,20,0,,,,,,,,,,,,,,,,,944.5312704998069,None,945.0981731996872,945.6981549998745,945.6816930999048,947.6826088000089,None,1,0.6129918899387121,2.6139750899747014,increament,0.6,45,standard,None,100,,,,,,,,f,23,221,fr,r,0,raw,2022-06-08_16h30.47.551,oddball,2022.1.2,59.86722661075024,
20,,,,,0,0,0,3,8,0,8,0,21,0,21,0,,,,,,,,,,,,,,,,,947.6998205999844,None,948.2991419997998,948.8995141000487,948.8830698998645,950.8839560998604,None,1,0.6134499893523753,2.6143663893453777,increament,0.6,45,standard,None,100,,,,,,,,f,23,221,fr,r,0,raw,2022-06-08_16h30.47.551,oddball,2022.1.2,59.86722661075024,
20,,,,,0,0,0,3,8,0,8,0,22,0,22,0,,,,,,,,,,,,,,,,,950.9004583996721,None,951.6005702996626,952.2005818998441,952.1841463996097,954.1848557000048,None,1,0.613385790027678,2.6141101899556816,increament,0.6,45,standard,None,100,,,,,,,,f,23,221,fr,r,0,raw,2022-06-08_16h30.47.551,oddball,2022.1.2,59.86722661075024,
20,,,,,0,0,0,3,8,0,8,0,23,0,23,0,,,,,,,,,,,,,,,,,954.2015219996683,None,954.9017183999531,955.501921299845,955.485537099652,957.486346999649,None,1,0.6116887899115682,2.612512690015137,increament,0.6,45,standard,None,100,,,,,,,,f,23,221,fr,r,0,raw,2022-06-08_16h30.47.551,oddball,2022.1.2,59.86722661075024,
20,,,,,0,0,0,3,8,0,8,0,24,0,24,0,,,,,,,,,,,,,,,,,957.502685399726,None,958.0529338000342,958.6537301996723,958.6368644000031,960.6380989998579,None,1,0.612158490344882,2.613767790608108,increament,0.6,45,standard,None,100,,,,,,,,f,23,221,fr,r,0,raw,2022-06-08_16h30.47.551,oddball,2022.1.2,59.86722661075024,
20,,,,,0,0,0,3,8,0,8,0,25,0,25,0,,,,,,,,,,,,,,,,,960.6538166999817,None,961.4709973996505,962.071202899795,962.054507299792,964.0551610998809,None,1,0.6128709893673658,2.61351908929646,increament,0.6,45,standard,None,100,,,,,,,,f,23,221,fr,r,0,raw,2022-06-08_16h30.47.551,oddball,2022.1.2,59.86722661075024,
20,,,,,0,0,0,3,8,0,8,0,26,0,26,0,,,,,,,,,,,,,,,,,964.0719583998434,None,964.72213619994,965.6891838996671,965.6558042997494,967.6565616000444,j,1,0.960638789460063,2.9614070896059275,increament,0.96,48,oddball,j,160,0.36328859999775887,,,,,,,f,23,221,fr,r,0,raw,2022-06-08_16h30.47.551,oddball,2022.1.2,59.86722661075024,
20,,,,,0,0,0,3,8,0,8,0,27,0,27,0,,,,,,,,,,,,,,,,,967.6734138997272,None,968.3235630998388,968.923668500036,968.906953800004,970.9077457999811,None,1,0.6073425901122391,2.608133589848876,increament,0.6,45,standard,None,100,,,,,,,,f,23,221,fr,r,0,raw,2022-06-08_16h30.47.551,oddball,2022.1.2,59.86722661075024,
20,,,,,0,0,0,3,8,0,8,0,28,0,28,0,,,,,,,,,,,,,,,,,970.9245058000088,None,971.5749581996351,972.1749642998911,972.1581520996988,974.1593815996312,None,1,0.6091063898056746,2.610449189785868,increament,0.6,45,standard,None,100,,,,,,,,f,23,221,fr,r,0,raw,2022-06-08_16h30.47.551,oddball,2022.1.2,59.86722661075024,
20,,,,,0,0,0,3,8,0,8,0,29,0,29,0,,,,,,,,,,,,,,,,,974.177076399792,None,974.7426917999983,975.3429516996257,975.3260849998333,977.3266247999854,None,1,0.6124710901640356,2.612994990311563,increament,0.6,45,standard,None,100,,,,,,,,f,23,221,fr,r,0,raw,2022-06-08_16h30.47.551,oddball,2022.1.2,59.86722661075024,
20,,,,,0,0,0,3,9,0,9,0,0,0,0,0,,,,,,,,,,,,,,,987.9412416997366,None,992.1824882999063,None,992.8162697996013,993.4164627999999,993.3998094997369,995.4007748998702,None,1,0.6087434901855886,2.6097583901137114,decreament,0.6,41,standard,None,100,,977.3438967997208,None,,,,,f,23,221,fr,r,0,raw,2022-06-08_16h30.47.551,oddball,2022.1.2,59.86722661075024,
20,,,,,0,0,0,3,9,0,9,0,1,0,1,0,,,,,,,,,,,,,,,,,995.4170019999146,None,995.9673778996803,996.5673585999757,996.5513284998015,998.5518127996475,None,1,0.6132392901927233,2.613768090028316,decreament,0.6,41,standard,None,100,,,,,,,,f,23,221,fr,r,0,raw,2022-06-08_16h30.47.551,oddball,2022.1.2,59.86722661075024,
20,,,,,0,0,0,3,9,0,9,0,2,0,2,0,,,,,,,,,,,,,,,,,998.5688449996524,None,999.4522151998244,1000.0524760000408,1000.0359336999245,1002.0361818997189,None,1,0.6116491896100342,2.6118075898848474,decreament,0.6,41,standard,None,100,,,,,,,,f,23,221,fr,r,0,raw,2022-06-08_16h30.47.551,oddball,2022.1.2,59.86722661075024,
20,,,,,0,0,0,3,9,0,9,0,3,0,3,0,,,,,,,,,,,,,,,,,1002.0528291999362,None,1002.6030823998153,1003.2035334999673,1003.1869910997339,1005.1874401997775,None,1,0.6131787900812924,2.613546890206635,decreament,0.6,41,standard,None,100,,,,,,,,f,23,221,fr,r,0,raw,2022-06-08_16h30.47.551,oddball,2022.1.2,59.86722661075024,
20,,,,,0,0,0,3,9,0,9,0,4,0,4,0,,,,,,,,,,,,,,,,,1005.2039941996336,None,1005.8545484999195,1006.4547963999212,1006.4380651996471,1008.4391340999864,None,1,0.6127391890622675,2.6138726891949773,decreament,0.6,41,standard,None,100,,,,,,,,f,23,221,fr,r,0,raw,2022-06-08_16h30.47.551,oddball,2022.1.2,59.86722661075024,
20,,,,,0,0,0,3,9,0,9,0,5,0,5,0,,,,,,,,,,,,,,,,,1008.4554109997116,None,1009.13882609969,1009.7394315996207,1009.7227693996392,1011.7232240997255,None,1,0.6146023902110755,2.6149729904718697,decreament,0.6,41,standard,None,100,,,,,,,,f,23,221,fr,r,0,raw,2022-06-08_16h30.47.551,oddball,2022.1.2,59.86722661075024,
20,,,,,0,0,0,3,9,0,9,0,6,0,6,0,,,,,,,,,,,,,,,,,1011.7399905999191,None,1012.407147299964,1013.0070231999271,1012.9907205998898,1014.9910463998094,None,1,0.6121221892535686,2.61237888969481,decreament,0.6,41,standard,None,100,,,,,,,,f,23,221,fr,r,0,raw,2022-06-08_16h30.47.551,oddball,2022.1.2,59.86722661075024,
20,,,,,0,0,0,3,9,0,9,0,7,0,7,0,,,,,,,,,,,,,,,,,1015.0076720998622,None,1015.708150499966,1016.3084481996484,1016.2915804996155,1018.2924394998699,None,1,0.6134847900830209,2.614324589725584,decreament,0.6,41,standard,None,100,,,,,,,,f,23,221,fr,r,0,raw,2022-06-08_16h30.47.551,oddball,2022.1.2,59.86722661075024,
20,,,,,0,0,0,3,9,0,9,0,8,0,8,0,,,,,,,,,,,,,,,,,1018.3092326000333,None,1019.0426145996898,1019.6427714996971,1019.6262904996984,1021.6270809997804,None,1,0.6133203902281821,2.6141533902846277,decreament,0.6,41,standard,None,100,,,,,,,,f,23,221,fr,r,0,raw,2022-06-08_16h30.47.551,oddball,2022.1.2,59.86722661075024,
20,,,,,0,0,0,3,9,0,9,0,9,0,9,0,,,,,,,,,,,,,,,,,1021.643811899703,None,1022.360966600012,1022.9611418996938,1022.9442996997386,1024.9452204997651,None,1,0.6125973896123469,2.613532189745456,decreament,0.6,41,standard,None,100,,,,,,,,f,23,221,fr,r,0,raw,2022-06-08_16h30.47.551,oddball,2022.1.2,59.86722661075024,
20,,,,,0,0,0,3,9,0,9,0,10,0,10,0,,,,,,,,,,,,,,,,,1024.9616733998992,None,1025.5619012997486,1026.162078499794,1026.1454464998096,1028.146161600016,None,1,0.6133015900850296,2.614018389955163,decreament,0.6,41,standard,None,100,,,,,,,,f,23,221,fr,r,0,raw,2022-06-08_16h30.47.551,oddball,2022.1.2,59.86722661075024,
20,,,,,0,0,0,3,9,0,9,0,11,0,11,0,,,,,,,,,,,,,,,,,1028.163041899912,None,1028.930211899802,1029.5301397996955,1029.5134511999786,1031.5142877995968,None,1,0.611496290192008,2.612496890127659,decreament,0.6,41,standard,None,100,,,,,,,,f,23,221,fr,r,0,raw,2022-06-08_16h30.47.551,oddball,2022.1.2,59.86722661075024,
20,,,,,0,0,0,3,9,0,9,0,12,0,12,0,,,,,,,,,,,,,,,,,1031.531138499733,None,1032.2308036996983,1032.8311063,1032.8148833997548,1034.815245699603,None,1,0.6141993901692331,2.6145574902184308,decreament,0.6,41,standard,None,100,,,,,,,,f,23,221,fr,r,0,raw,2022-06-08_16h30.47.551,oddball,2022.1.2,59.86722661075024,
20,,,,,0,0,0,3,9,0,9,0,13,0,13,0,,,,,,,,,,,,,,,,,1034.832284099888,None,1035.449108199682,1036.0494675999507,1036.0327925998718,1038.0332725998014,None,1,0.609996990300715,2.6105129905045033,decreament,0.6,41,standard,None,100,,,,,,,,f,23,221,fr,r,0,raw,2022-06-08_16h30.47.551,oddball,2022.1.2,59.86722661075024,
20,,,,,0,0,0,3,9,0,9,0,14,0,14,0,,,,,,,,,,,,,,,,,1038.0501625998877,None,1038.8004743000492,1039.4003351996653,1039.384029299952,1041.3848253996111,None,1,0.6101433895528316,2.6109842895530164,decreament,0.6,41,standard,None,100,,,,,,,,f,23,221,fr,r,0,raw,2022-06-08_16h30.47.551,oddball,2022.1.2,59.86722661075024,
20,,,,,0,0,0,3,9,0,9,0,15,0,15,0,,,,,,,,,,,,,,,,,1041.4013411998749,None,1041.9514476000331,1042.318309799768,1042.2850986998528,1044.2855583997443,j,1,0.36198488995432854,2.3623944902792573,decreament,0.36,43,oddball,j,60,0.652073900680989,,,,,,,f,23,221,fr,r,0,raw,2022-06-08_16h30.47.551,oddball,2022.1.2,59.86722661075024,
20,,,,,0,0,0,3,9,0,9,0,16,0,16,0,,,,,,,,,,,,,,,,,1044.30244089989,None,1044.819117799867,1045.4193492997438,1045.4027485996485,1047.4033129997551,None,1,0.6131266900338233,2.6136924899183214,decreament,0.6,41,standard,None,100,,,,,,,,f,23,221,fr,r,0,raw,2022-06-08_16h30.47.551,oddball,2022.1.2,59.86722661075024,
20,,,,,0,0,0,3,9,0,9,0,17,0,17,0,,,,,,,,,,,,,,,,,1047.4203552999534,None,1048.1042285999283,1048.703907799907,1048.6874519996345,1050.688274799846,None,1,0.6096185897476971,2.6104738898575306,decreament,0.6,41,standard,None,100,,,,,,,,f,23,221,fr,r,0,raw,2022-06-08_16h30.47.551,oddball,2022.1.2,59.86722661075024,
20,,,,,0,0,0,3,9,0,9,0,18,0,18,0,,,,,,,,,,,,,,,,,1050.704561199993,None,1051.3214920000173,1051.9219670998864,1051.9052630998194,1053.905840399675,None,1,0.6134326900355518,2.6139789898879826,decreament,0.6,41,standard,None,100,,,,,,,,f,23,221,fr,r,0,raw,2022-06-08_16h30.47.551,oddball,2022.1.2,59.86722661075024,
20,,,,,0,0,0,3,9,0,9,0,19,0,19,0,,,,,,,,,,,,,,,,,1053.9229094996117,None,1054.4397295997478,1055.0398137997836,1055.0230488996021,1057.0236275000498,None,1,0.6091442895121872,2.609721189364791,decreament,0.6,41,standard,None,100,,,,,,,,f,23,221,fr,r,0,raw,2022-06-08_16h30.47.551,oddball,2022.1.2,59.86722661075024,
20,,,,,0,0,0,3,9,0,9,0,20,0,20,0,,,,,,,,,,,,,,,,,1057.0406908998266,None,1057.6909812996164,1058.2907201997004,1058.2744106999598,1060.2751352996565,None,1,0.6112720905803144,2.6120075904764235,decreament,0.6,41,standard,None,100,,,,,,,,f,23,221,fr,r,0,raw,2022-06-08_16h30.47.551,oddball,2022.1.2,59.86722661075024,
20,,,,,0,0,0,3,9,0,9,0,21,0,21,0,,,,,,,,,,,,,,,,,1060.2917299997061,None,1061.0421380996704,1061.6421133996919,1061.625707499683,1063.6262717000209,None,1,0.6098566902801394,2.6103836903348565,decreament,0.6,41,standard,None,100,,,,,,,,f,23,221,fr,r,0,raw,2022-06-08_16h30.47.551,oddball,2022.1.2,59.86722661075024,
20,,,,,0,0,0,3,9,0,9,0,22,0,22,0,,,,,,,,,,,,,,,,,1063.6432556998916,None,1064.3600834999233,1064.8434885996394,1064.8100645998493,1066.8107952997088,None,0,0.4792478899471462,2.479978789575398,decreament,0.48,44,oddball,j,80,,,,,,,,f,23,221,fr,r,0,raw,2022-06-08_16h30.47.551,oddball,2022.1.2,59.86722661075024,
20,,,,,0,0,0,3,9,0,9,0,23,0,23,0,,,,,,,,,,,,,,,,,1066.8273338996805,None,1067.5114247999154,1068.1113098999485,1068.0945343999192,1070.0955955996178,None,1,0.6123405899852514,2.6134360902942717,decreament,0.6,41,standard,None,100,,,,,,,,f,23,221,fr,r,0,raw,2022-06-08_16h30.47.551,oddball,2022.1.2,59.86722661075024,
20,,,,,0,0,0,3,9,0,9,0,24,0,24,0,,,,,,,,,,,,,,,,,1070.1120167998597,None,1070.8290304997936,1071.4293608996086,1071.4126169998199,1073.4135880996473,None,1,0.6118946904316545,2.6129174903035164,decreament,0.6,41,standard,None,100,,,,,,,,f,23,221,fr,r,0,raw,2022-06-08_16h30.47.551,oddball,2022.1.2,59.86722661075024,
20,,,,,0,0,0,3,9,0,9,0,25,0,25,0,,,,,,,,,,,,,,,,,1073.429889000021,None,1073.980479599908,1074.5802585999481,1074.5637809997424,1076.5643984996714,None,1,0.6114694899879396,2.6120923897251487,decreament,0.6,41,standard,None,100,,,,,,,,f,23,221,fr,r,0,raw,2022-06-08_16h30.47.551,oddball,2022.1.2,59.86722661075024,
20,,,,,0,0,0,3,9,0,9,0,26,0,26,0,,,,,,,,,,,,,,,,,1076.5813590995967,None,1077.1316267000511,1077.731738299597,1077.715322499629,1079.7156885997392,None,1,0.6086762901395559,2.608997790142894,decreament,0.6,41,standard,None,100,,,,,,,,f,23,221,fr,r,0,raw,2022-06-08_16h30.47.551,oddball,2022.1.2,59.86722661075024,
20,,,,,0,0,0,3,9,0,9,0,27,0,27,0,,,,,,,,,,,,,,,,,1079.7325046998449,None,1080.4827136998065,1080.732786099892,1080.6995161999948,1082.7002040999942,j,1,0.24611778976395726,2.2468044897541404,decreament,0.24,42,oddball,j,40,0.7265262003056705,,,,,,,f,23,221,fr,r,0,raw,2022-06-08_16h30.47.551,oddball,2022.1.2,59.86722661075024,
20,,,,,0,0,0,3,9,0,9,0,28,0,28,0,,,,,,,,,,,,,,,,,1082.7166832997464,None,1083.316999499686,1083.9176853997633,1083.9009201000445,1085.9014930999838,None,1,0.6132238903082907,2.6137834903784096,decreament,0.6,41,standard,None,100,,,,,,,,f,23,221,fr,r,0,raw,2022-06-08_16h30.47.551,oddball,2022.1.2,59.86722661075024,
20,,,,,0,0,0,3,9,0,9,0,29,0,29,0,,,,,,,,,,,,,,,,,1085.9180319998413,None,1086.7186737996526,1087.3185059996322,1087.302151999902,1089.3024434000254,None,1,0.6121973893605173,2.6124028894118965,decreament,0.6,41,standard,None,100,,,,,,,,f,23,221,fr,r,0,raw,2022-06-08_16h30.47.551,oddball,2022.1.2,59.86722661075024,
10,,,,,0,1,1,2,0,0,0,0,0,0,0,0,,,,,,,,,,,,,,,1272.7256637997925,None,1278.2910652998835,None,1279.1244810000062,1279.7248766999692,1279.7080679000355,1281.7087877998129,None,1,0.6126317898742855,2.6133202901110053,increament,0.6,25,standard,None,100,,1269.338045799639,None,1089.3378916997463,None,,,f,23,221,fr,r,0,raw,2022-06-08_16h30.47.551,oddball,2022.1.2,59.86722661075024,
10,,,,,0,1,1,2,0,0,0,0,1,0,1,0,,,,,,,,,,,,,,,,,1281.7252972996794,None,1282.3261770997196,1282.926187099889,1282.90940639982,1284.9104237998836,None,1,0.6119883898645639,2.6130996900610626,increament,0.6,25,standard,None,100,,,,,,,,f,23,221,fr,r,0,raw,2022-06-08_16h30.47.551,oddball,2022.1.2,59.86722661075024,
10,,,,,0,1,1,2,0,0,0,0,2,0,2,0,,,,,,,,,,,,,,,,,1284.9269429999404,None,1285.4435298000462,1286.0435548997484,1286.027204199694,1288.0280279996805,None,1,0.6123869898729026,2.6132613900117576,increament,0.6,25,standard,None,100,,,,,,,,f,23,221,fr,r,0,raw,2022-06-08_16h30.47.551,oddball,2022.1.2,59.86722661075024,
10,,,,,0,1,1,2,0,0,0,0,3,0,3,0,,,,,,,,,,,,,,,,,1288.044718099758,None,1288.7449715998955,1289.3454523999244,1289.328528800048,1291.329510399606,None,1,0.6114264894276857,2.612410789821297,increament,0.6,25,standard,None,100,,,,,,,,f,23,221,fr,r,0,raw,2022-06-08_16h30.47.551,oddball,2022.1.2,59.86722661075024,
10,,,,,0,1,1,2,0,0,0,0,4,0,4,0,,,,,,,,,,,,,,,,,1291.3457558997907,None,1291.8961842996068,1292.4962623999454,1292.4798071999103,1294.480431899894,None,1,0.6118396897800267,2.612415689509362,increament,0.6,25,standard,None,100,,,,,,,,f,23,221,fr,r,0,raw,2022-06-08_16h30.47.551,oddball,2022.1.2,59.86722661075024,
10,,,,,0,1,1,2,0,0,0,0,5,0,5,0,,,,,,,,,,,,,,,,,1294.497162600048,None,1295.2138612000272,1295.8145229998045,1295.7979138996452,1297.7983067999594,None,1,0.6125478898175061,2.6128704897128046,increament,0.6,25,standard,None,100,,,,,,,,f,23,221,fr,r,0,raw,2022-06-08_16h30.47.551,oddball,2022.1.2,59.86722661075024,
10,,,,,0,1,1,2,0,0,0,0,6,0,6,0,,,,,,,,,,,,,,,,,1297.8150927997194,None,1298.4821631000377,1299.0822418997996,1299.065422799904,1301.066482400056,None,1,0.6117709903046489,2.612802790477872,increament,0.6,25,standard,None,100,,,,,,,,f,23,221,fr,r,0,raw,2022-06-08_16h30.47.551,oddball,2022.1.2,59.86722661075024,
10,,,,,0,1,1,2,0,0,0,0,7,0,7,0,,,,,,,,,,,,,,,,,1301.0828815996647,None,1301.76645049965,1302.3665082999505,1302.3499611997977,1304.350695299916,None,1,0.6138348900713027,2.6145429899916053,increament,0.6,25,standard,None,100,,,,,,,,f,23,221,fr,r,0,raw,2022-06-08_16h30.47.551,oddball,2022.1.2,59.86722661075024,
10,,,,,0,1,1,2,0,0,0,0,8,0,8,0,,,,,,,,,,,,,,,,,1304.3672300996259,None,1305.0845712996088,1305.9347914997488,1305.9015027997084,1307.9022291,j,1,0.8456907900981605,2.846383889671415,increament,0.84,27,oddball,j,140,0.5158871007151902,,,,,,,f,23,221,fr,r,0,raw,2022-06-08_16h30.47.551,oddball,2022.1.2,59.86722661075024,
10,,,,,0,1,1,2,0,0,0,0,9,0,9,0,,,,,,,,,,,,,,,,,1307.918752499856,None,1308.435744700022,1309.0360532999039,1309.0193735999055,1311.0199460997246,None,1,0.612689490430057,2.6132645905017853,increament,0.6,25,standard,None,100,,,,,,,,f,23,221,fr,r,0,raw,2022-06-08_16h30.47.551,oddball,2022.1.2,59.86722661075024,
10,,,,,0,1,1,2,0,0,0,0,10,0,10,0,,,,,,,,,,,,,,,,,1311.036958700046,None,1311.70408950001,1312.3038073997013,1312.2870326000266,1314.2878214996308,None,1,0.6122847902588546,2.613044190220535,increament,0.6,25,standard,None,100,,,,,,,,f,23,221,fr,r,0,raw,2022-06-08_16h30.47.551,oddball,2022.1.2,59.86722661075024,
10,,,,,0,1,1,2,0,0,0,0,11,0,11,0,,,,,,,,,,,,,,,,,1314.3043980998918,None,1315.0218285997398,1315.6215510000475,1315.6048438996077,1317.6059797997586,None,1,0.6109894900582731,2.6122308899648488,increament,0.6,25,standard,None,100,,,,,,,,f,23,221,fr,r,0,raw,2022-06-08_16h30.47.551,oddball,2022.1.2,59.86722661075024,
10,,,,,0,1,1,2,0,0,0,0,12,0,12,0,,,,,,,,,,,,,,,,,1317.623051899951,None,1318.3726924997754,1318.9729293999262,1318.956089799758,1320.9570896998048,None,1,0.6119359894655645,2.612940989434719,increament,0.6,25,standard,None,100,,,,,,,,f,23,221,fr,r,0,raw,2022-06-08_16h30.47.551,oddball,2022.1.2,59.86722661075024,
10,,,,,0,1,1,2,0,0,0,0,13,0,13,0,,,,,,,,,,,,,,,,,1320.973852599971,None,1321.490663100034,1322.090772899799,1322.0744682997465,1324.0747279999778,None,1,0.6108009899035096,2.6109742899425328,increament,0.6,25,standard,None,100,,,,,,,,f,23,221,fr,r,0,raw,2022-06-08_16h30.47.551,oddball,2022.1.2,59.86722661075024,
