grating_freq,blocks_prac.thisRepN,blocks_prac.thisTrialN,blocks_prac.thisN,blocks_prac.thisIndex,blocks.thisRepN,blocks.thisTrialN,blocks.thisN,blocks.thisIndex,repeat_freq.thisRepN,repeat_freq.thisTrialN,repeat_freq.thisN,repeat_freq.thisIndex,trials.thisRepN,trials.thisTrialN,trials.thisN,trials.thisIndex,break_loop.thisRepN,break_loop.thisTrialN,break_loop.thisN,break_loop.thisIndex,rest_loop.thisRepN,rest_loop.thisTrialN,rest_loop.thisN,rest_loop.thisIndex,instruct_prac_text.started,instruct_prac_text.stopped,b_instruct_text_2_.started,b_instruct_text_2_.stopped,prac_done_text.started,prac_done_text.stopped,instruct_text.started,instruct_text.stopped,fixation.started,fixation.stopped,grating.started,grating.stopped,blank.started,blank.stopped,resp.keys,resp.corr,resp.started,resp.stopped,direction,duration,trigger,stim_type,corr_ans,scaling,resp.rt,rest_text.started,rest_text.stopped,text_2.started,text_2.stopped,thx_txt.started,thx_txt.stopped,gender,age,participant,language,main_hand,nBlock_prac,file_suffix,date,expName,psychopyVersion,frameRate,
20,,,,,0,0,0,3,0,0,0,0,0,0,0,0,,,,,,,,,25.6234214999713,None,68.48104849969968,None,71.91636499995366,None,74.46122539974749,None,79.15119439968839,None,79.86007970012724,80.46842540008947,80.40181799978018,82.40267099998891,None,1,0.6111673600971699,2.6120186601765454,decreament,0.6,41,standard,None,100,,,,,,,,m,20,222,fr,r,0,raw,2022-06-09_10h19.43.424,oddball,2022.1.2,60.04138035913312,
20,,,,,0,0,0,3,0,0,0,0,1,0,1,0,,,,,,,,,,,,,,,,,82.41913469973952,None,83.03642929997295,83.63614099984989,83.6198269999586,85.62080350005999,None,1,0.6093309596180916,2.61038875952363,decreament,0.6,41,standard,None,100,,,,,,,,m,20,222,fr,r,0,raw,2022-06-09_10h19.43.424,oddball,2022.1.2,60.04138035913312,
20,,,,,0,0,0,3,0,0,0,0,2,0,2,0,,,,,,,,,,,,,,,,,85.63786569982767,None,86.17080099973828,86.77076470013708,86.75400249985978,88.7552893999964,None,1,0.6118809599429369,2.613200859632343,decreament,0.6,41,standard,None,100,,,,,,,,m,20,222,fr,r,0,raw,2022-06-09_10h19.43.424,oddball,2022.1.2,60.04138035913312,
20,,,,,0,0,0,3,0,0,0,0,3,0,3,0,,,,,,,,,,,,,,,,,88.7716928999871,None,89.32157030003145,89.92191619984806,89.90541179990396,91.90633569983765,None,1,0.6141258594579995,2.6150516597554088,decreament,0.6,41,standard,None,100,,,,,,,,m,20,222,fr,r,0,raw,2022-06-09_10h19.43.424,oddball,2022.1.2,60.04138035913312,
20,,,,,0,0,0,3,0,0,0,0,4,0,4,0,,,,,,,,,,,,,,,,,91.92276419978589,None,92.55630439985543,93.15666229976341,93.13992339977995,95.14052739972249,None,1,0.6125849597156048,2.613149759825319,decreament,0.6,41,standard,None,100,,,,,,,,m,20,222,fr,r,0,raw,2022-06-09_10h19.43.424,oddball,2022.1.2,60.04138035913312,
20,,,,,0,0,0,3,0,0,0,0,5,0,5,0,,,,,,,,,,,,,,,,,95.1571553000249,None,95.75757999997586,96.3582450998947,96.34121949970722,98.34182289987803,None,1,0.6124009597115219,2.612997659482062,decreament,0.6,41,standard,None,100,,,,,,,,m,20,222,fr,r,0,raw,2022-06-09_10h19.43.424,oddball,2022.1.2,60.04138035913312,
20,,,,,0,0,0,3,0,0,0,0,6,0,6,0,,,,,,,,,,,,,,,,,98.3584742997773,None,99.0754750999622,99.67606099974364,99.65946300001815,101.66019559977576,None,1,0.6120120598934591,2.612736059818417,decreament,0.6,41,standard,None,100,,,,,,,,m,20,222,fr,r,0,raw,2022-06-09_10h19.43.424,oddball,2022.1.2,60.04138035913312,
20,,,,,0,0,0,3,0,0,0,0,7,0,7,0,,,,,,,,,,,,,,,,,101.6797104999423,None,102.21032160008326,102.81016239989549,102.79356870008633,104.79457189980894,None,1,0.6122901602648199,2.613309559877962,decreament,0.6,41,standard,None,100,,,,,,,,m,20,222,fr,r,0,raw,2022-06-09_10h19.43.424,oddball,2022.1.2,60.04138035913312,
20,,,,,0,0,0,3,0,0,0,0,8,0,8,0,,,,,,,,,,,,,,,,,104.8112967996858,None,105.57823899993673,106.17809960013255,106.16127069992945,108.16228569997475,None,1,0.6117428597062826,2.612803059630096,decreament,0.6,41,standard,None,100,,,,,,,,m,20,222,fr,r,0,raw,2022-06-09_10h19.43.424,oddball,2022.1.2,60.04138035913312,
20,,,,,0,0,0,3,0,0,0,0,9,0,9,0,,,,,,,,,,,,,,,,,108.17942709987983,None,108.74594380008057,109.34602649975568,109.32944469992071,111.32996889995411,None,1,0.6128440597094595,2.6133481594733894,decreament,0.6,41,standard,None,100,,,,,,,,m,20,222,fr,r,0,raw,2022-06-09_10h19.43.424,oddball,2022.1.2,60.04138035913312,
20,,,,,0,0,0,3,0,0,0,0,10,0,10,0,,,,,,,,,,,,,,,,,111.34706569975242,None,111.9972032001242,112.5972198001109,112.58102259971201,114.58141759969294,None,1,0.608905459754169,2.6092864596284926,decreament,0.6,41,standard,None,100,,,,,,,,m,20,222,fr,r,0,raw,2022-06-09_10h19.43.424,oddball,2022.1.2,60.04138035913312,
20,,,,,0,0,0,3,0,0,0,0,11,0,11,0,,,,,,,,,,,,,,,,,114.59833619976416,None,115.1316150999628,115.73176839994267,115.7150428998284,117.71640060003847,None,1,0.6116545600816607,2.613094360101968,decreament,0.6,41,standard,None,100,,,,,,,,m,20,222,fr,r,0,raw,2022-06-09_10h19.43.424,oddball,2022.1.2,60.04138035913312,
20,,,,,0,0,0,3,0,0,0,0,12,0,12,0,,,,,,,,,,,,,,,,,117.73350120009854,None,118.38311740010977,118.98323499970138,118.96681809984148,120.96705959970132,None,1,0.6119809597730637,2.6121633597649634,decreament,0.6,41,standard,None,100,,,,,,,,m,20,222,fr,r,0,raw,2022-06-09_10h19.43.424,oddball,2022.1.2,60.04138035913312,
20,,,,,0,0,0,3,0,0,0,0,13,0,13,0,,,,,,,,,,,,,,,,,120.9835379999131,None,121.58442919980735,121.95092929992825,121.91780090006068,123.91861179983243,j,1,0.3618567595258355,2.3627321594394743,decreament,0.36,43,oddball,j,60,0.7490667002275586,,,,,,,m,20,222,fr,r,0,raw,2022-06-09_10h19.43.424,oddball,2022.1.2,60.04138035913312,
20,,,,,0,0,0,3,0,0,0,0,14,0,14,0,,,,,,,,,,,,,,,,,123.93760629976168,None,124.61826690007001,125.21905469987541,125.2025393997319,127.20276620006189,None,1,0.6149105597287416,2.615054159425199,decreament,0.6,41,standard,None,100,,,,,,,,m,20,222,fr,r,0,raw,2022-06-09_10h19.43.424,oddball,2022.1.2,60.04138035913312,
20,,,,,0,0,0,3,0,0,0,0,15,0,15,0,,,,,,,,,,,,,,,,,127.21961729973555,None,127.85296599986032,128.45323560014367,128.4368356000632,130.43710270011798,None,1,0.6136494600214064,2.613807959947735,decreament,0.6,41,standard,None,100,,,,,,,,m,20,222,fr,r,0,raw,2022-06-09_10h19.43.424,oddball,2022.1.2,60.04138035913312,
20,,,,,0,0,0,3,0,0,0,0,16,0,16,0,,,,,,,,,,,,,,,,,130.45373780000955,None,131.12118940008804,131.7213717000559,131.7046687998809,133.70506889978424,None,1,0.6098101595416665,2.6101863593794405,decreament,0.6,41,standard,None,100,,,,,,,,m,20,222,fr,r,0,raw,2022-06-09_10h19.43.424,oddball,2022.1.2,60.04138035913312,
20,,,,,0,0,0,3,0,0,0,0,17,0,17,0,,,,,,,,,,,,,,,,,133.72188040008768,None,134.47241439996287,135.07286849990487,135.05588149977848,137.0570140001364,None,1,0.6126016601920128,2.613729959819466,decreament,0.6,41,standard,None,100,,,,,,,,m,20,222,fr,r,0,raw,2022-06-09_10h19.43.424,oddball,2022.1.2,60.04138035913312,
20,,,,,0,0,0,3,0,0,0,0,18,0,18,0,,,,,,,,,,,,,,,,,137.07441309979185,None,137.84016839973629,138.44049939978868,138.4241764997132,140.42481220001355,None,1,0.6132647600024939,2.6138775595463812,decreament,0.6,41,standard,None,100,,,,,,,,m,20,222,fr,r,0,raw,2022-06-09_10h19.43.424,oddball,2022.1.2,60.04138035913312,
20,,,,,0,0,0,3,0,0,0,0,19,0,19,0,,,,,,,,,,,,,,,,,140.44130129972473,None,141.05856900010258,141.3086453001015,141.27482810011134,143.27562640001997,j,1,0.24457855988293886,2.2453802595846355,decreament,0.24,42,oddball,j,40,0.7523992997594178,,,,,,,m,20,222,fr,r,0,raw,2022-06-09_10h19.43.424,oddball,2022.1.2,60.04138035913312,
20,,,,,0,0,0,3,0,0,0,0,20,0,20,0,,,,,,,,,,,,,,,,,143.2925696996972,None,143.90940220002085,144.50938390009105,144.49268529983237,146.49354030005634,None,1,0.6130649601109326,2.613975360058248,decreament,0.6,41,standard,None,100,,,,,,,,m,20,222,fr,r,0,raw,2022-06-09_10h19.43.424,oddball,2022.1.2,60.04138035913312,
20,,,,,0,0,0,3,0,0,0,0,21,0,21,0,,,,,,,,,,,,,,,,,146.51030470011756,None,147.29438930004835,147.8940467000939,147.87746059987694,149.8785922997631,None,1,0.6105981599539518,2.6117871599271894,decreament,0.6,41,standard,None,100,,,,,,,,m,20,222,fr,r,0,raw,2022-06-09_10h19.43.424,oddball,2022.1.2,60.04138035913312,
20,,,,,0,0,0,3,0,0,0,0,22,0,22,0,,,,,,,,,,,,,,,,,149.8961784997955,None,150.67865899996832,151.278435499873,151.26206139987335,153.2630106001161,None,1,0.612845859490335,2.613859059754759,decreament,0.6,41,standard,None,100,,,,,,,,m,20,222,fr,r,0,raw,2022-06-09_10h19.43.424,oddball,2022.1.2,60.04138035913312,
20,,,,,0,0,0,3,0,0,0,0,23,0,23,0,,,,,,,,,,,,,,,,,153.27924240007997,None,153.84670110000297,154.44638819992542,154.4299225998111,156.43065749993548,None,1,0.611228259280324,2.6119652590714395,decreament,0.6,41,standard,None,100,,,,,,,,m,20,222,fr,r,0,raw,2022-06-09_10h19.43.424,oddball,2022.1.2,60.04138035913312,
20,,,,,0,0,0,3,0,0,0,0,24,0,24,0,,,,,,,,,,,,,,,,,156.4471935997717,None,157.26440500002354,157.7478454997763,157.7312497999519,159.73158020013943,None,0,0.4954683599062264,2.4957456598058343,decreament,0.48,44,oddball,j,80,,,,,,,,m,20,222,fr,r,0,raw,2022-06-09_10h19.43.424,oddball,2022.1.2,60.04138035913312,
20,,,,,0,0,0,3,0,0,0,0,25,0,25,0,,,,,,,,,,,,,,,,,159.74858379969373,None,160.5491231000051,161.14908279990777,161.13266689982265,163.13305119983852,None,1,0.6114028599113226,2.611698859836906,decreament,0.6,41,standard,None,100,,,,,,,,m,20,222,fr,r,0,raw,2022-06-09_10h19.43.424,oddball,2022.1.2,60.04138035913312,
20,,,,,0,0,0,3,0,0,0,0,26,0,26,0,,,,,,,,,,,,,,,,,163.1498195999302,None,163.8334166998975,164.43364429986104,164.4173316997476,166.41773589979857,None,1,0.6126365601085126,2.612949559930712,decreament,0.6,41,standard,None,100,,,,,,,,m,20,222,fr,r,0,raw,2022-06-09_10h19.43.424,oddball,2022.1.2,60.04138035913312,
20,,,,,0,0,0,3,0,0,0,0,27,0,27,0,,,,,,,,,,,,,,,,,166.4344422998838,None,167.0677797999233,167.66844459995627,167.65176429972053,169.65219849999994,None,1,0.6131777600385249,2.6135068596340716,decreament,0.6,41,standard,None,100,,,,,,,,m,20,222,fr,r,0,raw,2022-06-09_10h19.43.424,oddball,2022.1.2,60.04138035913312,
20,,,,,0,0,0,3,0,0,0,0,28,0,28,0,,,,,,,,,,,,,,,,,169.66890050005168,None,170.2359645999968,170.83609890006483,170.81940810009837,172.82001259969547,None,1,0.6102868602611125,2.6108755599707365,decreament,0.6,41,standard,None,100,,,,,,,,m,20,222,fr,r,0,raw,2022-06-09_10h19.43.424,oddball,2022.1.2,60.04138035913312,
20,,,,,0,0,0,3,0,0,0,0,29,0,29,0,,,,,,,,,,,,,,,,,172.8365632998757,None,173.47099100006744,174.07089240010828,174.054147799965,176.05464340001345,j,0,0.6090127597562969,2.6094341594725847,decreament,0.6,41,standard,None,100,1.40464699966833,,,,,,,m,20,222,fr,r,0,raw,2022-06-09_10h19.43.424,oddball,2022.1.2,60.04138035913312,
20,,,,,0,0,0,3,1,0,1,0,0,0,0,0,,,,,,,,,,,,,,,179.87414629990235,None,183.07427879981697,None,183.77456669975072,184.3744395999238,184.35775229986757,186.35888230009004,None,1,0.6098139593377709,2.6109522595070302,increament,0.6,45,standard,None,100,,176.0715188998729,None,,,,,m,20,222,fr,r,0,raw,2022-06-09_10h19.43.424,oddball,2022.1.2,60.04138035913312,
20,,,,,0,0,0,3,1,0,1,0,1,0,1,0,,,,,,,,,,,,,,,,,186.37517479993403,None,186.87554379971698,187.47593129985034,187.45896579977125,189.45969379972667,None,1,0.612444459926337,2.613134159706533,increament,0.6,45,standard,None,100,,,,,,,,m,20,222,fr,r,0,raw,2022-06-09_10h19.43.424,oddball,2022.1.2,60.04138035913312,
20,,,,,0,0,0,3,1,0,1,0,2,0,2,0,,,,,,,,,,,,,,,,,189.47625580010936,None,190.19345790008083,190.7935111001134,190.77690930012614,192.7778727998957,None,1,0.6092604603618383,2.6102811601012945,increament,0.6,45,standard,None,100,,,,,,,,m,20,222,fr,r,0,raw,2022-06-09_10h19.43.424,oddball,2022.1.2,60.04138035913312,
20,,,,,0,0,0,3,1,0,1,0,3,0,3,0,,,,,,,,,,,,,,,,,192.79495560005307,None,193.444425099995,194.04540459997952,194.0282554998994,196.02880139974877,None,1,0.6133542601019144,2.6138689597137272,increament,0.6,45,standard,None,100,,,,,,,,m,20,222,fr,r,0,raw,2022-06-09_10h19.43.424,oddball,2022.1.2,60.04138035913312,
20,,,,,0,0,0,3,1,0,1,0,4,0,4,0,,,,,,,,,,,,,,,,,196.04573210002854,None,196.67909190012142,197.27940199989825,197.26283250004053,199.26377489976585,None,1,0.6120457598008215,2.6130101596936584,increament,0.6,45,standard,None,100,,,,,,,,m,20,222,fr,r,0,raw,2022-06-09_10h19.43.424,oddball,2022.1.2,60.04138035913312,
20,,,,,0,0,0,3,1,0,1,0,5,0,5,0,,,,,,,,,,,,,,,,,199.28016840014607,None,199.96339699998498,200.56442879978567,200.5475785001181,202.5481509999372,None,1,0.6136800600215793,2.6142472601495683,increament,0.6,45,standard,None,100,,,,,,,,m,20,222,fr,r,0,raw,2022-06-09_10h19.43.424,oddball,2022.1.2,60.04138035913312,
20,,,,,0,0,0,3,1,0,1,0,6,0,6,0,,,,,,,,,,,,,,,,,202.56474319985136,None,203.28203269978985,204.01534659974277,203.98200810002163,205.98261740012094,None,0,0.7280538599006832,2.7286093602888286,increament,0.72,46,oddball,j,120,,,,,,,,m,20,222,fr,r,0,raw,2022-06-09_10h19.43.424,oddball,2022.1.2,60.04138035913312,
20,,,,,0,0,0,3,1,0,1,0,7,0,7,0,,,,,,,,,,,,,,,,,205.99938379973173,None,206.61638269992545,207.21648730011657,207.20026049995795,209.2004772000946,None,1,0.6127717597410083,2.612901459913701,increament,0.6,45,standard,None,100,,,,,,,,m,20,222,fr,r,0,raw,2022-06-09_10h19.43.424,oddball,2022.1.2,60.04138035913312,
20,,,,,0,0,0,3,1,0,1,0,8,0,8,0,,,,,,,,,,,,,,,,,209.2170456997119,None,209.81763039994985,210.41760180005804,210.40083940001205,212.40183060010895,None,1,0.6118080597370863,2.612840259913355,increament,0.6,45,standard,None,100,,,,,,,,m,20,222,fr,r,0,raw,2022-06-09_10h19.43.424,oddball,2022.1.2,60.04138035913312,
20,,,,,0,0,0,3,1,0,1,0,9,0,9,0,,,,,,,,,,,,,,,,,212.41855830000713,None,213.1520328000188,213.75276499986649,213.735813499894,215.73643059981987,None,1,0.6118874596431851,2.612462059594691,increament,0.6,45,standard,None,100,,,,,,,,m,20,222,fr,r,0,raw,2022-06-09_10h19.43.424,oddball,2022.1.2,60.04138035913312,
20,,,,,0,0,0,3,1,0,1,0,10,0,10,0,,,,,,,,,,,,,,,,,215.75300939986482,None,216.3534673997201,216.95403369981796,216.9371017999947,218.93762280000374,None,1,0.6094833603128791,2.6099069602787495,increament,0.6,45,standard,None,100,,,,,,,,m,20,222,fr,r,0,raw,2022-06-09_10h19.43.424,oddball,2022.1.2,60.04138035913312,
20,,,,,0,0,0,3,1,0,1,0,11,0,11,0,,,,,,,,,,,,,,,,,218.95431010005996,None,219.47150769969448,220.43828239990398,220.40504400013015,222.40561999985948,j,1,0.9609004599042237,2.961406759917736,increament,0.96,48,oddball,j,160,0.775008499622345,,,,,,,m,20,222,fr,r,0,raw,2022-06-09_10h19.43.424,oddball,2022.1.2,60.04138035913312,
20,,,,,0,0,0,3,1,0,1,0,12,0,12,0,,,,,,,,,,,,,,,,,222.4222021996975,None,223.05605489993468,223.65619909996167,223.6395900999196,225.63991589983925,None,1,0.6126215602271259,2.612851560115814,increament,0.6,45,standard,None,100,,,,,,,,m,20,222,fr,r,0,raw,2022-06-09_10h19.43.424,oddball,2022.1.2,60.04138035913312,
20,,,,,0,0,0,3,1,0,1,0,13,0,13,0,,,,,,,,,,,,,,,,,225.6569313998334,None,226.29054399998859,226.89045589976013,226.87410569982603,228.87472329987213,None,1,0.6107118600048125,2.611257559619844,increament,0.6,45,standard,None,100,,,,,,,,m,20,222,fr,r,0,raw,2022-06-09_10h19.43.424,oddball,2022.1.2,60.04138035913312,
20,,,,,0,0,0,3,1,0,1,0,14,0,14,0,,,,,,,,,,,,,,,,,228.89135559974238,None,229.52520099980757,230.12508470006287,230.10836349986494,232.1090874997899,None,1,0.6120358598418534,2.612758159637451,increament,0.6,45,standard,None,100,,,,,,,,m,20,222,fr,r,0,raw,2022-06-09_10h19.43.424,oddball,2022.1.2,60.04138035913312,
20,,,,,0,0,0,3,1,0,1,0,15,0,15,0,,,,,,,,,,,,,,,,,232.1256613000296,None,232.82658160012215,233.42639839975163,233.40979589987546,235.41076829982921,None,1,0.6107766600325704,2.611826159991324,increament,0.6,45,standard,None,100,,,,,,,,m,20,222,fr,r,0,raw,2022-06-09_10h19.43.424,oddball,2022.1.2,60.04138035913312,
20,,,,,0,0,0,3,1,0,1,0,16,0,16,0,,,,,,,,,,,,,,,,,235.4270286001265,None,236.0273663001135,236.62762619974092,236.61125710001215,238.6114741996862,None,1,0.6145851593464613,2.614736759569496,increament,0.6,45,standard,None,100,,,,,,,,m,20,222,fr,r,0,raw,2022-06-09_10h19.43.424,oddball,2022.1.2,60.04138035913312,
20,,,,,0,0,0,3,1,0,1,0,17,0,17,0,,,,,,,,,,,,,,,,,238.62835970008746,None,239.24550150008872,239.8453404000029,239.82881749980152,241.8297533998266,None,1,0.6122306594625115,2.613193459343165,increament,0.6,45,standard,None,100,,,,,,,,m,20,222,fr,r,0,raw,2022-06-09_10h19.43.424,oddball,2022.1.2,60.04138035913312,
20,,,,,0,0,0,3,1,0,1,0,18,0,18,0,,,,,,,,,,,,,,,,,241.84681979985908,None,242.546743999701,243.14691240014508,243.13040819996968,245.1310367998667,None,1,0.6097488598898053,2.610311559867114,increament,0.6,45,standard,None,100,,,,,,,,m,20,222,fr,r,0,raw,2022-06-09_10h19.43.424,oddball,2022.1.2,60.04138035913312,
20,,,,,0,0,0,3,1,0,1,0,19,0,19,0,,,,,,,,,,,,,,,,,245.14760580006987,None,245.76456209970638,246.36473000003025,246.3481844998896,248.3489585998468,j,0,0.6104869600385427,2.611306160222739,increament,0.6,45,standard,None,100,1.6710517001338303,,,,,,,m,20,222,fr,r,0,raw,2022-06-09_10h19.43.424,oddball,2022.1.2,60.04138035913312,
20,,,,,0,0,0,3,1,0,1,0,20,0,20,0,,,,,,,,,,,,,,,,,248.36652579996735,None,249.1157343001105,249.7160076997243,249.69968099985272,251.6998894996941,None,1,0.6127179600298405,2.6128550600260496,increament,0.6,45,standard,None,100,,,,,,,,m,20,222,fr,r,0,raw,2022-06-09_10h19.43.424,oddball,2022.1.2,60.04138035913312,
20,,,,,0,0,0,3,1,0,1,0,21,0,21,0,,,,,,,,,,,,,,,,,251.7167770001106,None,252.28381539974362,252.88409609999508,252.86710149981081,254.8679466000758,None,1,0.6091460599564016,2.6100369598716497,increament,0.6,45,standard,None,100,,,,,,,,m,20,222,fr,r,0,raw,2022-06-09_10h19.43.424,oddball,2022.1.2,60.04138035913312,
20,,,,,0,0,0,3,1,0,1,0,22,0,22,0,,,,,,,,,,,,,,,,,254.8844584999606,None,255.58531160000712,256.1847486998886,256.16840530000627,258.16903809970245,None,1,0.6091106599196792,2.6097673596814275,increament,0.6,45,standard,None,100,,,,,,,,m,20,222,fr,r,0,raw,2022-06-09_10h19.43.424,oddball,2022.1.2,60.04138035913312,
20,,,,,0,0,0,3,1,0,1,0,23,0,23,0,,,,,,,,,,,,,,,,,258.18599089980125,None,258.9192384998314,259.52000560006127,259.50287789991125,261.50439930008724,None,1,0.6131924600340426,2.614846359938383,increament,0.6,45,standard,None,100,,,,,,,,m,20,222,fr,r,0,raw,2022-06-09_10h19.43.424,oddball,2022.1.2,60.04138035913312,
20,,,,,0,0,0,3,1,0,1,0,24,0,24,0,,,,,,,,,,,,,,,,,261.52204279974103,None,262.0706172999926,262.6708296998404,262.6541868997738,264.6549200997688,None,1,0.6113486597314477,2.6121135596185923,increament,0.6,45,standard,None,100,,,,,,,,m,20,222,fr,r,0,raw,2022-06-09_10h19.43.424,oddball,2022.1.2,60.04138035913312,
20,,,,,0,0,0,3,1,0,1,0,25,0,25,0,,,,,,,,,,,,,,,,,264.67148569971323,None,265.47192370006815,266.3224053001031,266.28892139997333,268.2899456000887,j,1,0.8464746596291661,2.8475487595424056,increament,0.84,47,oddball,j,140,0.7374548995867372,,,,,,,m,20,222,fr,r,0,raw,2022-06-09_10h19.43.424,oddball,2022.1.2,60.04138035913312,
20,,,,,0,0,0,3,1,0,1,0,26,0,26,0,,,,,,,,,,,,,,,,,268.30630569998175,None,268.8566494998522,269.4567863000557,269.43991750013083,271.44065969996154,None,1,0.6087108599022031,2.609429860021919,increament,0.6,45,standard,None,100,,,,,,,,m,20,222,fr,r,0,raw,2022-06-09_10h19.43.424,oddball,2022.1.2,60.04138035913312,
20,,,,,0,0,0,3,1,0,1,0,27,0,27,0,,,,,,,,,,,,,,,,,271.4575193999335,None,272.2075974000618,272.8079490996897,272.79158600000665,274.79226019978523,None,1,0.6130344597622752,2.6136886598542333,increament,0.6,45,standard,None,100,,,,,,,,m,20,222,fr,r,0,raw,2022-06-09_10h19.43.424,oddball,2022.1.2,60.04138035913312,
20,,,,,0,0,0,3,1,0,1,0,28,0,28,0,,,,,,,,,,,,,,,,,274.808594699949,None,275.4594990997575,276.0593221001327,276.0424395999871,278.0431299000047,None,1,0.6095844595693052,2.6102534597739577,increament,0.6,45,standard,None,100,,,,,,,,m,20,222,fr,r,0,raw,2022-06-09_10h19.43.424,oddball,2022.1.2,60.04138035913312,
20,,,,,0,0,0,3,1,0,1,0,29,0,29,0,,,,,,,,,,,,,,,,,278.06008329987526,None,278.71024629985914,279.31051190011203,279.29398609977216,281.29488010006025,None,1,0.6130498596467078,2.6139973597601056,increament,0.6,45,standard,None,100,,,,,,,,m,20,222,fr,r,0,raw,2022-06-09_10h19.43.424,oddball,2022.1.2,60.04138035913312,
20,,,,,0,0,0,3,2,0,2,0,0,0,0,0,,,,,,,,,,,,,,,283.78248560009524,None,287.71375249978155,None,288.3307042000815,288.9308486999944,288.91446559969336,290.91500539984554,None,1,0.610873359721154,2.6114054596982896,decreament,0.6,41,standard,None,100,,281.31238709995523,None,,,,,m,20,222,fr,r,0,raw,2022-06-09_10h19.43.424,oddball,2022.1.2,60.04138035913312,
20,,,,,0,0,0,3,2,0,2,0,1,0,1,0,,,,,,,,,,,,,,,,,290.93316389992833,None,291.73246619990095,292.33210119977593,292.3154688999057,294.31643590005115,None,1,0.6094356598332524,2.6103367595933378,decreament,0.6,41,standard,None,100,,,,,,,,m,20,222,fr,r,0,raw,2022-06-09_10h19.43.424,oddball,2022.1.2,60.04138035913312,
20,,,,,0,0,0,3,2,0,2,0,2,0,2,0,,,,,,,,,,,,,,,,,294.3328689998016,None,295.05002560000867,295.6501489998773,295.63319389987737,297.6347085000016,None,1,0.6116379597224295,2.6132492595352232,decreament,0.6,41,standard,None,100,,,,,,,,m,20,222,fr,r,0,raw,2022-06-09_10h19.43.424,oddball,2022.1.2,60.04138035913312,
20,,,,,0,0,0,3,2,0,2,0,3,0,3,0,,,,,,,,,,,,,,,,,297.65285479975864,None,298.3012236999348,298.90116869984195,298.88439809996635,300.8852571998723,None,1,0.6089649596251547,2.609861759468913,decreament,0.6,41,standard,None,100,,,,,,,,m,20,222,fr,r,0,raw,2022-06-09_10h19.43.424,oddball,2022.1.2,60.04138035913312,
20,,,,,0,0,0,3,2,0,2,0,4,0,4,0,,,,,,,,,,,,,,,,,300.90198320010677,None,301.43570300005376,302.03587199980393,302.0192275997251,304.0198586001061,None,1,0.6108566597104073,2.611509559676051,decreament,0.6,41,standard,None,100,,,,,,,,m,20,222,fr,r,0,raw,2022-06-09_10h19.43.424,oddball,2022.1.2,60.04138035913312,
20,,,,,0,0,0,3,2,0,2,0,5,0,5,0,,,,,,,,,,,,,,,,,304.0362819000147,None,304.887036500033,305.13708889996633,305.1039833999239,307.10488829994574,j,1,0.24329645978286862,2.244182659778744,decreament,0.24,42,oddball,j,40,0.9788966001942754,,,,,,,m,20,222,fr,r,0,raw,2022-06-09_10h19.43.424,oddball,2022.1.2,60.04138035913312,
20,,,,,0,0,0,3,2,0,2,0,6,0,6,0,,,,,,,,,,,,,,,,,307.1206744001247,None,307.7547317999415,308.3547609997913,308.3379342998378,310.3387970998883,None,1,0.6121849603950977,2.613012360408902,decreament,0.6,41,standard,None,100,,,,,,,,m,20,222,fr,r,0,raw,2022-06-09_10h19.43.424,oddball,2022.1.2,60.04138035913312,
20,,,,,0,0,0,3,2,0,2,0,7,0,7,0,,,,,,,,,,,,,,,,,310.3557456000708,None,311.005506800022,311.6059583998285,311.5894607999362,313.59015750000253,None,1,0.6139091597869992,2.6146136596798897,decreament,0.6,41,standard,None,100,,,,,,,,m,20,222,fr,r,0,raw,2022-06-09_10h19.43.424,oddball,2022.1.2,60.04138035913312,
20,,,,,0,0,0,3,2,0,2,0,8,0,8,0,,,,,,,,,,,,,,,,,313.6067904997617,None,314.27372250007465,314.87389690009877,314.8574176998809,316.8580293999985,None,1,0.6132820602506399,2.613872060086578,decreament,0.6,41,standard,None,100,,,,,,,,m,20,222,fr,r,0,raw,2022-06-09_10h19.43.424,oddball,2022.1.2,60.04138035913312,
20,,,,,0,0,0,3,2,0,2,0,9,0,9,0,,,,,,,,,,,,,,,,,316.8747970000841,None,317.4580659000203,318.0583641999401,318.04170450009406,320.0425392999314,None,1,0.6123513602651656,2.6132090599276125,decreament,0.6,41,standard,None,100,,,,,,,,m,20,222,fr,r,0,raw,2022-06-09_10h19.43.424,oddball,2022.1.2,60.04138035913312,
20,,,,,0,0,0,3,2,0,2,0,10,0,10,0,,,,,,,,,,,,,,,,,320.05936069972813,None,320.6424773000181,321.2428949000314,321.22633019974455,323.22682960005477,None,1,0.6138652595691383,2.614338259678334,decreament,0.6,41,standard,None,100,,,,,,,,m,20,222,fr,r,0,raw,2022-06-09_10h19.43.424,oddball,2022.1.2,60.04138035913312,
20,,,,,0,0,0,3,2,0,2,0,11,0,11,0,,,,,,,,,,,,,,,,,323.24356169998646,None,323.87749890005216,324.47729609999806,324.4609513999894,326.46143379993737,None,1,0.609650359954685,2.610153659712523,decreament,0.6,41,standard,None,100,,,,,,,,m,20,222,fr,r,0,raw,2022-06-09_10h19.43.424,oddball,2022.1.2,60.04138035913312,
20,,,,,0,0,0,3,2,0,2,0,12,0,12,0,,,,,,,,,,,,,,,,,326.4781587999314,None,327.1618842999451,327.76202229969203,327.7459459998645,329.7461518999189,None,1,0.6132659600116313,2.6133990599773824,decreament,0.6,41,standard,None,100,,,,,,,,m,20,222,fr,r,0,raw,2022-06-09_10h19.43.424,oddball,2022.1.2,60.04138035913312,
20,,,,,0,0,0,3,2,0,2,0,13,0,13,0,,,,,,,,,,,,,,,,,329.7628782996908,None,330.3633133000694,330.96352620003745,330.94726589974016,332.94725409988314,None,1,0.6109131593257189,2.610779059585184,decreament,0.6,41,standard,None,100,,,,,,,,m,20,222,fr,r,0,raw,2022-06-09_10h19.43.424,oddball,2022.1.2,60.04138035913312,
20,,,,,0,0,0,3,2,0,2,0,14,0,14,0,,,,,,,,,,,,,,,,,332.9640627000481,None,333.59764079982415,334.1981023000553,334.18174539972097,336.18197740009055,None,1,0.6143886600621045,2.6145483599975705,decreament,0.6,41,standard,None,100,,,,,,,,m,20,222,fr,r,0,raw,2022-06-09_10h19.43.424,oddball,2022.1.2,60.04138035913312,
20,,,,,0,0,0,3,2,0,2,0,15,0,15,0,,,,,,,,,,,,,,,,,336.1988113000989,None,336.93205379974097,337.5327929998748,337.51603339985013,339.5163552998565,None,1,0.6143450601957738,2.614619660191238,decreament,0.6,41,standard,None,100,,,,,,,,m,20,222,fr,r,0,raw,2022-06-09_10h19.43.424,oddball,2022.1.2,60.04138035913312,
20,,,,,0,0,0,3,2,0,2,0,16,0,16,0,,,,,,,,,,,,,,,,,339.53342350013554,None,340.1000677999109,340.70071809971705,340.68403139989823,342.68451489973813,None,1,0.6132565601728857,2.613672459963709,decreament,0.6,41,standard,None,100,,,,,,,,m,20,222,fr,r,0,raw,2022-06-09_10h19.43.424,oddball,2022.1.2,60.04138035913312,
20,,,,,0,0,0,3,2,0,2,0,17,0,17,0,,,,,,,,,,,,,,,,,342.70132050011307,None,343.3679454997182,343.9685728996992,343.9518356998451,345.95250359969214,None,1,0.6137739596888423,2.6144434600137174,decreament,0.6,41,standard,None,100,,,,,,,,m,20,222,fr,r,0,raw,2022-06-09_10h19.43.424,oddball,2022.1.2,60.04138035913312,
20,,,,,0,0,0,3,2,0,2,0,18,0,18,0,,,,,,,,,,,,,,,,,345.96894240006804,None,346.6192115000449,347.1027370998636,347.0861037997529,349.0867813001387,j,1,0.49393785977736115,2.494637559633702,decreament,0.48,44,oddball,j,80,1.7253899998031557,,,,,,,m,20,222,fr,r,0,raw,2022-06-09_10h19.43.424,oddball,2022.1.2,60.04138035913312,
20,,,,,0,0,0,3,2,0,2,0,19,0,19,0,,,,,,,,,,,,,,,,,349.10374439973384,None,349.6206847997382,350.22041109995916,350.2040007999167,352.20472540007904,None,1,0.6130888597108424,2.613813259638846,decreament,0.6,41,standard,None,100,,,,,,,,m,20,222,fr,r,0,raw,2022-06-09_10h19.43.424,oddball,2022.1.2,60.04138035913312,
20,,,,,0,0,0,3,2,0,2,0,20,0,20,0,,,,,,,,,,,,,,,,,352.22135060001165,None,352.92216360010207,353.5220170998946,353.5056150001474,355.50612489972264,None,1,0.6127892597578466,2.613320359494537,decreament,0.6,41,standard,None,100,,,,,,,,m,20,222,fr,r,0,raw,2022-06-09_10h19.43.424,oddball,2022.1.2,60.04138035913312,
20,,,,,0,0,0,3,2,0,2,0,21,0,21,0,,,,,,,,,,,,,,,,,355.5224433997646,None,356.32337490003556,356.9231369998306,356.90672340011224,358.90705209970474,None,1,0.6112250601872802,2.6114746602252126,decreament,0.6,41,standard,None,100,,,,,,,,m,20,222,fr,r,0,raw,2022-06-09_10h19.43.424,oddball,2022.1.2,60.04138035913312,
20,,,,,0,0,0,3,2,0,2,0,22,0,22,0,,,,,,,,,,,,,,,,,358.9237959999591,None,359.5908456998877,360.1909122997895,360.17422799998894,362.17498799972236,None,1,0.61306616012007,2.613821260165423,decreament,0.6,41,standard,None,100,,,,,,,,m,20,222,fr,r,0,raw,2022-06-09_10h19.43.424,oddball,2022.1.2,60.04138035913312,
20,,,,,0,0,0,3,2,0,2,0,23,0,23,0,,,,,,,,,,,,,,,,,362.19153159996495,None,362.9089192999527,363.50889030005783,363.4924233998172,365.49300940008834,None,1,0.609744259621948,2.6103285597637296,decreament,0.6,41,standard,None,100,,,,,,,,m,20,222,fr,r,0,raw,2022-06-09_10h19.43.424,oddball,2022.1.2,60.04138035913312,
20,,,,,0,0,0,3,2,0,2,0,24,0,24,0,,,,,,,,,,,,,,,,,365.509681600146,None,366.0434690997936,366.4100071997382,366.3767403997481,368.3775892998092,j,1,0.36175405979156494,2.362570259720087,decreament,0.36,43,oddball,j,60,0.7859140997752547,,,,,,,m,20,222,fr,r,0,raw,2022-06-09_10h19.43.424,oddball,2022.1.2,60.04138035913312,
20,,,,,0,0,0,3,2,0,2,0,25,0,25,0,,,,,,,,,,,,,,,,,368.3941770000383,None,368.96102679986507,369.5609446000308,369.54480159981176,371.54497649986297,None,1,0.6126968595199287,2.612839159555733,decreament,0.6,41,standard,None,100,,,,,,,,m,20,222,fr,r,0,raw,2022-06-09_10h19.43.424,oddball,2022.1.2,60.04138035913312,
20,,,,,0,0,0,3,2,0,2,0,26,0,26,0,,,,,,,,,,,,,,,,,371.5616488996893,None,372.1454066997394,372.7463138997555,372.7295943996869,374.72982050012797,None,1,0.6128614600747824,2.612974860239774,decreament,0.6,41,standard,None,100,,,,,,,,m,20,222,fr,r,0,raw,2022-06-09_10h19.43.424,oddball,2022.1.2,60.04138035913312,
20,,,,,0,0,0,3,2,0,2,0,27,0,27,0,,,,,,,,,,,,,,,,,374.7464811997488,None,375.69713629968464,376.2975214999169,376.2805376998149,378.2816347000189,None,1,0.6098475595936179,2.6109966593794525,decreament,0.6,41,standard,None,100,,,,,,,,m,20,222,fr,r,0,raw,2022-06-09_10h19.43.424,oddball,2022.1.2,60.04138035913312,
20,,,,,0,0,0,3,2,0,2,0,28,0,28,0,,,,,,,,,,,,,,,,,378.29833310004324,None,378.8314279001206,379.4314700998366,379.41501939995214,381.4155445997603,None,1,0.6096287597902119,2.6101462598890066,decreament,0.6,41,standard,None,100,,,,,,,,m,20,222,fr,r,0,raw,2022-06-09_10h19.43.424,oddball,2022.1.2,60.04138035913312,
20,,,,,0,0,0,3,2,0,2,0,29,0,29,0,,,,,,,,,,,,,,,,,381.4323426000774,None,382.0493112998083,382.6495815999806,382.63289600005373,384.63369659986347,None,1,0.6134261596016586,2.6143022598698735,decreament,0.6,41,standard,None,100,,,,,,,,m,20,222,fr,r,0,raw,2022-06-09_10h19.43.424,oddball,2022.1.2,60.04138035913312,
20,,,,,0,0,0,3,3,0,3,0,0,0,0,0,,,,,,,,,,,,,,,387.2735325000249,None,389.4355313000269,None,390.1526564997621,390.75276449974626,390.73599170008674,392.7365903998725,None,1,0.611966559663415,2.612559959758073,increament,0.6,45,standard,None,100,,384.65077489987016,None,,,,,m,20,222,fr,r,0,raw,2022-06-09_10h19.43.424,oddball,2022.1.2,60.04138035913312,
20,,,,,0,0,0,3,3,0,3,0,1,0,1,0,,,,,,,,,,,,,,,,,392.75332519970834,None,393.3534582997672,393.95387279987335,393.93743219971657,395.9379477999173,None,1,0.6135101597756147,2.61403635982424,increament,0.6,45,standard,None,100,,,,,,,,m,20,222,fr,r,0,raw,2022-06-09_10h19.43.424,oddball,2022.1.2,60.04138035913312,
20,,,,,0,0,0,3,3,0,3,0,2,0,2,0,,,,,,,,,,,,,,,,,395.9546211999841,None,396.50454259989783,397.10524709988385,397.0883448999375,399.08958050003275,None,1,0.6147052594460547,2.615980059839785,increament,0.6,45,standard,None,100,,,,,,,,m,20,222,fr,r,0,raw,2022-06-09_10h19.43.424,oddball,2022.1.2,60.04138035913312,
20,,,,,0,0,0,3,3,0,3,0,3,0,3,0,,,,,,,,,,,,,,,,,399.1057273000479,None,399.8228993997909,400.4231933997944,400.40642339969054,402.40728939976543,None,1,0.6114881602115929,2.6123270601965487,increament,0.6,45,standard,None,100,,,,,,,,m,20,222,fr,r,0,raw,2022-06-09_10h19.43.424,oddball,2022.1.2,60.04138035913312,
20,,,,,0,0,0,3,3,0,3,0,4,0,4,0,,,,,,,,,,,,,,,,,402.4237774997018,None,402.94108529994264,403.54081179993227,403.524103899952,405.5247374000028,None,1,0.6095197596587241,2.610124159604311,increament,0.6,45,standard,None,100,,,,,,,,m,20,222,fr,r,0,raw,2022-06-09_10h19.43.424,oddball,2022.1.2,60.04138035913312,
20,,,,,0,0,0,3,3,0,3,0,5,0,5,0,,,,,,,,,,,,,,,,,405.54153859987855,None,406.1080648000352,406.7088163997978,406.692391499877,None,None,1,0.5990109597332776,2.59955075988546,increament,0.6,45,standard,None,100,,,,,,,,m,20,222,fr,r,0,raw,2022-06-09_10h19.43.424,oddball,2022.1.2,60.04138035913312,
20,,,,,0,0,0,3,3,0,3,0,6,0,6,0,,,,,,,,,,,,,,,,,408.69292199984193,None,409.2930165999569,410.02646970003843,409.9933663997799,411.9942175000906,None,0,0.7298980597406626,2.730827059596777,increament,0.72,46,oddball,j,120,,,,,,,,m,20,222,fr,r,0,raw,2022-06-09_10h19.43.424,oddball,2022.1.2,60.04138035913312,
20,,,,,0,0,0,3,3,0,3,0,7,0,7,0,,,,,,,,,,,,,,,,,412.01052200002596,None,412.6942878998816,413.2947581000626,413.2780502997339,415.27861749986187,None,1,0.6131433597765863,2.6136523596942425,increament,0.6,45,standard,None,100,,,,,,,,m,20,222,fr,r,0,raw,2022-06-09_10h19.43.424,oddball,2022.1.2,60.04138035913312,
20,,,,,0,0,0,3,3,0,3,0,8,0,8,0,,,,,,,,,,,,,,,,,415.295321600046,None,415.8289977000095,416.429187099915,416.4125900999643,418.4131359998137,None,1,0.6099400599487126,2.610441059805453,increament,0.6,45,standard,None,100,,,,,,,,m,20,222,fr,r,0,raw,2022-06-09_10h19.43.424,oddball,2022.1.2,60.04138035913312,
20,,,,,0,0,0,3,3,0,3,0,9,0,9,0,,,,,,,,,,,,,,,,,418.4296643999405,None,419.0299948998727,419.63018610002473,419.6139059998095,421.61404570005834,None,1,0.6124408603645861,2.6125111603178084,increament,0.6,45,standard,None,100,,,,,,,,m,20,222,fr,r,0,raw,2022-06-09_10h19.43.424,oddball,2022.1.2,60.04138035913312,
20,,,,,0,0,0,3,3,0,3,0,10,0,10,0,,,,,,,,,,,,,,,,,421.6306610996835,None,422.3315173997544,422.93193669989705,422.91517899977043,424.9159248000942,None,1,0.6110369595699012,2.611740359570831,increament,0.6,45,standard,None,100,,,,,,,,m,20,222,fr,r,0,raw,2022-06-09_10h19.43.424,oddball,2022.1.2,60.04138035913312,
20,,,,,0,0,0,3,3,0,3,0,11,0,11,0,,,,,,,,,,,,,,,,,424.9321336997673,None,425.58277119975537,426.18264849996194,426.1659881998785,428.16726429993287,None,1,0.6095309597440064,2.6108940597623587,increament,0.6,45,standard,None,100,,,,,,,,m,20,222,fr,r,0,raw,2022-06-09_10h19.43.424,oddball,2022.1.2,60.04138035913312,
20,,,,,0,0,0,3,3,0,3,0,12,0,12,0,,,,,,,,,,,,,,,,,428.18420989997685,None,428.9507975997403,429.5504398997873,429.5342468000017,431.534598399885,None,1,0.6117834602482617,2.61210745992139,increament,0.6,45,standard,None,100,,,,,,,,m,20,222,fr,r,0,raw,2022-06-09_10h19.43.424,oddball,2022.1.2,60.04138035913312,
20,,,,,0,0,0,3,3,0,3,0,13,0,13,0,,,,,,,,,,,,,,,,,431.55135660013184,None,432.3017418999225,432.90155640011653,432.88474870007485,434.8859651000239,j,0,0.6110141598619521,2.6122666597366333,increament,0.6,45,standard,None,100,0.6467968998476863,,,,,,,m,20,222,fr,r,0,raw,2022-06-09_10h19.43.424,oddball,2022.1.2,60.04138035913312,
20,,,,,0,0,0,3,3,0,3,0,14,0,14,0,,,,,,,,,,,,,,,,,434.90261239977553,None,435.48636909993365,436.0868961000815,436.06993489991874,438.07089129975066,None,1,0.6125529599376023,2.6135670598596334,increament,0.6,45,standard,None,100,,,,,,,,m,20,222,fr,r,0,raw,2022-06-09_10h19.43.424,oddball,2022.1.2,60.04138035913312,
20,,,,,0,0,0,3,3,0,3,0,15,0,15,0,,,,,,,,,,,,,,,,,438.08848319994286,None,438.7875351998955,439.3878957997076,439.37106329994276,441.3715487001464,None,1,0.6126322597265244,2.6130801597610116,increament,0.6,45,standard,None,100,,,,,,,,m,20,222,fr,r,0,raw,2022-06-09_10h19.43.424,oddball,2022.1.2,60.04138035913312,
20,,,,,0,0,0,3,3,0,3,0,16,0,16,0,,,,,,,,,,,,,,,,,441.388207399752,None,442.05557709978893,442.65603839978576,442.6393907000311,444.6400898997672,None,1,0.6125139598734677,2.613170059863478,increament,0.6,45,standard,None,100,,,,,,,,m,20,222,fr,r,0,raw,2022-06-09_10h19.43.424,oddball,2022.1.2,60.04138035913312,
20,,,,,0,0,0,3,3,0,3,0,17,0,17,0,,,,,,,,,,,,,,,,,444.6565028000623,None,445.30705010006204,445.90715799992904,445.89044070011005,447.89112669974566,None,1,0.6118506598286331,2.6125335600227118,increament,0.6,45,standard,None,100,,,,,,,,m,20,222,fr,r,0,raw,2022-06-09_10h19.43.424,oddball,2022.1.2,60.04138035913312,
20,,,,,0,0,0,3,3,0,3,0,18,0,18,0,,,,,,,,,,,,,,,,,447.90795999998227,None,448.5913172001019,449.1916133998893,449.1747193997726,451.17524549970403,None,1,0.6097162598744035,2.6102169598452747,increament,0.6,45,standard,None,100,,,,,,,,m,20,222,fr,r,0,raw,2022-06-09_10h19.43.424,oddball,2022.1.2,60.04138035913312,
20,,,,,0,0,0,3,3,0,3,0,19,0,19,0,,,,,,,,,,,,,,,,,451.192166400142,None,451.9256110000424,452.5261379997246,452.5097356000915,454.51088549988344,None,1,0.6139164604246616,2.6151063605211675,increament,0.6,45,standard,None,100,,,,,,,,m,20,222,fr,r,0,raw,2022-06-09_10h19.43.424,oddball,2022.1.2,60.04138035913312,
20,,,,,0,0,0,3,3,0,3,0,20,0,20,0,,,,,,,,,,,,,,,,,454.5268264999613,None,455.19370489986613,455.7941161999479,455.77723830007017,457.77833759970963,None,1,0.6133170598186553,2.6144676599651575,increament,0.6,45,standard,None,100,,,,,,,,m,20,222,fr,r,0,raw,2022-06-09_10h19.43.424,oddball,2022.1.2,60.04138035913312,
20,,,,,0,0,0,3,3,0,3,0,21,0,21,0,,,,,,,,,,,,,,,,,457.7955188998021,None,458.3784810998477,458.9785102996975,458.96227909997106,460.96256859973073,None,1,0.614333359990269,2.6146397599950433,increament,0.6,45,standard,None,100,,,,,,,,m,20,222,fr,r,0,raw,2022-06-09_10h19.43.424,oddball,2022.1.2,60.04138035913312,
20,,,,,0,0,0,3,3,0,3,0,22,0,22,0,,,,,,,,,,,,,,,,,460.9794446998276,None,461.71325789997354,462.6797445998527,462.64683219976723,464.6475033997558,j,1,0.9624203597195446,2.9630809598602355,increament,0.96,48,oddball,j,160,0.8047629999928176,,,,,,,m,20,222,fr,r,0,raw,2022-06-09_10h19.43.424,oddball,2022.1.2,60.04138035913312,
20,,,,,0,0,0,3,3,0,3,0,23,0,23,0,,,,,,,,,,,,,,,,,464.6639334000647,None,465.19780940003693,465.7977861999534,465.7812759000808,467.7818537997082,None,1,0.6113620600663126,2.611932760104537,increament,0.6,45,standard,None,100,,,,,,,,m,20,222,fr,r,0,raw,2022-06-09_10h19.43.424,oddball,2022.1.2,60.04138035913312,
20,,,,,0,0,0,3,3,0,3,0,24,0,24,0,,,,,,,,,,,,,,,,,467.79856609972194,None,468.4489627997391,469.0489525999874,469.03225419996306,471.0332438000478,None,1,0.6121297599747777,2.6131771598011255,increament,0.6,45,standard,None,100,,,,,,,,m,20,222,fr,r,0,raw,2022-06-09_10h19.43.424,oddball,2022.1.2,60.04138035913312,
20,,,,,0,0,0,3,3,0,3,0,25,0,25,0,,,,,,,,,,,,,,,,,471.05062020011246,None,471.6835924000479,472.2836906998418,472.26679989974946,474.2681177998893,None,1,0.6115884594619274,2.6129837594926357,increament,0.6,45,standard,None,100,,,,,,,,m,20,222,fr,r,0,raw,2022-06-09_10h19.43.424,oddball,2022.1.2,60.04138035913312,
20,,,,,0,0,0,3,3,0,3,0,26,0,26,0,,,,,,,,,,,,,,,,,474.2850637999363,None,474.9676105999388,475.5680148997344,475.5514535997063,477.5521614998579,None,1,0.6133096595294774,2.614017459563911,increament,0.6,45,standard,None,100,,,,,,,,m,20,222,fr,r,0,raw,2022-06-09_10h19.43.424,oddball,2022.1.2,60.04138035913312,
20,,,,,0,0,0,3,3,0,3,0,27,0,27,0,,,,,,,,,,,,,,,,,477.56903220014647,None,478.2359408000484,478.8360457001254,478.81934109982103,480.82015809975564,None,1,0.6090536597184837,2.609887459781021,increament,0.6,45,standard,None,100,,,,,,,,m,20,222,fr,r,0,raw,2022-06-09_10h19.43.424,oddball,2022.1.2,60.04138035913312,
20,,,,,0,0,0,3,3,0,3,0,28,0,28,0,,,,,,,,,,,,,,,,,480.8369072997011,None,481.37053389986977,481.97059509996325,481.9541600998491,483.9545684000477,None,1,0.612025760114193,2.6123513597995043,increament,0.6,45,standard,None,100,,,,,,,,m,20,222,fr,r,0,raw,2022-06-09_10h19.43.424,oddball,2022.1.2,60.04138035913312,
20,,,,,0,0,0,3,3,0,3,0,29,0,29,0,,,,,,,,,,,,,,,,,483.97130389977247,None,484.57148050004616,485.42145429970697,485.3881618999876,487.38950289972126,j,1,0.8468210599385202,2.8482184601016343,increament,0.84,47,oddball,j,140,0.7104684999212623,,,,,,,m,20,222,fr,r,0,raw,2022-06-09_10h19.43.424,oddball,2022.1.2,60.04138035913312,
20,,,,,0,0,0,3,4,0,4,0,0,0,0,0,,,,,,,,,,,,,,,494.0362725998275,None,496.2758269999176,None,496.9594998001121,497.5599082997069,497.5434268997051,499.5440050000325,None,1,0.6119225602596998,2.61244186013937,decreament,0.6,41,standard,None,100,,487.4061034996994,None,,,,,m,20,222,fr,r,0,raw,2022-06-09_10h19.43.424,oddball,2022.1.2,60.04138035913312,
20,,,,,0,0,0,3,4,0,4,0,1,0,1,0,,,,,,,,,,,,,,,,,499.5606442000717,None,500.211250399705,500.81098419986665,500.79432490002364,502.79506559995934,None,1,0.6101220594719052,2.6108379596844316,decreament,0.6,41,standard,None,100,,,,,,,,m,20,222,fr,r,0,raw,2022-06-09_10h19.43.424,oddball,2022.1.2,60.04138035913312,
20,,,,,0,0,0,3,4,0,4,0,2,0,2,0,,,,,,,,,,,,,,,,,502.81170840002596,None,503.578597899992,504.1789810997434,504.1623837999068,506.16333930008113,None,1,0.6129044601693749,2.613932160194963,decreament,0.6,41,standard,None,100,,,,,,,,m,20,222,fr,r,0,raw,2022-06-09_10h19.43.424,oddball,2022.1.2,60.04138035913312,
20,,,,,0,0,0,3,4,0,4,0,3,0,3,0,,,,,,,,,,,,,,,,,506.18025500001386,None,506.78027629991993,507.38003699993715,507.3633904000744,509.36446169996634,None,1,0.6102006598375738,2.611309059895575,decreament,0.6,41,standard,None,100,,,,,,,,m,20,222,fr,r,0,raw,2022-06-09_10h19.43.424,oddball,2022.1.2,60.04138035913312,
20,,,,,0,0,0,3,4,0,4,0,4,0,4,0,,,,,,,,,,,,,,,,,509.38090139999986,None,509.981384600047,510.58149959985167,510.5647593997419,512.5654516997747,None,1,0.6095902598462999,2.6103275599889457,decreament,0.6,41,standard,None,100,,,,,,,,m,20,222,fr,r,0,raw,2022-06-09_10h19.43.424,oddball,2022.1.2,60.04138035913312,
20,,,,,0,0,0,3,4,0,4,0,5,0,5,0,,,,,,,,,,,,,,,,,512.5821666996926,None,513.3326670997776,513.8160083997063,513.7991244997829,515.8003221000545,None,0,0.4933172599412501,2.4945551599375904,decreament,0.48,44,oddball,j,80,,,,,,,,m,20,222,fr,r,0,raw,2022-06-09_10h19.43.424,oddball,2022.1.2,60.04138035913312,
20,,,,,0,0,0,3,4,0,4,0,6,0,6,0,,,,,,,,,,,,,,,,,515.8168621999212,None,516.3832836998627,516.9837560998276,516.9674006998539,518.967846499756,None,1,0.6143148597329855,2.61469306005165,decreament,0.6,41,standard,None,100,,,,,,,,m,20,222,fr,r,0,raw,2022-06-09_10h19.43.424,oddball,2022.1.2,60.04138035913312,
20,,,,,0,0,0,3,4,0,4,0,7,0,7,0,,,,,,,,,,,,,,,,,518.9848158000968,None,519.5014047999866,520.1020017000847,520.0853503998369,522.0859056999907,None,1,0.6130513595417142,2.6135692596435547,decreament,0.6,41,standard,None,100,,,,,,,,m,20,222,fr,r,0,raw,2022-06-09_10h19.43.424,oddball,2022.1.2,60.04138035913312,
20,,,,,0,0,0,3,4,0,4,0,8,0,8,0,,,,,,,,,,,,,,,,,522.1024898998439,None,522.7357696001418,523.3361026998609,523.3193871998228,525.3206285000779,None,1,0.6131206601858139,2.6144404602237046,decreament,0.6,41,standard,None,100,,,,,,,,m,20,222,fr,r,0,raw,2022-06-09_10h19.43.424,oddball,2022.1.2,60.04138035913312,
20,,,,,0,0,0,3,4,0,4,0,9,0,9,0,,,,,,,,,,,,,,,,,525.3383419001475,None,525.9871557001024,526.5876813000068,526.5712580997497,528.571478900034,None,1,0.6131203593686223,2.6132538593374193,decreament,0.6,41,standard,None,100,,,,,,,,m,20,222,fr,r,0,raw,2022-06-09_10h19.43.424,oddball,2022.1.2,60.04138035913312,
20,,,,,0,0,0,3,4,0,4,0,10,0,10,0,,,,,,,,,,,,,,,,,528.5883344998583,None,529.2388943997212,529.6052692998201,529.5885462998413,531.5893433997408,j,1,0.3745186598971486,2.3753095595166087,decreament,0.36,43,oddball,j,60,1.0943466001190245,,,,,,,m,20,222,fr,r,0,raw,2022-06-09_10h19.43.424,oddball,2022.1.2,60.04138035913312,
20,,,,,0,0,0,3,4,0,4,0,11,0,11,0,,,,,,,,,,,,,,,,,531.6059042997658,None,532.1726840999909,532.7729782001115,532.7566792001016,534.7573450999334,None,1,0.6135211600922048,2.6141698602586985,decreament,0.6,41,standard,None,100,,,,,,,,m,20,222,fr,r,0,raw,2022-06-09_10h19.43.424,oddball,2022.1.2,60.04138035913312,
20,,,,,0,0,0,3,4,0,4,0,12,0,12,0,,,,,,,,,,,,,,,,,534.7738956999965,None,535.3576851999387,535.9575720997527,535.9408440999687,537.9416450001299,None,1,0.6094159600324929,2.6102432599291205,decreament,0.6,41,standard,None,100,,,,,,,,m,20,222,fr,r,0,raw,2022-06-09_10h19.43.424,oddball,2022.1.2,60.04138035913312,
20,,,,,0,0,0,3,4,0,4,0,13,0,13,0,,,,,,,,,,,,,,,,,537.9582678996958,None,538.5920962998644,539.1922798999585,539.175829899963,541.1762481997721,None,1,0.6109618595801294,2.611341959796846,decreament,0.6,41,standard,None,100,,,,,,,,m,20,222,fr,r,0,raw,2022-06-09_10h19.43.424,oddball,2022.1.2,60.04138035913312,
20,,,,,0,0,0,3,4,0,4,0,14,0,14,0,,,,,,,,,,,,,,,,,541.1932255998254,None,541.9103180998936,542.5104422001168,542.4937257999554,544.4940658998676,None,1,0.6097196596674621,2.609973759856075,decreament,0.6,41,standard,None,100,,,,,,,,m,20,222,fr,r,0,raw,2022-06-09_10h19.43.424,oddball,2022.1.2,60.04138035913312,
20,,,,,0,0,0,3,4,0,4,0,15,0,15,0,,,,,,,,,,,,,,,,,544.5109701999463,None,545.1280378997326,545.7281019999646,545.7116839000955,547.7120509999804,None,1,0.6118714599870145,2.6121724601835012,decreament,0.6,41,standard,None,100,,,,,,,,m,20,222,fr,r,0,raw,2022-06-09_10h19.43.424,oddball,2022.1.2,60.04138035913312,
20,,,,,0,0,0,3,4,0,4,0,16,0,16,0,,,,,,,,,,,,,,,,,547.7289396999404,None,548.3459292999469,548.9460148997605,548.9295024997555,550.9299230999313,None,1,0.611535559874028,2.611904860008508,decreament,0.6,41,standard,None,100,,,,,,,,m,20,222,fr,r,0,raw,2022-06-09_10h19.43.424,oddball,2022.1.2,60.04138035913312,
20,,,,,0,0,0,3,4,0,4,0,17,0,17,0,,,,,,,,,,,,,,,,,550.9465870000422,None,551.6803747001104,552.2804045998491,552.2639888999984,554.2645696001127,None,1,0.6122472602874041,2.61286466056481,decreament,0.6,41,standard,None,100,,,,,,,,m,20,222,fr,r,0,raw,2022-06-09_10h19.43.424,oddball,2022.1.2,60.04138035913312,
20,,,,,0,0,0,3,4,0,4,0,18,0,18,0,,,,,,,,,,,,,,,,,554.2815664997324,None,554.9814828997478,555.5818138998002,555.5650829998776,557.5660526999272,None,1,0.6123694595880806,2.6134026595391333,decreament,0.6,41,standard,None,100,,,,,,,,m,20,222,fr,r,0,raw,2022-06-09_10h19.43.424,oddball,2022.1.2,60.04138035913312,
20,,,,,0,0,0,3,4,0,4,0,19,0,19,0,,,,,,,,,,,,,,,,,557.5827440000139,None,558.2660782998428,558.8662133999169,558.8498204997741,560.8503225999884,None,1,0.6108061596751213,2.611309959553182,decreament,0.6,41,standard,None,100,,,,,,,,m,20,222,fr,r,0,raw,2022-06-09_10h19.43.424,oddball,2022.1.2,60.04138035913312,
20,,,,,0,0,0,3,4,0,4,0,20,0,20,0,,,,,,,,,,,,,,,,,560.8670566999353,None,561.5676583000459,562.1672550998628,562.1508184997365,564.1519327000715,None,1,0.6104616597294807,2.6115960595197976,decreament,0.6,41,standard,None,100,,,,,,,,m,20,222,fr,r,0,raw,2022-06-09_10h19.43.424,oddball,2022.1.2,60.04138035913312,
20,,,,,0,0,0,3,4,0,4,0,21,0,21,0,,,,,,,,,,,,,,,,,564.168568499852,None,565.0019332999364,565.6021678000689,565.5857330998406,567.5863069999032,None,1,0.6123427599668503,2.612862459849566,decreament,0.6,41,standard,None,100,,,,,,,,m,20,222,fr,r,0,raw,2022-06-09_10h19.43.424,oddball,2022.1.2,60.04138035913312,
20,,,,,0,0,0,3,4,0,4,0,22,0,22,0,,,,,,,,,,,,,,,,,567.6031647999771,None,568.2031438997947,568.8032662998885,568.7867048000917,570.787937999703,None,1,0.6130588599480689,2.6143215596675873,decreament,0.6,41,standard,None,100,,,,,,,,m,20,222,fr,r,0,raw,2022-06-09_10h19.43.424,oddball,2022.1.2,60.04138035913312,
20,,,,,0,0,0,3,4,0,4,0,23,0,23,0,,,,,,,,,,,,,,,,,570.804080599919,None,571.3876688000746,571.9879494998604,571.9712864998728,573.9721562000923,None,1,0.6129669598303735,2.613851459696889,decreament,0.6,41,standard,None,100,,,,,,,,m,20,222,fr,r,0,raw,2022-06-09_10h19.43.424,oddball,2022.1.2,60.04138035913312,
20,,,,,0,0,0,3,4,0,4,0,24,0,24,0,,,,,,,,,,,,,,,,,573.988726099953,None,574.6727028000169,575.2724339999259,575.2556838998571,577.2568378001451,None,1,0.6098276600241661,2.6110289599746466,decreament,0.6,41,standard,None,100,,,,,,,,m,20,222,fr,r,0,raw,2022-06-09_10h19.43.424,oddball,2022.1.2,60.04138035913312,
20,,,,,0,0,0,3,4,0,4,0,25,0,25,0,,,,,,,,,,,,,,,,,577.2733411998488,None,578.0571368001401,578.6571565996855,578.6405847999267,580.641685300041,None,1,0.6124347597360611,2.613588459789753,decreament,0.6,41,standard,None,100,,,,,,,,m,20,222,fr,r,0,raw,2022-06-09_10h19.43.424,oddball,2022.1.2,60.04138035913312,
20,,,,,0,0,0,3,4,0,4,0,26,0,26,0,,,,,,,,,,,,,,,,,580.6580957998522,None,581.2914221999235,581.8919923999347,581.8754127998836,583.875635900069,None,1,0.6101292590610683,2.6102251592092216,decreament,0.6,41,standard,None,100,,,,,,,,m,20,222,fr,r,0,raw,2022-06-09_10h19.43.424,oddball,2022.1.2,60.04138035913312,
20,,,,,0,0,0,3,4,0,4,0,27,0,27,0,,,,,,,,,,,,,,,,,583.8921894999221,None,584.6596396998502,585.2598267998546,585.2435809001327,587.243902400136,None,1,0.6098596598021686,2.6101835598237813,decreament,0.6,41,standard,None,100,,,,,,,,m,20,222,fr,r,0,raw,2022-06-09_10h19.43.424,oddball,2022.1.2,60.04138035913312,
20,,,,,0,0,0,3,4,0,4,0,28,0,28,0,,,,,,,,,,,,,,,,,587.2613864997402,None,587.8942430997267,588.4941088999622,588.477507499978,590.4782213997096,None,1,0.6107129598967731,2.611467059701681,decreament,0.6,41,standard,None,100,,,,,,,,m,20,222,fr,r,0,raw,2022-06-09_10h19.43.424,oddball,2022.1.2,60.04138035913312,
20,,,,,0,0,0,3,4,0,4,0,29,0,29,0,,,,,,,,,,,,,,,,,590.4953994001262,None,591.1290245000273,591.378447199706,591.3455416997895,593.3461146000773,j,1,0.24249525973573327,2.2430285597220063,decreament,0.24,42,oddball,j,40,0.7037101997993886,,,,,,,m,20,222,fr,r,0,raw,2022-06-09_10h19.43.424,oddball,2022.1.2,60.04138035913312,
20,,,,,0,0,0,3,5,0,5,0,0,0,0,0,,,,,,,,,,,,,,,595.6819305000827,None,597.2306576999836,None,597.9312431998551,598.5313753997907,598.5153167997487,600.5152259999886,None,1,0.6128513598814607,2.6126361596398056,increament,0.6,45,standard,None,100,,593.3628438999876,None,,,,,m,20,222,fr,r,0,raw,2022-06-09_10h19.43.424,oddball,2022.1.2,60.04138035913312,
20,,,,,0,0,0,3,5,0,5,0,1,0,1,0,,,,,,,,,,,,,,,,,600.5326310000382,None,601.2159516997635,601.8160151001066,601.7994467997923,603.8001890997402,None,1,0.6114575597457588,2.612160759512335,increament,0.6,45,standard,None,100,,,,,,,,m,20,222,fr,r,0,raw,2022-06-09_10h19.43.424,oddball,2022.1.2,60.04138035913312,
20,,,,,0,0,0,3,5,0,5,0,2,0,2,0,,,,,,,,,,,,,,,,,603.8167157997377,None,604.4505185000598,605.0506529998966,605.0341006997041,607.0348462997936,None,1,0.6099824602715671,2.610736960079521,increament,0.6,45,standard,None,100,,,,,,,,m,20,222,fr,r,0,raw,2022-06-09_10h19.43.424,oddball,2022.1.2,60.04138035913312,
20,,,,,0,0,0,3,5,0,5,0,3,0,3,0,,,,,,,,,,,,,,,,,607.0512063996866,None,607.668288399931,608.2685724999756,608.2517802999355,610.2527751000598,None,1,0.6118313600309193,2.612891459837556,increament,0.6,45,standard,None,100,,,,,,,,m,20,222,fr,r,0,raw,2022-06-09_10h19.43.424,oddball,2022.1.2,60.04138035913312,
20,,,,,0,0,0,3,5,0,5,0,4,0,4,0,,,,,,,,,,,,,,,,,610.2688965001144,None,610.903231299948,611.5033714999445,611.4867825997062,613.4865399999544,None,1,0.6091684601269662,2.6088193603791296,increament,0.6,45,standard,None,100,,,,,,,,m,20,222,fr,r,0,raw,2022-06-09_10h19.43.424,oddball,2022.1.2,60.04138035913312,
20,,,,,0,0,0,3,5,0,5,0,5,0,5,0,,,,,,,,,,,,,,,,,613.5032386998646,None,614.0871092998423,614.6876543001272,614.670909000095,616.6717758998275,None,1,0.6118471594527364,2.6127238594926894,increament,0.6,45,standard,None,100,,,,,,,,m,20,222,fr,r,0,raw,2022-06-09_10h19.43.424,oddball,2022.1.2,60.04138035913312,
20,,,,,0,0,0,3,5,0,5,0,6,0,6,0,,,,,,,,,,,,,,,,,616.6882699998096,None,617.3390607000329,617.9385361000896,617.9220169996843,619.9226104998961,j,0,0.6119138598442078,2.612515459768474,increament,0.6,45,standard,None,100,0.8234373996965587,,,,,,,m,20,222,fr,r,0,raw,2022-06-09_10h19.43.424,oddball,2022.1.2,60.04138035913312,
20,,,,,0,0,0,3,5,0,5,0,7,0,7,0,,,,,,,,,,,,,,,,,619.9396097999997,None,620.6897527999245,621.2899922998622,621.2733072997071,623.2742964997888,None,1,0.6128509594127536,2.6139074596576393,increament,0.6,45,standard,None,100,,,,,,,,m,20,222,fr,r,0,raw,2022-06-09_10h19.43.424,oddball,2022.1.2,60.04138035913312,
20,,,,,0,0,0,3,5,0,5,0,8,0,8,0,,,,,,,,,,,,,,,,,623.290552099701,None,623.9741479000077,624.5743708000518,624.5578189999796,626.5589673998766,None,1,0.6134950593113899,2.614708859473467,increament,0.6,45,standard,None,100,,,,,,,,m,20,222,fr,r,0,raw,2022-06-09_10h19.43.424,oddball,2022.1.2,60.04138035913312,
20,,,,,0,0,0,3,5,0,5,0,9,0,9,0,,,,,,,,,,,,,,,,,626.5752242999151,None,627.192420499865,627.7924150000326,627.7759442999959,629.7767582000233,None,1,0.6112039596773684,2.6120795598253608,increament,0.6,45,standard,None,100,,,,,,,,m,20,222,fr,r,0,raw,2022-06-09_10h19.43.424,oddball,2022.1.2,60.04138035913312,
20,,,,,0,0,0,3,5,0,5,0,10,0,10,0,,,,,,,,,,,,,,,,,629.793873900082,None,630.4265799997374,631.3936604000628,631.3605669997633,633.3616642998531,None,0,0.9642265597358346,2.965387059841305,increament,0.96,48,oddball,j,160,,,,,,,,m,20,222,fr,r,0,raw,2022-06-09_10h19.43.424,oddball,2022.1.2,60.04138035913312,
20,,,,,0,0,0,3,5,0,5,0,11,0,11,0,,,,,,,,,,,,,,,,,633.3787330999039,None,633.9785539000295,634.5784510998055,634.5616454998963,636.5628252997994,None,1,0.6109448596835136,2.6122044599615037,increament,0.6,45,standard,None,100,,,,,,,,m,20,222,fr,r,0,raw,2022-06-09_10h19.43.424,oddball,2022.1.2,60.04138035913312,
20,,,,,0,0,0,3,5,0,5,0,12,0,12,0,,,,,,,,,,,,,,,,,636.5792577997781,None,637.3127842997201,637.9126673000865,637.8963798996992,639.8970928001218,None,1,0.6122982599772513,2.613073659595102,increament,0.6,45,standard,None,100,,,,,,,,m,20,222,fr,r,0,raw,2022-06-09_10h19.43.424,oddball,2022.1.2,60.04138035913312,
20,,,,,0,0,0,3,5,0,5,0,13,0,13,0,,,,,,,,,,,,,,,,,639.9138460000977,None,640.4972752998583,641.0980130997486,641.0811034999788,643.0820462000556,None,1,0.6138771600089967,2.6148195597343147,increament,0.6,45,standard,None,100,,,,,,,,m,20,222,fr,r,0,raw,2022-06-09_10h19.43.424,oddball,2022.1.2,60.04138035913312,
20,,,,,0,0,0,3,5,0,5,0,14,0,14,0,,,,,,,,,,,,,,,,,643.0992833999917,None,643.6319009000435,644.2319726999849,644.2150977998972,646.2159416000359,None,1,0.6126894592307508,2.6135683595202863,increament,0.6,45,standard,None,100,,,,,,,,m,20,222,fr,r,0,raw,2022-06-09_10h19.43.424,oddball,2022.1.2,60.04138035913312,
20,,,,,0,0,0,3,5,0,5,0,15,0,15,0,,,,,,,,,,,,,,,,,646.232835599687,None,646.8167694001459,647.4165837001055,647.3999016000889,649.4008419001475,None,1,0.612047859467566,2.61303515965119,increament,0.6,45,standard,None,100,,,,,,,,m,20,222,fr,r,0,raw,2022-06-09_10h19.43.424,oddball,2022.1.2,60.04138035913312,
20,,,,,0,0,0,3,5,0,5,0,16,0,16,0,,,,,,,,,,,,,,,,,649.4170824000612,None,649.9674952998757,650.5680899997242,650.551292899996,652.5519230999053,None,1,0.6126580601558089,2.6132565601728857,increament,0.6,45,standard,None,100,,,,,,,,m,20,222,fr,r,0,raw,2022-06-09_10h19.43.424,oddball,2022.1.2,60.04138035913312,
20,,,,,0,0,0,3,5,0,5,0,17,0,17,0,,,,,,,,,,,,,,,,,652.568773099687,None,653.1854952997528,653.7855388997123,653.7688346998766,655.7699147998355,None,1,0.6123919598758221,2.6135202599689364,increament,0.6,45,standard,None,100,,,,,,,,m,20,222,fr,r,0,raw,2022-06-09_10h19.43.424,oddball,2022.1.2,60.04138035913312,
20,,,,,0,0,0,3,5,0,5,0,18,0,18,0,,,,,,,,,,,,,,,,,655.7869576998055,None,656.3700231998228,656.9699097997509,656.9533722000197,658.9545734999701,None,1,0.611355559900403,2.612624659668654,increament,0.6,45,standard,None,100,,,,,,,,m,20,222,fr,r,0,raw,2022-06-09_10h19.43.424,oddball,2022.1.2,60.04138035913312,
20,,,,,0,0,0,3,5,0,5,0,19,0,19,0,,,,,,,,,,,,,,,,,658.9708376000635,None,659.6546550998464,660.2546910000965,660.2380770999007,662.2385662999004,None,1,0.6118026594631374,2.6122881597839296,increament,0.6,45,standard,None,100,,,,,,,,m,20,222,fr,r,0,raw,2022-06-09_10h19.43.424,oddball,2022.1.2,60.04138035913312,
20,,,,,0,0,0,3,5,0,5,0,20,0,20,0,,,,,,,,,,,,,,,,,662.2553332997486,None,662.8390826000832,663.6895321998745,663.6563467998058,665.657402199693,j,1,0.844295259565115,2.845380859449506,increament,0.84,47,oddball,j,140,0.8090524999424815,,,,,,,m,20,222,fr,r,0,raw,2022-06-09_10h19.43.424,oddball,2022.1.2,60.04138035913312,
20,,,,,0,0,0,3,5,0,5,0,21,0,21,0,,,,,,,,,,,,,,,,,665.6748093999922,None,666.2907956000417,666.8906376999803,666.8745715999976,668.8751137000509,None,1,0.6104049598798156,2.610954059753567,increament,0.6,45,standard,None,100,,,,,,,,m,20,222,fr,r,0,raw,2022-06-09_10h19.43.424,oddball,2022.1.2,60.04138035913312,
20,,,,,0,0,0,3,5,0,5,0,22,0,22,0,,,,,,,,,,,,,,,,,668.8912577000447,None,669.5081790997647,670.1082322001457,670.0917752999812,672.0925532998517,None,1,0.6093283598311245,2.6101260599680245,increament,0.6,45,standard,None,100,,,,,,,,m,20,222,fr,r,0,raw,2022-06-09_10h19.43.424,oddball,2022.1.2,60.04138035913312,
20,,,,,0,0,0,3,5,0,5,0,23,0,23,0,,,,,,,,,,,,,,,,,672.109442200046,None,672.8594582998194,673.4600160000846,673.4433242999949,675.4438966000453,None,1,0.6125575602054596,2.613114660140127,increament,0.6,45,standard,None,100,,,,,,,,m,20,222,fr,r,0,raw,2022-06-09_10h19.43.424,oddball,2022.1.2,60.04138035913312,
20,,,,,0,0,0,3,5,0,5,0,24,0,24,0,,,,,,,,,,,,,,,,,675.4606495001353,None,676.0608485997654,676.6611945996992,676.644523399882,678.6451984997839,None,1,0.6094533600844443,2.6100630601868033,increament,0.6,45,standard,None,100,,,,,,,,m,20,222,fr,r,0,raw,2022-06-09_10h19.43.424,oddball,2022.1.2,60.04138035913312,
20,,,,,0,0,0,3,5,0,5,0,25,0,25,0,,,,,,,,,,,,,,,,,678.6616225000471,None,679.3121718997136,679.912241499871,679.8957980996929,681.8961632000282,None,1,0.6084308596327901,2.6087349597364664,increament,0.6,45,standard,None,100,,,,,,,,m,20,222,fr,r,0,raw,2022-06-09_10h19.43.424,oddball,2022.1.2,60.04138035913312,
20,,,,,0,0,0,3,5,0,5,0,26,0,26,0,,,,,,,,,,,,,,,,,681.9130536997691,None,682.5302361999638,683.1298905997537,683.1131255999207,685.1140406001359,None,1,0.6093436600640416,2.6102780597284436,increament,0.6,45,standard,None,100,,,,,,,,m,20,222,fr,r,0,raw,2022-06-09_10h19.43.424,oddball,2022.1.2,60.04138035913312,
20,,,,,0,0,0,3,5,0,5,0,27,0,27,0,,,,,,,,,,,,,,,,,685.1308496999554,None,685.7143684998155,686.3145763999783,686.2981648999266,688.2985415998846,j,0,0.6134769595228136,2.613744559697807,increament,0.6,45,standard,None,100,1.2787615996785462,,,,,,,m,20,222,fr,r,0,raw,2022-06-09_10h19.43.424,oddball,2022.1.2,60.04138035913312,
20,,,,,0,0,0,3,5,0,5,0,28,0,28,0,,,,,,,,,,,,,,,,,688.3154798997566,None,688.832409999799,689.4326968998648,689.4157448001206,691.4164796001278,None,1,0.6095580598339438,2.610243059694767,increament,0.6,45,standard,None,100,,,,,,,,m,20,222,fr,r,0,raw,2022-06-09_10h19.43.424,oddball,2022.1.2,60.04138035913312,
20,,,,,0,0,0,3,5,0,5,0,29,0,29,0,,,,,,,,,,,,,,,,,691.433189699892,None,692.1169529999606,692.8502718000673,692.8170261001214,694.8177676000632,None,0,0.72919926000759,2.7298812600784004,increament,0.72,46,oddball,j,120,,,,,,,,m,20,222,fr,r,0,raw,2022-06-09_10h19.43.424,oddball,2022.1.2,60.04138035913312,
20,,,,,0,0,0,3,6,0,6,0,0,0,0,0,,,,,,,,,,,,,,,696.6408246001229,None,697.6188231999986,None,698.2861250997521,698.8858519000933,698.8691982999444,700.870459199883,None,1,0.6106082596816123,2.611911759711802,decreament,0.6,41,standard,None,100,,694.8349628997967,None,,,,,m,20,222,fr,r,0,raw,2022-06-09_10h19.43.424,oddball,2022.1.2,60.04138035913312,
20,,,,,0,0,0,3,6,0,6,0,1,0,1,0,,,,,,,,,,,,,,,,,700.8867395999841,None,701.6538272998296,702.2540206997655,702.2375933998264,704.2380161997862,None,1,0.6097334595397115,2.6101456596516073,decreament,0.6,41,standard,None,100,,,,,,,,m,20,222,fr,r,0,raw,2022-06-09_10h19.43.424,oddball,2022.1.2,60.04138035913312,
20,,,,,0,0,0,3,6,0,6,0,2,0,2,0,,,,,,,,,,,,,,,,,704.2545332997106,None,704.9218327999115,705.5219668997452,705.5052390000783,707.5059285997413,None,1,0.6123421597294509,2.61297605978325,decreament,0.6,41,standard,None,100,,,,,,,,m,20,222,fr,r,0,raw,2022-06-09_10h19.43.424,oddball,2022.1.2,60.04138035913312,
20,,,,,0,0,0,3,6,0,6,0,3,0,3,0,,,,,,,,,,,,,,,,,707.5226568998769,None,708.1230191998184,708.7230728999712,708.706601599697,710.7071871999651,None,1,0.6128255599178374,2.6134155597537756,decreament,0.6,41,standard,None,100,,,,,,,,m,20,222,fr,r,0,raw,2022-06-09_10h19.43.424,oddball,2022.1.2,60.04138035913312,
20,,,,,0,0,0,3,6,0,6,0,4,0,4,0,,,,,,,,,,,,,,,,,710.7238459000364,None,711.3578864997253,711.9578387998044,711.9409753000364,713.9417638001032,None,1,0.6098800599575043,2.6106571601703763,decreament,0.6,41,standard,None,100,,,,,,,,m,20,222,fr,r,0,raw,2022-06-09_10h19.43.424,oddball,2022.1.2,60.04138035913312,
20,,,,,0,0,0,3,6,0,6,0,5,0,5,0,,,,,,,,,,,,,,,,,713.9585571000353,None,714.6420418997295,715.2423932999372,715.2255651000887,717.226301100105,None,1,0.6115527604706585,2.6122922603972256,decreament,0.6,41,standard,None,100,,,,,,,,m,20,222,fr,r,0,raw,2022-06-09_10h19.43.424,oddball,2022.1.2,60.04138035913312,
20,,,,,0,0,0,3,6,0,6,0,6,0,6,0,,,,,,,,,,,,,,,,,717.2431402998045,None,717.8265518997796,718.4267231998965,718.4103600997478,720.4110607998446,None,1,0.6121849594637752,2.6129283597692847,decreament,0.6,41,standard,None,100,,,,,,,,m,20,222,fr,r,0,raw,2022-06-09_10h19.43.424,oddball,2022.1.2,60.04138035913312,
20,,,,,0,0,0,3,6,0,6,0,7,0,7,0,,,,,,,,,,,,,,,,,720.4276310997084,None,721.0114528001286,721.6111326999962,721.5945850000717,723.5952559998259,None,1,0.609653259627521,2.6103547597303987,decreament,0.6,41,standard,None,100,,,,,,,,m,20,222,fr,r,0,raw,2022-06-09_10h19.43.424,oddball,2022.1.2,60.04138035913312,
20,,,,,0,0,0,3,6,0,6,0,8,0,8,0,,,,,,,,,,,,,,,,,723.6122885998338,None,724.3455993998796,724.9458254999481,724.9295966001227,726.9302419000305,None,1,0.6084798597730696,2.609121659770608,decreament,0.6,41,standard,None,100,,,,,,,,m,20,222,fr,r,0,raw,2022-06-09_10h19.43.424,oddball,2022.1.2,60.04138035913312,
20,,,,,0,0,0,3,6,0,6,0,9,0,9,0,,,,,,,,,,,,,,,,,726.9468808998354,None,727.5636859997176,728.1639495999552,728.1471703001298,730.1482881000265,None,1,0.6103226598352194,2.6113839601166546,decreament,0.6,41,standard,None,100,,,,,,,,m,20,222,fr,r,0,raw,2022-06-09_10h19.43.424,oddball,2022.1.2,60.04138035913312,
20,,,,,0,0,0,3,6,0,6,0,10,0,10,0,,,,,,,,,,,,,,,,,730.1642994997092,None,730.8480031001382,731.4485832001083,731.4320613997988,733.43257179996,None,1,0.6138304602354765,2.6142217605374753,decreament,0.6,41,standard,None,100,,,,,,,,m,20,222,fr,r,0,raw,2022-06-09_10h19.43.424,oddball,2022.1.2,60.04138035913312,
20,,,,,0,0,0,3,6,0,6,0,11,0,11,0,,,,,,,,,,,,,,,,,733.4495572997257,None,734.1657273001038,734.7662971997634,734.7501742998138,736.7501110001467,None,1,0.6132110599428415,2.6130675598978996,decreament,0.6,41,standard,None,100,,,,,,,,m,20,222,fr,r,0,raw,2022-06-09_10h19.43.424,oddball,2022.1.2,60.04138035913312,
20,,,,,0,0,0,3,6,0,6,0,12,0,12,0,,,,,,,,,,,,,,,,,736.7668252000585,None,737.3175232000649,737.9173873998225,737.9008149998263,739.9015015000477,None,1,0.6089119599200785,2.6095829596742988,decreament,0.6,41,standard,None,100,,,,,,,,m,20,222,fr,r,0,raw,2022-06-09_10h19.43.424,oddball,2022.1.2,60.04138035913312,
20,,,,,0,0,0,3,6,0,6,0,13,0,13,0,,,,,,,,,,,,,,,,,739.9181423000991,None,740.5687819998711,741.1686315997504,741.1519820000976,743.1528050000779,None,1,0.6126388595439494,2.6134686595760286,decreament,0.6,41,standard,None,100,,,,,,,,m,20,222,fr,r,0,raw,2022-06-09_10h19.43.424,oddball,2022.1.2,60.04138035913312,
20,,,,,0,0,0,3,6,0,6,0,14,0,14,0,,,,,,,,,,,,,,,,,743.169328100048,None,743.8199720997363,744.4199923998676,744.4032553001307,746.4044079999439,None,1,0.6103544598445296,2.6115865600295365,decreament,0.6,41,standard,None,100,,,,,,,,m,20,222,fr,r,0,raw,2022-06-09_10h19.43.424,oddball,2022.1.2,60.04138035913312,
20,,,,,0,0,0,3,6,0,6,0,15,0,15,0,,,,,,,,,,,,,,,,,746.4218271998689,None,747.1875784001313,747.7877555997111,747.7710979999974,749.7718854998238,None,1,0.6145400595851243,2.6153131597675383,decreament,0.6,41,standard,None,100,,,,,,,,m,20,222,fr,r,0,raw,2022-06-09_10h19.43.424,oddball,2022.1.2,60.04138035913312,
20,,,,,0,0,0,3,6,0,6,0,16,0,16,0,,,,,,,,,,,,,,,,,749.7888441998512,None,750.3719649999402,750.9722493998706,750.9561589998193,752.9568503000773,None,1,0.6131280604749918,2.613848860375583,decreament,0.6,41,standard,None,100,,,,,,,,m,20,222,fr,r,0,raw,2022-06-09_10h19.43.424,oddball,2022.1.2,60.04138035913312,
20,,,,,0,0,0,3,6,0,6,0,17,0,17,0,,,,,,,,,,,,,,,,,752.9731280999258,None,753.6736220000312,754.2738247998059,754.2569356998429,756.2577832997777,None,1,0.6113814604468644,2.612292760517448,decreament,0.6,41,standard,None,100,,,,,,,,m,20,222,fr,r,0,raw,2022-06-09_10h19.43.424,oddball,2022.1.2,60.04138035913312,
20,,,,,0,0,0,3,6,0,6,0,18,0,18,0,,,,,,,,,,,,,,,,,756.2743796999566,None,757.0917452001013,757.4581335997209,757.424855899997,759.4255685997196,j,1,0.3611828596331179,2.361913759727031,decreament,0.36,43,oddball,j,60,1.48837749985978,,,,,,,m,20,222,fr,r,0,raw,2022-06-09_10h19.43.424,oddball,2022.1.2,60.04138035913312,
20,,,,,0,0,0,3,6,0,6,0,19,0,19,0,,,,,,,,,,,,,,,,,759.4424139000475,None,760.0427580000833,760.6429139999673,760.6263465997763,762.6267124000005,None,1,0.6128935595043004,2.6131677594967186,decreament,0.6,41,standard,None,100,,,,,,,,m,20,222,fr,r,0,raw,2022-06-09_10h19.43.424,oddball,2022.1.2,60.04138035913312,
20,,,,,0,0,0,3,6,0,6,0,20,0,20,0,,,,,,,,,,,,,,,,,762.6433892999776,None,763.210224899929,763.8104900997132,763.7939502000809,765.7953558000736,None,1,0.6148504596203566,2.6163504598662257,decreament,0.6,41,standard,None,100,,,,,,,,m,20,222,fr,r,0,raw,2022-06-09_10h19.43.424,oddball,2022.1.2,60.04138035913312,
20,,,,,0,0,0,3,6,0,6,0,21,0,21,0,,,,,,,,,,,,,,,,,765.8122708997689,None,766.3954551997595,766.9954610997811,766.9788029999472,768.979874999728,None,1,0.6097817597910762,2.610918960068375,decreament,0.6,41,standard,None,100,,,,,,,,m,20,222,fr,r,0,raw,2022-06-09_10h19.43.424,oddball,2022.1.2,60.04138035913312,
20,,,,,0,0,0,3,6,0,6,0,22,0,22,0,,,,,,,,,,,,,,,,,768.9959399998188,None,769.8129114001058,770.4131775000133,770.3968869997188,772.3972791000269,None,1,0.6127794599160552,2.613090659957379,decreament,0.6,41,standard,None,100,,,,,,,,m,20,222,fr,r,0,raw,2022-06-09_10h19.43.424,oddball,2022.1.2,60.04138035913312,
20,,,,,0,0,0,3,6,0,6,0,23,0,23,0,,,,,,,,,,,,,,,,,772.413602499757,None,773.0975585998967,773.5808651000261,773.5476596998051,775.5482843001373,None,0,0.47913885954767466,2.4797829599119723,decreament,0.48,44,oddball,j,80,,,,,,,,m,20,222,fr,r,0,raw,2022-06-09_10h19.43.424,oddball,2022.1.2,60.04138035913312,
20,,,,,0,0,0,3,6,0,6,0,24,0,24,0,,,,,,,,,,,,,,,,,775.5652342000976,None,776.2153324000537,776.8157401001081,776.7988072996959,778.7993870000355,None,1,0.6128632598556578,2.6134153599850833,decreament,0.6,41,standard,None,100,,,,,,,,m,20,222,fr,r,0,raw,2022-06-09_10h19.43.424,oddball,2022.1.2,60.04138035913312,
20,,,,,0,0,0,3,6,0,6,0,25,0,25,0,,,,,,,,,,,,,,,,,778.8161458997056,None,779.3501045997255,779.950270100031,779.9333854001015,781.934733199887,None,1,0.609253459610045,2.6106350598856807,decreament,0.6,41,standard,None,100,,,,,,,,m,20,222,fr,r,0,raw,2022-06-09_10h19.43.424,oddball,2022.1.2,60.04138035913312,
20,,,,,0,0,0,3,6,0,6,0,26,0,26,0,,,,,,,,,,,,,,,,,781.9508595997468,None,782.5843433998525,783.1844902997836,783.1679368000478,785.1690027997829,None,1,0.6102465600706637,2.611361159943044,decreament,0.6,41,standard,None,100,,,,,,,,m,20,222,fr,r,0,raw,2022-06-09_10h19.43.424,oddball,2022.1.2,60.04138035913312,
20,,,,,0,0,0,3,6,0,6,0,27,0,27,0,,,,,,,,,,,,,,,,,785.1857539997436,None,785.7851782999933,786.3856914998032,786.3692510998808,788.3697351999581,None,1,0.6149977594614029,2.6155053596012294,decreament,0.6,41,standard,None,100,,,,,,,,m,20,222,fr,r,0,raw,2022-06-09_10h19.43.424,oddball,2022.1.2,60.04138035913312,
20,,,,,0,0,0,3,6,0,6,0,28,0,28,0,,,,,,,,,,,,,,,,,788.3866754998453,None,789.0540938000195,789.3036321997643,789.2705044001341,791.2711529000662,j,1,0.24470716016367078,2.2452894602902234,decreament,0.24,42,oddball,j,40,0.7698306995444,,,,,,,m,20,222,fr,r,0,raw,2022-06-09_10h19.43.424,oddball,2022.1.2,60.04138035913312,
20,,,,,0,0,0,3,6,0,6,0,29,0,29,0,,,,,,,,,,,,,,,,,791.2877702000551,None,791.9046002998948,792.5047643999569,792.4884019000456,794.4891206999309,None,1,0.6119523597881198,2.6127305598929524,decreament,0.6,41,standard,None,100,,,,,,,,m,20,222,fr,r,0,raw,2022-06-09_10h19.43.424,oddball,2022.1.2,60.04138035913312,
20,,,,,0,0,0,3,7,0,7,0,0,0,0,0,,,,,,,,,,,,,,,796.5124952998012,None,798.2570619997568,None,798.8906557001173,799.4906417001039,799.4741358999163,801.4749289997853,None,1,0.6102218604646623,2.6110918601043522,increament,0.6,45,standard,None,100,,794.5057188998908,None,,,,,m,20,222,fr,r,0,raw,2022-06-09_10h19.43.424,oddball,2022.1.2,60.04138035913312,
20,,,,,0,0,0,3,7,0,7,0,1,0,1,0,,,,,,,,,,,,,,,,,801.4939910001121,None,802.2083099000156,802.8086081999354,802.7925781998783,804.7928193998523,None,1,0.613242160063237,2.6134508601389825,increament,0.6,45,standard,None,100,,,,,,,,m,20,222,fr,r,0,raw,2022-06-09_10h19.43.424,oddball,2022.1.2,60.04138035913312,
20,,,,,0,0,0,3,7,0,7,0,2,0,2,0,,,,,,,,,,,,,,,,,804.8094600997865,None,805.3596425997093,805.9598189000972,805.9431531997398,807.9443783001043,None,1,0.6138226594775915,2.6150925597175956,increament,0.6,45,standard,None,100,,,,,,,,m,20,222,fr,r,0,raw,2022-06-09_10h19.43.424,oddball,2022.1.2,60.04138035913312,
20,,,,,0,0,0,3,7,0,7,0,3,0,3,0,,,,,,,,,,,,,,,,,807.9613282000646,None,808.5274283997715,809.1283181998879,809.1111023998819,811.1120877000503,None,1,0.6142177600413561,2.61522336024791,increament,0.6,45,standard,None,100,,,,,,,,m,20,222,fr,r,0,raw,2022-06-09_10h19.43.424,oddball,2022.1.2,60.04138035913312,
20,,,,,0,0,0,3,7,0,7,0,4,0,4,0,,,,,,,,,,,,,,,,,811.1285371999256,None,811.7292299997061,812.3290141997859,812.3122919998132,814.3135146996938,None,1,0.6093718600459397,2.610666160006076,increament,0.6,45,standard,None,100,,,,,,,,m,20,222,fr,r,0,raw,2022-06-09_10h19.43.424,oddball,2022.1.2,60.04138035913312,
20,,,,,0,0,0,3,7,0,7,0,5,0,5,0,,,,,,,,,,,,,,,,,814.3304054001346,None,814.963390099816,815.5633617998101,815.5468264999799,817.5474233999848,None,1,0.6123214601539075,2.612887560389936,increament,0.6,45,standard,None,100,,,,,,,,m,20,222,fr,r,0,raw,2022-06-09_10h19.43.424,oddball,2022.1.2,60.04138035913312,
20,,,,,0,0,0,3,7,0,7,0,6,0,6,0,,,,,,,,,,,,,,,,,817.5640758001246,None,818.1814433000982,818.7814297997393,818.7648068997078,820.7653133999556,None,1,0.6121855601668358,2.6126790600828826,increament,0.6,45,standard,None,100,,,,,,,,m,20,222,fr,r,0,raw,2022-06-09_10h19.43.424,oddball,2022.1.2,60.04138035913312,
20,,,,,0,0,0,3,7,0,7,0,7,0,7,0,,,,,,,,,,,,,,,,,820.7823824998923,None,821.3325260998681,821.9323740000837,821.9158397000283,823.9165823999792,None,1,0.612493559718132,2.613230459857732,increament,0.6,45,standard,None,100,,,,,,,,m,20,222,fr,r,0,raw,2022-06-09_10h19.43.424,oddball,2022.1.2,60.04138035913312,
20,,,,,0,0,0,3,7,0,7,0,8,0,8,0,,,,,,,,,,,,,,,,,823.9332045000046,None,824.633872800041,825.2339023998939,825.2171038999222,827.2181978998706,None,1,0.6107774595730007,2.611883159726858,increament,0.6,45,standard,None,100,,,,,,,,m,20,222,fr,r,0,raw,2022-06-09_10h19.43.424,oddball,2022.1.2,60.04138035913312,
20,,,,,0,0,0,3,7,0,7,0,9,0,9,0,,,,,,,,,,,,,,,,,827.2348267999478,None,827.8016031999141,828.5349562996998,828.5017796996981,830.5023688999936,None,0,0.7291638595052063,2.7297702594660223,increament,0.72,46,oddball,j,120,,,,,,,,m,20,222,fr,r,0,raw,2022-06-09_10h19.43.424,oddball,2022.1.2,60.04138035913312,
20,,,,,0,0,0,3,7,0,7,0,10,0,10,0,,,,,,,,,,,,,,,,,830.5193730997853,None,831.152800699696,831.7532063997351,831.7368283998221,833.7371577001177,None,1,0.6103282598778605,2.610615059733391,increament,0.6,45,standard,None,100,,,,,,,,m,20,222,fr,r,0,raw,2022-06-09_10h19.43.424,oddball,2022.1.2,60.04138035913312,
20,,,,,0,0,0,3,7,0,7,0,11,0,11,0,,,,,,,,,,,,,,,,,833.7538250000216,None,834.4372883001342,835.037763999775,835.0209514000453,837.0217245998792,None,1,0.6138764596544206,2.6146408594213426,increament,0.6,45,standard,None,100,,,,,,,,m,20,222,fr,r,0,raw,2022-06-09_10h19.43.424,oddball,2022.1.2,60.04138035913312,
20,,,,,0,0,0,3,7,0,7,0,12,0,12,0,,,,,,,,,,,,,,,,,837.0384633997455,None,837.6051846998744,838.2058453997597,838.1886530998163,840.1896894001402,None,1,0.6134149599820375,2.614505060017109,increament,0.6,45,standard,None,100,,,,,,,,m,20,222,fr,r,0,raw,2022-06-09_10h19.43.424,oddball,2022.1.2,60.04138035913312,
20,,,,,0,0,0,3,7,0,7,0,13,0,13,0,,,,,,,,,,,,,,,,,840.2068624999374,None,840.773129499983,841.3733234000392,841.3565547997132,843.3577013998292,None,1,0.6127641606144607,2.6139503605663776,increament,0.6,45,standard,None,100,,,,,,,,m,20,222,fr,r,0,raw,2022-06-09_10h19.43.424,oddball,2022.1.2,60.04138035913312,
20,,,,,0,0,0,3,7,0,7,0,14,0,14,0,,,,,,,,,,,,,,,,,843.3741391999647,None,844.0409880001098,844.6411080998369,844.6244421997108,846.6252774000168,None,1,0.6140470593236387,2.6148976595140994,increament,0.6,45,standard,None,100,,,,,,,,m,20,222,fr,r,0,raw,2022-06-09_10h19.43.424,oddball,2022.1.2,60.04138035913312,
20,,,,,0,0,0,3,7,0,7,0,15,0,15,0,,,,,,,,,,,,,,,,,846.6420948999003,None,847.3423442998901,847.9426142997108,847.925684900023,849.9266058998182,None,1,0.6097085601650178,2.6106288600713015,increament,0.6,45,standard,None,100,,,,,,,,m,20,222,fr,r,0,raw,2022-06-09_10h19.43.424,oddball,2022.1.2,60.04138035913312,
20,,,,,0,0,0,3,7,0,7,0,16,0,16,0,,,,,,,,,,,,,,,,,849.9433705997653,None,850.5600355998613,851.1608942998573,851.1438055997714,853.1443377998658,None,1,0.6126527595333755,2.613089659716934,increament,0.6,45,standard,None,100,,,,,,,,m,20,222,fr,r,0,raw,2022-06-09_10h19.43.424,oddball,2022.1.2,60.04138035913312,
20,,,,,0,0,0,3,7,0,7,0,17,0,17,0,,,,,,,,,,,,,,,,,853.1610074001364,None,853.7780129001476,854.37841629982,854.3619580999948,856.3628071998246,None,1,0.6137373596429825,2.6146021597087383,increament,0.6,45,standard,None,100,,,,,,,,m,20,222,fr,r,0,raw,2022-06-09_10h19.43.424,oddball,2022.1.2,60.04138035913312,
20,,,,,0,0,0,3,7,0,7,0,18,0,18,0,,,,,,,,,,,,,,,,,856.3796874997206,None,857.0795160997659,857.6796447997913,857.6627385998145,859.6634084000252,None,1,0.6100236596539617,2.610651559662074,increament,0.6,45,standard,None,100,,,,,,,,m,20,222,fr,r,0,raw,2022-06-09_10h19.43.424,oddball,2022.1.2,60.04138035913312,
20,,,,,0,0,0,3,7,0,7,0,19,0,19,0,,,,,,,,,,,,,,,,,859.6804263000377,None,860.4141635000706,861.3808033000678,861.3474889998324,863.3488548998721,j,1,0.959497659932822,2.960901460144669,increament,0.96,48,oddball,j,160,0.4534758999943733,,,,,,,m,20,222,fr,r,0,raw,2022-06-09_10h19.43.424,oddball,2022.1.2,60.04138035913312,
20,,,,,0,0,0,3,7,0,7,0,20,0,20,0,,,,,,,,,,,,,,,,,863.3649037000723,None,863.9987611998804,864.5986572997645,864.5818833000958,866.5828216997907,None,1,0.6095210597850382,2.6105784601531923,increament,0.6,45,standard,None,100,,,,,,,,m,20,222,fr,r,0,raw,2022-06-09_10h19.43.424,oddball,2022.1.2,60.04138035913312,
20,,,,,0,0,0,3,7,0,7,0,21,0,21,0,,,,,,,,,,,,,,,,,866.5993107999675,None,867.1833688998595,867.7833837000653,867.766832599882,869.7677346998826,None,1,0.6125291595235467,2.613447959534824,increament,0.6,45,standard,None,100,,,,,,,,m,20,222,fr,r,0,raw,2022-06-09_10h19.43.424,oddball,2022.1.2,60.04138035913312,
20,,,,,0,0,0,3,7,0,7,0,22,0,22,0,,,,,,,,,,,,,,,,,869.7846789998002,None,870.4181280001067,871.0178702999838,871.0014920998365,873.0017347997054,None,1,0.6096684602089226,2.609824059996754,increament,0.6,45,standard,None,100,,,,,,,,m,20,222,fr,r,0,raw,2022-06-09_10h19.43.424,oddball,2022.1.2,60.04138035913312,
20,,,,,0,0,0,3,7,0,7,0,23,0,23,0,,,,,,,,,,,,,,,,,873.0185316000134,None,873.7189531996846,874.3190437997691,874.3028828999959,876.3029807996936,None,1,0.6114998594857752,2.6115609598346055,increament,0.6,45,standard,None,100,,,,,,,,m,20,222,fr,r,0,raw,2022-06-09_10h19.43.424,oddball,2022.1.2,60.04138035913312,
20,,,,,0,0,0,3,7,0,7,0,24,0,24,0,,,,,,,,,,,,,,,,,876.3197940001264,None,876.8700246000662,877.4702792000026,877.4536301000044,879.4545940998942,None,1,0.6119480603374541,2.6129050604067743,increament,0.6,45,standard,None,100,,,,,,,,m,20,222,fr,r,0,raw,2022-06-09_10h19.43.424,oddball,2022.1.2,60.04138035913312,
20,,,,,0,0,0,3,7,0,7,0,25,0,25,0,,,,,,,,,,,,,,,,,879.4711502999999,None,880.0547662000172,880.6551104998216,880.6383066996932,882.6390072000213,None,1,0.6126016597263515,2.6132861599326134,increament,0.6,45,standard,None,100,,,,,,,,m,20,222,fr,r,0,raw,2022-06-09_10h19.43.424,oddball,2022.1.2,60.04138035913312,
20,,,,,0,0,0,3,7,0,7,0,26,0,26,0,,,,,,,,,,,,,,,,,882.6558717000298,None,883.4727996997535,884.0732901999727,884.0565935000777,886.0568905998953,None,1,0.6098101595416665,2.6100010597147048,increament,0.6,45,standard,None,100,,,,,,,,m,20,222,fr,r,0,raw,2022-06-09_10h19.43.424,oddball,2022.1.2,60.04138035913312,
20,,,,,0,0,0,3,7,0,7,0,27,0,27,0,,,,,,,,,,,,,,,,,886.0737191000953,None,886.6738038999029,887.5239947997034,887.4912529001012,889.4919834998436,j,1,0.8473111600615084,2.848005359992385,increament,0.84,47,oddball,j,140,0.6365487999282777,,,,,,,m,20,222,fr,r,0,raw,2022-06-09_10h19.43.424,oddball,2022.1.2,60.04138035913312,
20,,,,,0,0,0,3,7,0,7,0,28,0,28,0,,,,,,,,,,,,,,,,,889.5080804000609,None,890.1416541999206,890.741800100077,890.7253306997009,892.7264825999737,None,1,0.6094628595747054,2.610675059724599,increament,0.6,45,standard,None,100,,,,,,,,m,20,222,fr,r,0,raw,2022-06-09_10h19.43.424,oddball,2022.1.2,60.04138035913312,
20,,,,,0,0,0,3,7,0,7,0,29,0,29,0,,,,,,,,,,,,,,,,,892.7428558999673,None,893.4602022999898,894.0601336997934,894.0434559998102,896.0440616998821,None,1,0.6111215599812567,2.611735559999943,increament,0.6,45,standard,None,100,,,,,,,,m,20,222,fr,r,0,raw,2022-06-09_10h19.43.424,oddball,2022.1.2,60.04138035913312,
20,,,,,0,0,0,3,8,0,8,0,0,0,0,0,,,,,,,,,,,,,,,898.2071413998492,None,899.3952644998208,None,900.095789199695,900.6958798998967,900.6792691997252,902.6795684001409,None,1,0.6086225598119199,2.608850759919733,decreament,0.6,41,standard,None,100,,896.0608479999937,None,,,,,m,20,222,fr,r,0,raw,2022-06-09_10h19.43.424,oddball,2022.1.2,60.04138035913312,
20,,,,,0,0,0,3,8,0,8,0,1,0,1,0,,,,,,,,,,,,,,,,,902.6965065998957,None,903.4134602998383,904.0136242997833,903.9974666000344,905.9981374000199,None,1,0.6140991593711078,2.6147756595164537,decreament,0.6,41,standard,None,100,,,,,,,,m,20,222,fr,r,0,raw,2022-06-09_10h19.43.424,oddball,2022.1.2,60.04138035913312,
20,,,,,0,0,0,3,8,0,8,0,2,0,2,0,,,,,,,,,,,,,,,,,906.0142748998478,None,906.6314003998414,907.2315059998073,907.2147524999455,909.2159643997438,None,1,0.6102931597270072,2.611588359810412,decreament,0.6,41,standard,None,100,,,,,,,,m,20,222,fr,r,0,raw,2022-06-09_10h19.43.424,oddball,2022.1.2,60.04138035913312,
20,,,,,0,0,0,3,8,0,8,0,3,0,3,0,,,,,,,,,,,,,,,,,909.2323797997087,None,909.8495247000828,910.4494002996944,910.4328902997077,912.4337472999468,None,1,0.6103107598610222,2.6111611598171294,decreament,0.6,41,standard,None,100,,,,,,,,m,20,222,fr,r,0,raw,2022-06-09_10h19.43.424,oddball,2022.1.2,60.04138035913312,
20,,,,,0,0,0,3,8,0,8,0,4,0,4,0,,,,,,,,,,,,,,,,,912.4504276998341,None,913.0669513000175,913.6675388999283,913.6507139001042,915.6512651001103,None,1,0.6134346597827971,2.6139608598314226,decreament,0.6,41,standard,None,100,,,,,,,,m,20,222,fr,r,0,raw,2022-06-09_10h19.43.424,oddball,2022.1.2,60.04138035913312,
20,,,,,0,0,0,3,8,0,8,0,5,0,5,0,,,,,,,,,,,,,,,,,915.6681268000975,None,916.4349507000297,916.6854061000049,916.6518581998535,918.652645799797,j,1,0.24556435970589519,2.2463800595141947,decreament,0.24,42,oddball,j,40,1.1248784000054002,,,,,,,m,20,222,fr,r,0,raw,2022-06-09_10h19.43.424,oddball,2022.1.2,60.04138035913312,
20,,,,,0,0,0,3,8,0,8,0,6,0,6,0,,,,,,,,,,,,,,,,,918.6694092000835,None,919.3362670000643,919.9361805999652,919.9194692997262,921.9205573000945,None,1,0.6107460600323975,2.611883660312742,decreament,0.6,41,standard,None,100,,,,,,,,m,20,222,fr,r,0,raw,2022-06-09_10h19.43.424,oddball,2022.1.2,60.04138035913312,
20,,,,,0,0,0,3,8,0,8,0,7,0,7,0,,,,,,,,,,,,,,,,,921.9370470996946,None,922.6210403000005,923.2211099998094,923.2042994000949,925.2049373998307,None,1,0.6092780600301921,2.60990046011284,decreament,0.6,41,standard,None,100,,,,,,,,m,20,222,fr,r,0,raw,2022-06-09_10h19.43.424,oddball,2022.1.2,60.04138035913312,
20,,,,,0,0,0,3,8,0,8,0,8,0,8,0,,,,,,,,,,,,,,,,,925.2216767999344,None,925.838831699919,926.4389812997542,926.4228674997576,928.4230629000813,None,1,0.6130521595478058,2.6131724594160914,decreament,0.6,41,standard,None,100,,,,,,,,m,20,222,fr,r,0,raw,2022-06-09_10h19.43.424,oddball,2022.1.2,60.04138035913312,
20,,,,,0,0,0,3,8,0,8,0,9,0,9,0,,,,,,,,,,,,,,,,,928.4397088997066,None,929.0904329000041,929.6899183001369,929.6734736999497,931.6743151997216,None,1,0.6094585596583784,2.61027955962345,decreament,0.6,41,standard,None,100,,,,,,,,m,20,222,fr,r,0,raw,2022-06-09_10h19.43.424,oddball,2022.1.2,60.04138035913312,
20,,,,,0,0,0,3,8,0,8,0,10,0,10,0,,,,,,,,,,,,,,,,,931.6909876000136,None,932.3914292999543,932.9913540999405,932.9745585997589,934.9758004997857,None,1,0.6093632597476244,2.6107931598089635,decreament,0.6,41,standard,None,100,,,,,,,,m,20,222,fr,r,0,raw,2022-06-09_10h19.43.424,oddball,2022.1.2,60.04138035913312,
20,,,,,0,0,0,3,8,0,8,0,11,0,11,0,,,,,,,,,,,,,,,,,934.9920093999244,None,935.7259038998745,936.2094795000739,936.1929966998287,None,None,0,0.47917945962399244,2.4794052597135305,decreament,0.48,44,oddball,j,80,,,,,,,,m,20,222,fr,r,0,raw,2022-06-09_10h19.43.424,oddball,2022.1.2,60.04138035913312,
20,,,,,0,0,0,3,8,0,8,0,12,0,12,0,,,,,,,,,,,,,,,,,938.1935628000647,None,938.7770726997405,939.3768722000532,939.3604091997258,941.3616196000949,None,1,0.61228335974738,2.613585459534079,decreament,0.6,41,standard,None,100,,,,,,,,m,20,222,fr,r,0,raw,2022-06-09_10h19.43.424,oddball,2022.1.2,60.04138035913312,
20,,,,,0,0,0,3,8,0,8,0,13,0,13,0,,,,,,,,,,,,,,,,,941.3781584999524,None,942.0950046000071,942.6949851997197,942.6785333999433,944.679226399865,None,1,0.6098504597321153,2.6105992598459125,decreament,0.6,41,standard,None,100,,,,,,,,m,20,222,fr,r,0,raw,2022-06-09_10h19.43.424,oddball,2022.1.2,60.04138035913312,
20,,,,,0,0,0,3,8,0,8,0,14,0,14,0,,,,,,,,,,,,,,,,,944.6958766998723,None,945.3626493997872,945.9629774000496,945.9463864997961,947.9469261998311,None,1,0.6120640593580902,2.6125756595283747,decreament,0.6,41,standard,None,100,,,,,,,,m,20,222,fr,r,0,raw,2022-06-09_10h19.43.424,oddball,2022.1.2,60.04138035913312,
20,,,,,0,0,0,3,8,0,8,0,15,0,15,0,,,,,,,,,,,,,,,,,947.9637464997359,None,948.8473060997203,949.4479422997683,949.4308746000752,951.4318416998722,None,1,0.6126307598315179,2.6136098597198725,decreament,0.6,41,standard,None,100,,,,,,,,m,20,222,fr,r,0,raw,2022-06-09_10h19.43.424,oddball,2022.1.2,60.04138035913312,
20,,,,,0,0,0,3,8,0,8,0,16,0,16,0,,,,,,,,,,,,,,,,,951.4482803000137,None,952.1152630997822,952.715780199971,952.6986678997055,954.6994523997419,None,1,0.6128788599744439,2.6136785596609116,decreament,0.6,41,standard,None,100,,,,,,,,m,20,222,fr,r,0,raw,2022-06-09_10h19.43.424,oddball,2022.1.2,60.04138035913312,
20,,,,,0,0,0,3,8,0,8,0,17,0,17,0,,,,,,,,,,,,,,,,,954.7162843998522,None,955.3166070999578,955.9166326001287,955.9001901997253,957.9009306998923,None,1,0.6099183596670628,2.610722259618342,decreament,0.6,41,standard,None,100,,,,,,,,m,20,222,fr,r,0,raw,2022-06-09_10h19.43.424,oddball,2022.1.2,60.04138035913312,
20,,,,,0,0,0,3,8,0,8,0,18,0,18,0,,,,,,,,,,,,,,,,,957.9179309001192,None,958.7013328000903,959.3014512998052,959.2844503996894,961.2855911999941,None,1,0.6093500601127744,2.6105235600844026,decreament,0.6,41,standard,None,100,,,,,,,,m,20,222,fr,r,0,raw,2022-06-09_10h19.43.424,oddball,2022.1.2,60.04138035913312,
20,,,,,0,0,0,3,8,0,8,0,19,0,19,0,,,,,,,,,,,,,,,,,961.3022193997167,None,961.9692257000133,962.5690888999961,962.5526175000705,964.5533435000107,None,1,0.6096327602863312,2.61035646032542,decreament,0.6,41,standard,None,100,,,,,,,,m,20,222,fr,r,0,raw,2022-06-09_10h19.43.424,oddball,2022.1.2,60.04138035913312,
20,,,,,0,0,0,3,8,0,8,0,20,0,20,0,,,,,,,,,,,,,,,,,964.570044899825,None,965.2871018000878,965.8872851999477,965.8706799997017,967.871228700038,None,1,0.6105772601440549,2.6110913599841297,decreament,0.6,41,standard,None,100,,,,,,,,m,20,222,fr,r,0,raw,2022-06-09_10h19.43.424,oddball,2022.1.2,60.04138035913312,
20,,,,,0,0,0,3,8,0,8,0,21,0,21,0,,,,,,,,,,,,,,,,,967.887730000075,None,968.5382622000761,969.1380948000588,969.1216420996934,971.1222773999907,None,1,0.6116944598034024,2.6123094595968723,decreament,0.6,41,standard,None,100,,,,,,,,m,20,222,fr,r,0,raw,2022-06-09_10h19.43.424,oddball,2022.1.2,60.04138035913312,
20,,,,,0,0,0,3,8,0,8,0,22,0,22,0,,,,,,,,,,,,,,,,,971.1389092998579,None,971.8227820000611,972.1895134998485,972.1561561999843,974.1568152997643,None,0,0.36072875978425145,2.3613997595384717,decreament,0.36,43,oddball,j,60,,,,,,,,m,20,222,fr,r,0,raw,2022-06-09_10h19.43.424,oddball,2022.1.2,60.04138035913312,
20,,,,,0,0,0,3,8,0,8,0,23,0,23,0,,,,,,,,,,,,,,,,,974.1738200001419,None,974.9406035998836,975.5404894999228,975.5239138999023,977.5250874999911,None,1,0.6132293599657714,2.614480160176754,decreament,0.6,41,standard,None,100,,,,,,,,m,20,222,fr,r,0,raw,2022-06-09_10h19.43.424,oddball,2022.1.2,60.04138035913312,
20,,,,,0,0,0,3,8,0,8,0,24,0,24,0,,,,,,,,,,,,,,,,,977.5414498001337,None,978.3085842998698,978.9086055997759,978.8920895997435,980.8929932997562,None,1,0.6122839599847794,2.613255860283971,decreament,0.6,41,standard,None,100,,,,,,,,m,20,222,fr,r,0,raw,2022-06-09_10h19.43.424,oddball,2022.1.2,60.04138035913312,
20,,,,,0,0,0,3,8,0,8,0,25,0,25,0,,,,,,,,,,,,,,,,,980.9098791996948,None,981.5264598000795,982.126495399978,982.1098368000239,984.1111122998409,None,1,0.6104026595130563,2.6117289597168565,decreament,0.6,41,standard,None,100,,,,,,,,m,20,222,fr,r,0,raw,2022-06-09_10h19.43.424,oddball,2022.1.2,60.04138035913312,
20,,,,,0,0,0,3,8,0,8,0,26,0,26,0,,,,,,,,,,,,,,,,,984.1274108998477,None,984.8445481997915,985.4446316999383,985.4278858001344,987.428809999954,None,1,0.6092597600072622,2.610267359763384,decreament,0.6,41,standard,None,100,,,,,,,,m,20,222,fr,r,0,raw,2022-06-09_10h19.43.424,oddball,2022.1.2,60.04138035913312,
20,,,,,0,0,0,3,8,0,8,0,27,0,27,0,,,,,,,,,,,,,,,,,987.4455296997912,None,988.1454630000517,988.745690499898,988.7290089000016,990.7299393997528,None,1,0.6130748596042395,2.613993959967047,decreament,0.6,41,standard,None,100,,,,,,,,m,20,222,fr,r,0,raw,2022-06-09_10h19.43.424,oddball,2022.1.2,60.04138035913312,
20,,,,,0,0,0,3,8,0,8,0,28,0,28,0,,,,,,,,,,,,,,,,,990.7468592999503,None,991.3633659998886,991.9635371998884,991.9472067998722,993.9479024000466,None,1,0.6135342600755394,2.6142796599306166,decreament,0.6,41,standard,None,100,,,,,,,,m,20,222,fr,r,0,raw,2022-06-09_10h19.43.424,oddball,2022.1.2,60.04138035913312,
20,,,,,0,0,0,3,8,0,8,0,29,0,29,0,,,,,,,,,,,,,,,,,993.9642630997114,None,994.698301800061,995.2982168998569,995.2815954997204,997.2827527998015,None,1,0.609244859777391,2.6105018598027527,decreament,0.6,41,standard,None,100,,,,,,,,m,20,222,fr,r,0,raw,2022-06-09_10h19.43.424,oddball,2022.1.2,60.04138035913312,
20,,,,,0,0,0,3,9,0,9,0,0,0,0,0,,,,,,,,,,,,,,,1023.4830450001173,None,1053.3371199998073,None,1054.0871381000616,1054.6877556000836,1054.6709962999448,1056.6716845999472,None,1,0.6139505598694086,2.6146001596935093,increament,0.6,45,standard,None,100,,997.3042069999501,None,,,,,m,20,222,fr,r,0,raw,2022-06-09_10h19.43.424,oddball,2022.1.2,60.04138035913312,
20,,,,,0,0,0,3,9,0,9,0,1,0,1,0,,,,,,,,,,,,,,,,,1056.6881463001482,None,1057.3549576001242,1057.9554666997865,1057.939267799724,1059.9393273000605,None,1,0.6133664604276419,2.613340860232711,increament,0.6,45,standard,None,100,,,,,,,,m,20,222,fr,r,0,raw,2022-06-09_10h19.43.424,oddball,2022.1.2,60.04138035913312,
20,,,,,0,0,0,3,9,0,9,0,2,0,2,0,,,,,,,,,,,,,,,,,1059.9562018997967,None,1060.5561814997345,1061.1566409999505,1061.139754400123,1063.1405732999556,None,1,0.6129632596857846,2.6137923593632877,increament,0.6,45,standard,None,100,,,,,,,,m,20,222,fr,r,0,raw,2022-06-09_10h19.43.424,oddball,2022.1.2,60.04138035913312,
20,,,,,0,0,0,3,9,0,9,0,3,0,3,0,,,,,,,,,,,,,,,,,1063.157424400095,None,1063.9078314998187,1064.5076421000995,1064.4912208998576,1066.4925536997616,None,1,0.6092706597410142,2.610668459907174,increament,0.6,45,standard,None,100,,,,,,,,m,20,222,fr,r,0,raw,2022-06-09_10h19.43.424,oddball,2022.1.2,60.04138035913312,
20,,,,,0,0,0,3,9,0,9,0,4,0,4,0,,,,,,,,,,,,,,,,,1066.5084325000644,None,1067.2089455998503,1067.8088883999735,1067.792364299763,1069.793057099916,None,1,0.6101283598691225,2.6108237598091364,increament,0.6,45,standard,None,100,,,,,,,,m,20,222,fr,r,0,raw,2022-06-09_10h19.43.424,oddball,2022.1.2,60.04138035913312,
20,,,,,0,0,0,3,9,0,9,0,5,0,5,0,,,,,,,,,,,,,,,,,1069.8098339997232,None,1070.6099537000991,1071.2107778000645,1071.1940343999304,1073.1947482000105,None,1,0.6137512596324086,2.61439295951277,increament,0.6,45,standard,None,100,,,,,,,,m,20,222,fr,r,0,raw,2022-06-09_10h19.43.424,oddball,2022.1.2,60.04138035913312,
20,,,,,0,0,0,3,9,0,9,0,6,0,6,0,,,,,,,,,,,,,,,,,1073.2111357999966,None,1073.8782611996867,1074.4784480999224,1074.4613900999539,1076.4624120998196,None,1,0.6087485598400235,2.609854859765619,increament,0.6,45,standard,None,100,,,,,,,,m,20,222,fr,r,0,raw,2022-06-09_10h19.43.424,oddball,2022.1.2,60.04138035913312,
20,,,,,0,0,0,3,9,0,9,0,7,0,7,0,,,,,,,,,,,,,,,,,1076.4791620997712,None,1077.095984700136,1077.8294564997777,1077.796209299937,1079.7971791997552,None,0,0.7301023597829044,2.731081459671259,increament,0.72,46,oddball,j,120,,,,,,,,m,20,222,fr,r,0,raw,2022-06-09_10h19.43.424,oddball,2022.1.2,60.04138035913312,
20,,,,,0,0,0,3,9,0,9,0,8,0,8,0,,,,,,,,,,,,,,,,,1079.8135188999586,None,1080.6305092000403,1081.2306850999594,1081.2141010998748,1083.2150801001117,None,1,0.613090259488672,2.6141009596176445,increament,0.6,45,standard,None,100,,,,,,,,m,20,222,fr,r,0,raw,2022-06-09_10h19.43.424,oddball,2022.1.2,60.04138035913312,
20,,,,,0,0,0,3,9,0,9,0,9,0,9,0,,,,,,,,,,,,,,,,,1083.231399799697,None,1083.998071699869,1084.5982790999115,1084.5816112998873,1086.5826198998839,None,1,0.6149487602524459,2.615960560273379,increament,0.6,45,standard,None,100,,,,,,,,m,20,222,fr,r,0,raw,2022-06-09_10h19.43.424,oddball,2022.1.2,60.04138035913312,
20,,,,,0,0,0,3,9,0,9,0,10,0,10,0,,,,,,,,,,,,,,,,,1086.5992044000886,None,1087.1997245000675,1087.79978069989,1087.7830892000347,1089.78410420008,None,1,0.6124646598473191,2.613512659445405,increament,0.6,45,standard,None,100,,,,,,,,m,20,222,fr,r,0,raw,2022-06-09_10h19.43.424,oddball,2022.1.2,60.04138035913312,
20,,,,,0,0,0,3,9,0,9,0,11,0,11,0,,,,,,,,,,,,,,,,,1089.8009763001464,None,1090.5179666997865,1091.117641699966,1091.1011958997697,1093.1020689001307,None,1,0.6093887598253787,2.610314460005611,increament,0.6,45,standard,None,100,,,,,,,,m,20,222,fr,r,0,raw,2022-06-09_10h19.43.424,oddball,2022.1.2,60.04138035913312,
20,,,,,0,0,0,3,9,0,9,0,12,0,12,0,,,,,,,,,,,,,,,,,1093.1188118997961,None,1093.752390400041,1094.3528188001364,1094.3358681998216,1096.3362417998724,None,1,0.6089193602092564,2.609234259929508,increament,0.6,45,standard,None,100,,,,,,,,m,20,222,fr,r,0,raw,2022-06-09_10h19.43.424,oddball,2022.1.2,60.04138035913312,
20,,,,,0,0,0,3,9,0,9,0,13,0,13,0,,,,,,,,,,,,,,,,,1096.35286549991,None,1096.9035422001034,1097.8701837998815,1097.837336699944,1099.837897399906,j,1,0.960712059866637,2.9612959595397115,increament,0.96,48,oddball,j,160,0.38152180006727576,,,,,,,m,20,222,fr,r,0,raw,2022-06-09_10h19.43.424,oddball,2022.1.2,60.04138035913312,
20,,,,,0,0,0,3,9,0,9,0,14,0,14,0,,,,,,,,,,,,,,,,,1099.8546110996976,None,1100.6215788000263,1101.221757600084,1101.2052619000897,1103.2057437999174,None,1,0.6127222599461675,2.613209159579128,increament,0.6,45,standard,None,100,,,,,,,,m,20,222,fr,r,0,raw,2022-06-09_10h19.43.424,oddball,2022.1.2,60.04138035913312,
20,,,,,0,0,0,3,9,0,9,0,15,0,15,0,,,,,,,,,,,,,,,,,1103.222509100102,None,1103.8896960001439,1104.48966309987,1104.472889599856,1106.4735352997668,j,0,0.6122432597912848,2.6128919599577785,increament,0.6,45,standard,None,100,1.1028264998458326,,,,,,,m,20,222,fr,r,0,raw,2022-06-09_10h19.43.424,oddball,2022.1.2,60.04138035913312,
20,,,,,0,0,0,3,9,0,9,0,16,0,16,0,,,,,,,,,,,,,,,,,1106.490474899765,None,1107.2078164000995,1107.8073867997155,1107.7908340999857,1109.7918149000034,None,1,0.6104857595637441,2.6114981593564153,increament,0.6,45,standard,None,100,,,,,,,,m,20,222,fr,r,0,raw,2022-06-09_10h19.43.424,oddball,2022.1.2,60.04138035913312,
20,,,,,0,0,0,3,9,0,9,0,17,0,17,0,,,,,,,,,,,,,,,,,1109.808390200138,None,1110.4090629001148,1111.008895599749,1110.9922970999032,1112.9927365998738,None,1,0.6092946599237621,2.609643059782684,increament,0.6,45,standard,None,100,,,,,,,,m,20,222,fr,r,0,raw,2022-06-09_10h19.43.424,oddball,2022.1.2,60.04138035913312,
20,,,,,0,0,0,3,9,0,9,0,18,0,18,0,,,,,,,,,,,,,,,,,1113.0093000000343,None,1113.6930239996873,1114.293473499827,1114.276971399784,1116.2775146998465,None,1,0.6139516602270305,2.6144311600364745,increament,0.6,45,standard,None,100,,,,,,,,m,20,222,fr,r,0,raw,2022-06-09_10h19.43.424,oddball,2022.1.2,60.04138035913312,
20,,,,,0,0,0,3,9,0,9,0,19,0,19,0,,,,,,,,,,,,,,,,,1116.2942912997678,None,1116.877690399997,1117.4780632001348,1117.4612611997873,1119.461777599994,None,1,0.6123599600978196,2.612823060248047,increament,0.6,45,standard,None,100,,,,,,,,m,20,222,fr,r,0,raw,2022-06-09_10h19.43.424,oddball,2022.1.2,60.04138035913312,
20,,,,,0,0,0,3,9,0,9,0,20,0,20,0,,,,,,,,,,,,,,,,,1119.4787265998311,None,1120.0953218997456,1120.6958920997567,1120.6790705998428,1122.6799670998007,None,1,0.6135101593099535,2.614696459379047,increament,0.6,45,standard,None,100,,,,,,,,m,20,222,fr,r,0,raw,2022-06-09_10h19.43.424,oddball,2022.1.2,60.04138035913312,
20,,,,,0,0,0,3,9,0,9,0,21,0,21,0,,,,,,,,,,,,,,,,,1122.696684599854,None,1123.2802931996994,1123.880390400067,1123.8637727997266,1125.8645712998696,None,1,0.6105593596585095,2.611337959766388,increament,0.6,45,standard,None,100,,,,,,,,m,20,222,fr,r,0,raw,2022-06-09_10h19.43.424,oddball,2022.1.2,60.04138035913312,
20,,,,,0,0,0,3,9,0,9,0,22,0,22,0,,,,,,,,,,,,,,,,,1125.881133500021,None,1126.6318648997694,1127.2316652000882,1127.2151575000025,1129.2156440997496,None,1,0.6114827594719827,2.6119295596145093,increament,0.6,45,standard,None,100,,,,,,,,m,20,222,fr,r,0,raw,2022-06-09_10h19.43.424,oddball,2022.1.2,60.04138035913312,
20,,,,,0,0,0,3,9,0,9,0,23,0,23,0,,,,,,,,,,,,,,,,,1129.2324461000971,None,1129.9993076999672,1130.5994394998997,1130.5828720000573,1132.5836625001393,None,1,0.6105022598057985,2.6112790596671402,increament,0.6,45,standard,None,100,,,,,,,,m,20,222,fr,r,0,raw,2022-06-09_10h19.43.424,oddball,2022.1.2,60.04138035913312,
20,,,,,0,0,0,3,9,0,9,0,24,0,24,0,,,,,,,,,,,,,,,,,1132.6004479001276,None,1133.1839085998945,1133.7840713998303,1133.7675537997857,1135.7680644998327,None,1,0.6134944600053132,2.613982359878719,increament,0.6,45,standard,None,100,,,,,,,,m,20,222,fr,r,0,raw,2022-06-09_10h19.43.424,oddball,2022.1.2,60.04138035913312,
20,,,,,0,0,0,3,9,0,9,0,25,0,25,0,,,,,,,,,,,,,,,,,1135.7848295001313,None,1136.4683312000707,1137.068741099909,1137.0523685999215,1139.052692799829,None,1,0.6129318601451814,2.613186960108578,increament,0.6,45,standard,None,100,,,,,,,,m,20,222,fr,r,0,raw,2022-06-09_10h19.43.424,oddball,2022.1.2,60.04138035913312,
20,,,,,0,0,0,3,9,0,9,0,26,0,26,0,,,,,,,,,,,,,,,,,1139.069500700105,None,1139.7869003997184,1140.386989899911,1140.37008399982,1142.3709017997608,None,1,0.6121544595807791,2.6128895594738424,increament,0.6,45,standard,None,100,,,,,,,,m,20,222,fr,r,0,raw,2022-06-09_10h19.43.424,oddball,2022.1.2,60.04138035913312,
20,,,,,0,0,0,3,9,0,9,0,27,0,27,0,,,,,,,,,,,,,,,,,1142.3873887998052,None,1143.0211140997708,1143.6210187999532,1143.604446100071,1145.6051147999242,j,0,0.6125673595815897,2.6132225594483316,increament,0.6,45,standard,None,100,0.8403580002486706,,,,,,,m,20,222,fr,r,0,raw,2022-06-09_10h19.43.424,oddball,2022.1.2,60.04138035913312,
20,,,,,0,0,0,3,9,0,9,0,28,0,28,0,,,,,,,,,,,,,,,,,1145.6220006998628,None,1146.3056393000297,1147.155716800131,1147.1226225998253,1149.123159099836,None,0,0.8461526595056057,2.846672659739852,increament,0.84,47,oddball,j,140,,,,,,,,m,20,222,fr,r,0,raw,2022-06-09_10h19.43.424,oddball,2022.1.2,60.04138035913312,
20,,,,,0,0,0,3,9,0,9,0,29,0,29,0,,,,,,,,,,,,,,,,,1149.1399444998242,None,1149.7734010000713,1150.373951499816,1150.3571422998793,1152.3577863001265,None,1,0.6128996596671641,2.6135294595733285,increament,0.6,45,standard,None,100,,,,,,,,m,20,222,fr,r,0,raw,2022-06-09_10h19.43.424,oddball,2022.1.2,60.04138035913312,
10,,,,,0,1,1,2,0,0,0,0,0,0,0,0,,,,,,,,,,,,,,,1516.6344200000167,None,1525.9158473997377,None,1526.5832171998918,1527.1836586999707,1527.1665110997856,1529.1671886998229,None,1,0.6116882595233619,2.6123303598724306,decreament,0.6,21,standard,None,100,,1332.4096106998622,None,1152.408444199711,None,,,m,20,222,fr,r,0,raw,2022-06-09_10h19.43.424,oddball,2022.1.2,60.04138035913312,
10,,,,,0,1,1,2,0,0,0,0,1,0,1,0,,,,,,,,,,,,,,,,,1529.1841609999537,None,1529.850992999971,1530.4510923000053,1530.4343159999698,1532.4350537001155,None,1,0.6119460598565638,2.6126492600888014,decreament,0.6,21,standard,None,100,,,,,,,,m,20,222,fr,r,0,raw,2022-06-09_10h19.43.424,oddball,2022.1.2,60.04138035913312,
10,,,,,0,1,1,2,0,0,0,0,2,0,2,0,,,,,,,,,,,,,,,,,1532.4516360000707,None,1533.0521346000023,1533.6524962997064,1533.6357076996937,1535.6366208000109,None,1,0.6106430604122579,2.611570860259235,decreament,0.6,21,standard,None,100,,,,,,,,m,20,222,fr,r,0,raw,2022-06-09_10h19.43.424,oddball,2022.1.2,60.04138035913312,
10,,,,,0,1,1,2,0,0,0,0,3,0,3,0,,,,,,,,,,,,,,,,,1535.654155400116,None,1536.3865988999605,1536.9870346998796,1536.9703286001459,1538.9707772997208,None,1,0.6120318598113954,2.612385959830135,decreament,0.6,21,standard,None,100,,,,,,,,m,20,222,fr,r,0,raw,2022-06-09_10h19.43.424,oddball,2022.1.2,60.04138035913312,
10,,,,,0,1,1,2,0,0,0,0,4,0,4,0,,,,,,,,,,,,,,,,,1538.9872471997514,None,1539.6216126000509,1540.2214818997309,1540.204536399804,1542.2055204999633,None,1,0.6115780593827367,2.612867459654808,decreament,0.6,21,standard,None,100,,,,,,,,m,20,222,fr,r,0,raw,2022-06-09_10h19.43.424,oddball,2022.1.2,60.04138035913312,
10,,,,,0,1,1,2,0,0,0,0,5,0,5,0,,,,,,,,,,,,,,,,,1542.2224812000059,None,1542.8724305001087,1543.4722873996943,1543.4558375999331,1545.4564791000448,None,1,0.6114539597183466,2.6121045597828925,decreament,0.6,21,standard,None,100,,,,,,,,m,20,222,fr,r,0,raw,2022-06-09_10h19.43.424,oddball,2022.1.2,60.04138035913312,
10,,,,,0,1,1,2,0,0,0,0,6,0,6,0,,,,,,,,,,,,,,,,,1545.4732697997242,None,1546.1568379998207,1546.757159799803,1546.7407387997955,1548.7412074999884,None,1,0.6125527597032487,2.6130007598549128,decreament,0.6,21,standard,None,100,,,,,,,,m,20,222,fr,r,0,raw,2022-06-09_10h19.43.424,oddball,2022.1.2,60.04138035913312,
10,,,,,0,1,1,2,0,0,0,0,7,0,7,0,,,,,,,,,,,,,,,,,1548.7578288000077,None,1549.4248522999696,1550.02506109979,1550.0085913999937,1552.0093922000378,None,1,0.6097537600435317,2.610512760002166,decreament,0.6,21,standard,None,100,,,,,,,,m,20,222,fr,r,0,raw,2022-06-09_10h19.43.424,oddball,2022.1.2,60.04138035913312,
10,,,,,0,1,1,2,0,0,0,0,8,0,8,0,,,,,,,,,,,,,,,,,1552.025899999775,None,1552.6263597998768,1553.2262033000588,1553.2094859001227,1555.2101380000822,None,1,0.6100098597817123,2.6106254598125815,decreament,0.6,21,standard,None,100,,,,,,,,m,20,222,fr,r,0,raw,2022-06-09_10h19.43.424,oddball,2022.1.2,60.04138035913312,
10,,,,,0,1,1,2,0,0,0,0,9,0,9,0,,,,,,,,,,,,,,,,,1555.2270494997501,None,1555.9273545998149,1556.2939396998845,1556.260792300105,1558.2617588997819,j,1,0.3626791602000594,2.363701759837568,decreament,0.36,23,oddball,j,60,1.0430916999466717,,,,,,,m,20,222,fr,r,0,raw,2022-06-09_10h19.43.424,oddball,2022.1.2,60.04138035913312,
10,,,,,0,1,1,2,0,0,0,0,10,0,10,0,,,,,,,,,,,,,,,,,1558.2784083001316,None,1558.9955993997864,1559.5952423000708,1559.5787952998653,1561.5791215999052,None,1,0.6094733597710729,2.6097752596251667,decreament,0.6,21,standard,None,100,,,,,,,,m,20,222,fr,r,0,raw,2022-06-09_10h19.43.424,oddball,2022.1.2,60.04138035913312,
10,,,,,0,1,1,2,0,0,0,0,11,0,11,0,,,,,,,,,,,,,,,,,1561.5958222998306,None,1562.2297877999954,1562.8302154000849,1562.8132601999678,1564.814400000032,None,1,0.6102935601957142,2.611518060322851,decreament,0.6,21,standard,None,100,,,,,,,,m,20,222,fr,r,0,raw,2022-06-09_10h19.43.424,oddball,2022.1.2,60.04138035913312,
10,,,,,0,1,1,2,0,0,0,0,12,0,12,0,,,,,,,,,,,,,,,,,1564.8313040998764,None,1565.5478400001302,1566.1478766999207,1566.1316327000968,1568.131914800033,None,1,0.6115678595378995,2.611767559312284,decreament,0.6,21,standard,None,100,,,,,,,,m,20,222,fr,r,0,raw,2022-06-09_10h19.43.424,oddball,2022.1.2,60.04138035913312,
10,,,,,0,1,1,2,0,0,0,0,13,0,13,0,,,,,,,,,,,,,,,,,1568.1486818999983,None,1568.7320437999442,1569.332157399971,1569.3156976001337,1571.3166386997327,None,1,0.612998359836638,2.6140044601634145,decreament,0.6,21,standard,None,100,,,,,,,,m,20,222,fr,r,0,raw,2022-06-09_10h19.43.424,oddball,2022.1.2,60.04138035913312,
