grating_freq,blocks_prac.thisRepN,blocks_prac.thisTrialN,blocks_prac.thisN,blocks_prac.thisIndex,blocks.thisRepN,blocks.thisTrialN,blocks.thisN,blocks.thisIndex,repeat_freq.thisRepN,repeat_freq.thisTrialN,repeat_freq.thisN,repeat_freq.thisIndex,trials.thisRepN,trials.thisTrialN,trials.thisN,trials.thisIndex,break_loop.thisRepN,break_loop.thisTrialN,break_loop.thisN,break_loop.thisIndex,rest_loop.thisRepN,rest_loop.thisTrialN,rest_loop.thisN,rest_loop.thisIndex,instruct_prac_text.started,instruct_prac_text.stopped,b_instruct_text_2_.started,b_instruct_text_2_.stopped,prac_done_text.started,prac_done_text.stopped,instruct_text.started,instruct_text.stopped,fixation.started,fixation.stopped,grating.started,grating.stopped,blank.started,blank.stopped,resp.keys,resp.corr,resp.started,resp.stopped,direction,duration,trigger,stim_type,corr_ans,scaling,resp.rt,rest_text.started,rest_text.stopped,text_2.started,text_2.stopped,thx_txt.started,thx_txt.stopped,gender,age,participant,language,main_hand,nBlock_prac,file_suffix,date,expName,psychopyVersion,frameRate,
10,,,,,0,0,0,2,0,0,0,0,0,0,0,0,,,,,,,,,38.1990419998765,None,69.00943129975349,None,112.46402629977092,None,121.37860079994425,None,133.34991250000894,None,133.97334649972618,134.5837086001411,134.53377929981798,136.53458750015125,None,1,0.6096567502245307,2.610478850081563,decreament,0.6,21,standard,None,100,,,,,,,,f,22,223,fr,r,0,raw,2022-06-10_13h20.40.019,oddball,2022.1.2,59.92319052526083,
10,,,,,0,0,0,2,0,0,0,0,1,0,1,0,,,,,,,,,,,,,,,,,136.5513443998061,None,137.13482580007985,137.73516419995576,137.71826099976897,139.7191333998926,None,1,0.6121739502996206,2.613110550213605,decreament,0.6,21,standard,None,100,,,,,,,,f,22,223,fr,r,0,raw,2022-06-10_13h20.40.019,oddball,2022.1.2,59.92319052526083,
10,,,,,0,0,0,2,0,0,0,0,2,0,2,0,,,,,,,,,,,,,,,,,139.73641799995676,None,140.26931859971955,140.86993809975684,140.85366050014272,142.85354109993204,None,1,0.6121054501272738,2.6118721500970423,decreament,0.6,21,standard,None,100,,,,,,,,f,22,223,fr,r,0,raw,2022-06-10_13h20.40.019,oddball,2022.1.2,59.92319052526083,
10,,,,,0,0,0,2,0,0,0,0,3,0,3,0,,,,,,,,,,,,,,,,,142.8703697999008,None,143.45384009974077,144.05422609997913,144.03725429996848,146.03838549973443,None,1,0.6130801499821246,2.614288850221783,decreament,0.6,21,standard,None,100,,,,,,,,f,22,223,fr,r,0,raw,2022-06-10_13h20.40.019,oddball,2022.1.2,59.92319052526083,
10,,,,,0,0,0,2,0,0,0,0,4,0,4,0,,,,,,,,,,,,,,,,,146.05478829983622,None,146.72191869979724,147.32230360014364,147.3053310997784,149.30615429999307,None,1,0.613075649831444,2.613960949704051,decreament,0.6,21,standard,None,100,,,,,,,,f,22,223,fr,r,0,raw,2022-06-10_13h20.40.019,oddball,2022.1.2,59.92319052526083,
10,,,,,0,0,0,2,0,0,0,0,5,0,5,0,,,,,,,,,,,,,,,,,149.32357889972627,None,149.9396442999132,150.53983339993283,150.52315789973363,152.52392229996622,None,1,0.6121593494899571,2.61291194986552,decreament,0.6,21,standard,None,100,,,,,,,,f,22,223,fr,r,0,raw,2022-06-10_13h20.40.019,oddball,2022.1.2,59.92319052526083,
10,,,,,0,0,0,2,0,0,0,0,6,0,6,0,,,,,,,,,,,,,,,,,152.5406721001491,None,153.14105169987306,153.6242956998758,153.60798279987648,155.60848259972408,None,0,0.49437534995377064,2.4948293501511216,decreament,0.48,24,oddball,j,80,,,,,,,,f,22,223,fr,r,0,raw,2022-06-10_13h20.40.019,oddball,2022.1.2,59.92319052526083,
10,,,,,0,0,0,2,0,0,0,0,7,0,7,0,,,,,,,,,,,,,,,,,155.62528820009902,None,156.17524809995666,156.77538699982688,156.75883919978514,158.7598840999417,None,1,0.6142998496070504,2.615436749532819,decreament,0.6,21,standard,None,100,,,,,,,,f,22,223,fr,r,0,raw,2022-06-10_13h20.40.019,oddball,2022.1.2,59.92319052526083,
10,,,,,0,0,0,2,0,0,0,0,8,0,8,0,,,,,,,,,,,,,,,,,158.7766650998965,None,159.37671929970384,159.97698559984565,159.96005029976368,161.96095270011574,None,1,0.6122234496288002,2.6131265494041145,decreament,0.6,21,standard,None,100,,,,,,,,f,22,223,fr,r,0,raw,2022-06-10_13h20.40.019,oddball,2022.1.2,59.92319052526083,
10,,,,,0,0,0,2,0,0,0,0,9,0,9,0,,,,,,,,,,,,,,,,,161.97757870005444,None,162.7279897001572,163.32827309984714,163.3113107001409,165.3121857000515,None,1,0.6121734501793981,2.6130495499819517,decreament,0.6,21,standard,None,100,,,,,,,,f,22,223,fr,r,0,raw,2022-06-10_13h20.40.019,oddball,2022.1.2,59.92319052526083,
10,,,,,0,0,0,2,0,0,0,0,10,0,10,0,,,,,,,,,,,,,,,,,165.32879039971158,None,165.96246299985796,166.5628907000646,166.5458911000751,168.54654789995402,None,1,0.6110564498230815,2.611686549615115,decreament,0.6,21,standard,None,100,,,,,,,,f,22,223,fr,r,0,raw,2022-06-10_13h20.40.019,oddball,2022.1.2,59.92319052526083,
10,,,,,0,0,0,2,0,0,0,0,11,0,11,0,,,,,,,,,,,,,,,,,168.56345429969952,None,169.2636208999902,169.8638621000573,169.8471264000982,171.8481215997599,None,1,0.6116581498645246,2.6127261500805616,decreament,0.6,21,standard,None,100,,,,,,,,f,22,223,fr,r,0,raw,2022-06-10_13h20.40.019,oddball,2022.1.2,59.92319052526083,
10,,,,,0,0,0,2,0,0,0,0,12,0,12,0,,,,,,,,,,,,,,,,,171.86449379986152,None,172.44803609978408,173.0482014999725,173.03167549986392,175.03242809977382,None,1,0.6142635499127209,2.615038849879056,decreament,0.6,21,standard,None,100,,,,,,,,f,22,223,fr,r,0,raw,2022-06-10_13h20.40.019,oddball,2022.1.2,59.92319052526083,
10,,,,,0,0,0,2,0,0,0,0,13,0,13,0,,,,,,,,,,,,,,,,,175.04902709973976,None,175.59893580013886,176.19996899971738,176.18311689980328,178.1833709999919,None,1,0.6149514499120414,2.615110049955547,decreament,0.6,21,standard,None,100,,,,,,,,f,22,223,fr,r,0,raw,2022-06-10_13h20.40.019,oddball,2022.1.2,59.92319052526083,
10,,,,,0,0,0,2,0,0,0,0,14,0,14,0,,,,,,,,,,,,,,,,,178.20010429993272,None,178.76767090009525,179.3672595997341,179.35056849988177,181.35177579987794,None,1,0.6100598503835499,2.611345950048417,decreament,0.6,21,standard,None,100,,,,,,,,f,22,223,fr,r,0,raw,2022-06-10_13h20.40.019,oddball,2022.1.2,59.92319052526083,
10,,,,,0,0,0,2,0,0,0,0,15,0,15,0,,,,,,,,,,,,,,,,,181.3681751000695,None,181.91859399992973,182.5184180000797,182.50173619994894,184.503012499772,None,1,0.6111475499346852,2.6125127500854433,decreament,0.6,21,standard,None,100,,,,,,,,f,22,223,fr,r,0,raw,2022-06-10_13h20.40.019,oddball,2022.1.2,59.92319052526083,
10,,,,,0,0,0,2,0,0,0,0,16,0,16,0,,,,,,,,,,,,,,,,,184.52053519990295,None,185.10299029992893,185.70295149972662,185.68632599990815,187.68717719987035,None,1,0.6111911498010159,2.6120563498698175,decreament,0.6,21,standard,None,100,,,,,,,,f,22,223,fr,r,0,raw,2022-06-10_13h20.40.019,oddball,2022.1.2,59.92319052526083,
10,,,,,0,0,0,2,0,0,0,0,17,0,17,0,,,,,,,,,,,,,,,,,187.7038576998748,None,188.33784369984642,188.58738509984687,188.5543390000239,190.55551749980077,j,1,0.2439375501126051,2.245169950183481,decreament,0.24,22,oddball,j,40,0.41437229979783297,,,,,,,f,22,223,fr,r,0,raw,2022-06-10_13h20.40.019,oddball,2022.1.2,59.92319052526083,
10,,,,,0,0,0,2,0,0,0,0,18,0,18,0,,,,,,,,,,,,,,,,,190.5718569997698,None,191.15530089987442,191.7553790998645,191.73900709999725,193.7393277999945,None,1,0.6125111505389214,2.6127823502756655,decreament,0.6,21,standard,None,100,,,,,,,,f,22,223,fr,r,0,raw,2022-06-10_13h20.40.019,oddball,2022.1.2,59.92319052526083,
10,,,,,0,0,0,2,0,0,0,0,19,0,19,0,,,,,,,,,,,,,,,,,193.75591439986601,None,194.3731458997354,194.9731808998622,194.95713659981266,196.9574327999726,None,1,0.612657249905169,2.6129313497804105,decreament,0.6,21,standard,None,100,,,,,,,,f,22,223,fr,r,0,raw,2022-06-10_13h20.40.019,oddball,2022.1.2,59.92319052526083,
10,,,,,0,0,0,2,0,0,0,0,20,0,20,0,,,,,,,,,,,,,,,,,196.97448180010542,None,197.54125469969586,198.141381399706,198.12447209982201,200.12538379989564,None,1,0.6101996502839029,2.6111119501292706,decreament,0.6,21,standard,None,100,,,,,,,,f,22,223,fr,r,0,raw,2022-06-10_13h20.40.019,oddball,2022.1.2,59.92319052526083,
10,,,,,0,0,0,2,0,0,0,0,21,0,21,0,,,,,,,,,,,,,,,,,200.1419083001092,None,200.89214639971033,201.49276949977502,201.47594249993563,203.4764120001346,None,1,0.6143272500485182,2.6147109498269856,decreament,0.6,21,standard,None,100,,,,,,,,f,22,223,fr,r,0,raw,2022-06-10_13h20.40.019,oddball,2022.1.2,59.92319052526083,
10,,,,,0,0,0,2,0,0,0,0,22,0,22,0,,,,,,,,,,,,,,,,,203.49314330006018,None,204.06009649997577,204.42673949990422,204.393593700137,206.39410430006683,j,1,0.3614617493003607,2.3619738495908678,decreament,0.36,23,oddball,j,60,0.5906025995500386,,,,,,,f,22,223,fr,r,0,raw,2022-06-10_13h20.40.019,oddball,2022.1.2,59.92319052526083,
10,,,,,0,0,0,2,0,0,0,0,23,0,23,0,,,,,,,,,,,,,,,,,206.4111035000533,None,207.2446461999789,207.84486389998347,207.82832149975002,209.8287700000219,None,1,0.6133616496808827,2.6137929498218,decreament,0.6,21,standard,None,100,,,,,,,,f,22,223,fr,r,0,raw,2022-06-10_13h20.40.019,oddball,2022.1.2,59.92319052526083,
10,,,,,0,0,0,2,0,0,0,0,24,0,24,0,,,,,,,,,,,,,,,,,209.84567860001698,None,210.44588309992105,211.04592259973288,211.02966410014778,213.03055949974805,None,1,0.6134315500967205,2.6143237501382828,decreament,0.6,21,standard,None,100,,,,,,,,f,22,223,fr,r,0,raw,2022-06-10_13h20.40.019,oddball,2022.1.2,59.92319052526083,
10,,,,,0,0,0,2,0,0,0,0,25,0,25,0,,,,,,,,,,,,,,,,,213.04677919996902,None,213.63042700011283,214.2305855001323,214.21379179973155,216.2146454998292,None,1,0.612860250286758,2.6137353503145278,decreament,0.6,21,standard,None,100,,,,,,,,f,22,223,fr,r,0,raw,2022-06-10_13h20.40.019,oddball,2022.1.2,59.92319052526083,
10,,,,,0,0,0,2,0,0,0,0,26,0,26,0,,,,,,,,,,,,,,,,,216.2316326997243,None,216.88192480010912,217.48212529998273,217.46532560000196,219.46585289994255,None,1,0.6114961500279605,2.611974849831313,decreament,0.6,21,standard,None,100,,,,,,,,f,22,223,fr,r,0,raw,2022-06-10_13h20.40.019,oddball,2022.1.2,59.92319052526083,
10,,,,,0,0,0,2,0,0,0,0,27,0,27,0,,,,,,,,,,,,,,,,,219.48255159985274,None,220.18273429991677,220.78362399991602,220.76690779998899,222.76765340007842,None,1,0.6152414502575994,2.6159539502114058,decreament,0.6,21,standard,None,100,,,,,,,,f,22,223,fr,r,0,raw,2022-06-10_13h20.40.019,oddball,2022.1.2,59.92319052526083,
10,,,,,0,0,0,2,0,0,0,0,28,0,28,0,,,,,,,,,,,,,,,,,222.78393539972603,None,223.60088959988207,224.20129589969292,224.18484969995916,226.18503909977153,None,1,0.611933350097388,2.612058650236577,decreament,0.6,21,standard,None,100,,,,,,,,f,22,223,fr,r,0,raw,2022-06-10_13h20.40.019,oddball,2022.1.2,59.92319052526083,
10,,,,,0,0,0,2,0,0,0,0,29,0,29,0,,,,,,,,,,,,,,,,,226.2020811997354,None,226.93559509981424,227.53583179973066,227.519289100077,229.51987840002403,None,1,0.6107129501178861,2.6113003501668572,decreament,0.6,21,standard,None,100,,,,,,,,f,22,223,fr,r,0,raw,2022-06-10_13h20.40.019,oddball,2022.1.2,59.92319052526083,
10,,,,,0,0,0,2,1,0,1,0,0,0,0,0,,,,,,,,,,,,,,,239.33034570002928,None,246.79297679988667,None,247.32706360006705,247.92687929980457,247.9104577000253,249.91095779975876,None,1,0.6110221496783197,2.6116186496801674,increament,0.6,25,standard,None,100,,229.53918799990788,None,,,,,f,22,223,fr,r,0,raw,2022-06-10_13h20.40.019,oddball,2022.1.2,59.92319052526083,
10,,,,,0,0,0,2,1,0,1,0,1,0,1,0,,,,,,,,,,,,,,,,,249.92776100011542,None,250.6609284998849,251.26148530002683,251.24509740015492,253.24585009971634,None,1,0.6134631503373384,2.6142150503583252,increament,0.6,25,standard,None,100,,,,,,,,f,22,223,fr,r,0,raw,2022-06-10_13h20.40.019,oddball,2022.1.2,59.92319052526083,
10,,,,,0,0,0,2,1,0,1,0,2,0,2,0,,,,,,,,,,,,,,,,,253.2620031000115,None,253.87930459994823,254.47904390003532,254.4625124000013,256.4634964996949,None,1,0.6125892498530447,2.6136543499305844,increament,0.6,25,standard,None,100,,,,,,,,f,22,223,fr,r,0,raw,2022-06-10_13h20.40.019,oddball,2022.1.2,59.92319052526083,
10,,,,,0,0,0,2,1,0,1,0,3,0,3,0,,,,,,,,,,,,,,,,,256.4800871000625,None,257.0301246996969,257.63059919979423,257.61388840014115,259.6146865999326,None,1,0.6130804498679936,2.613926149904728,increament,0.6,25,standard,None,100,,,,,,,,f,22,223,fr,r,0,raw,2022-06-10_13h20.40.019,oddball,2022.1.2,59.92319052526083,
10,,,,,0,0,0,2,1,0,1,0,4,0,4,0,,,,,,,,,,,,,,,,,259.6313006998971,None,260.16497509973124,260.7651180000976,260.74880870012566,262.7487701000646,None,1,0.6099155498668551,2.6097736498340964,increament,0.6,25,standard,None,100,,,,,,,,f,22,223,fr,r,0,raw,2022-06-10_13h20.40.019,oddball,2022.1.2,59.92319052526083,
10,,,,,0,0,0,2,1,0,1,0,5,0,5,0,,,,,,,,,,,,,,,,,262.76543190004304,None,263.38306559994817,263.98323669983074,263.9664110997692,265.9669690998271,None,1,0.6096864496357739,2.6101454496383667,increament,0.6,25,standard,None,100,,,,,,,,f,22,223,fr,r,0,raw,2022-06-10_13h20.40.019,oddball,2022.1.2,59.92319052526083,
10,,,,,0,0,0,2,1,0,1,0,6,0,6,0,,,,,,,,,,,,,,,,,265.9835322997533,None,266.56737220007926,267.16745509998873,267.1509702000767,269.15136360004544,None,1,0.6110283499583602,2.6113782501779497,increament,0.6,25,standard,None,100,,,,,,,,f,22,223,fr,r,0,raw,2022-06-10_13h20.40.019,oddball,2022.1.2,59.92319052526083,
10,,,,,0,0,0,2,1,0,1,0,7,0,7,0,,,,,,,,,,,,,,,,,269.16801329981536,None,269.8185678999871,270.78553979983553,270.7520500998944,272.7530124001205,j,1,0.9612584500573575,2.9622753500007093,increament,0.96,28,oddball,j,160,0.5672348998486996,,,,,,,f,22,223,fr,r,0,raw,2022-06-10_13h20.40.019,oddball,2022.1.2,59.92319052526083,
10,,,,,0,0,0,2,1,0,1,0,8,0,8,0,,,,,,,,,,,,,,,,,272.7708314000629,None,273.5029406999238,274.1032708999701,274.0865342998877,276.0878897998482,None,1,0.6133986497297883,2.6148451501503587,increament,0.6,25,standard,None,100,,,,,,,,f,22,223,fr,r,0,raw,2022-06-10_13h20.40.019,oddball,2022.1.2,59.92319052526083,
10,,,,,0,0,0,2,1,0,1,0,9,0,9,0,,,,,,,,,,,,,,,,,276.10397480009124,None,276.90429800003767,277.5047985999845,277.4880764000118,279.48901839973405,None,1,0.6127863493748009,2.6137285493314266,increament,0.6,25,standard,None,100,,,,,,,,f,22,223,fr,r,0,raw,2022-06-10_13h20.40.019,oddball,2022.1.2,59.92319052526083,
10,,,,,0,0,0,2,1,0,1,0,10,0,10,0,,,,,,,,,,,,,,,,,279.5054763997905,None,280.0723943999037,280.6725511001423,280.6562425000593,282.6567222001031,None,1,0.6123048500157893,2.6127632497809827,increament,0.6,25,standard,None,100,,,,,,,,f,22,223,fr,r,0,raw,2022-06-10_13h20.40.019,oddball,2022.1.2,59.92319052526083,
10,,,,,0,0,0,2,1,0,1,0,11,0,11,0,,,,,,,,,,,,,,,,,282.6731209997088,None,283.3570630000904,283.9570184000768,283.9402990997769,285.94115999992937,None,1,0.6092748497612774,2.610146349761635,increament,0.6,25,standard,None,100,,,,,,,,f,22,223,fr,r,0,raw,2022-06-10_13h20.40.019,oddball,2022.1.2,59.92319052526083,
10,,,,,0,0,0,2,1,0,1,0,12,0,12,0,,,,,,,,,,,,,,,,,285.9577337997034,None,286.6247217999771,287.2251805998385,287.20843569980934,289.2094330997206,None,1,0.6127295503392816,2.6136909504421055,increament,0.6,25,standard,None,100,,,,,,,,f,22,223,fr,r,0,raw,2022-06-10_13h20.40.019,oddball,2022.1.2,59.92319052526083,
10,,,,,0,0,0,2,1,0,1,0,13,0,13,0,,,,,,,,,,,,,,,,,289.2254761001095,None,289.82604940002784,290.4258869998157,290.4093618998304,292.41032070014626,None,1,0.6130488496273756,2.6140669495798647,increament,0.6,25,standard,None,100,,,,,,,,f,22,223,fr,r,0,raw,2022-06-10_13h20.40.019,oddball,2022.1.2,59.92319052526083,
10,,,,,0,0,0,2,1,0,1,0,14,0,14,0,,,,,,,,,,,,,,,,,292.42690289998427,None,293.21043459977955,293.8111950000748,293.7940640999004,295.7950201998465,None,1,0.6133540500886738,2.6143278502859175,increament,0.6,25,standard,None,100,,,,,,,,f,22,223,fr,r,0,raw,2022-06-10_13h20.40.019,oddball,2022.1.2,59.92319052526083,
10,,,,,0,0,0,2,1,0,1,0,15,0,15,0,,,,,,,,,,,,,,,,,295.8115205001086,None,296.51154599990696,297.24545039981604,297.2124928999692,299.2129060998559,j,1,0.7317414502613246,2.7321076500229537,increament,0.72,26,oddball,j,120,0.7952374997548759,,,,,,,f,22,223,fr,r,0,raw,2022-06-10_13h20.40.019,oddball,2022.1.2,59.92319052526083,
10,,,,,0,0,0,2,1,0,1,0,16,0,16,0,,,,,,,,,,,,,,,,,299.2297033998184,None,299.94660229980946,300.5472351000644,300.5303114997223,302.5313061000779,None,1,0.6105536497198045,2.6115491497330368,increament,0.6,25,standard,None,100,,,,,,,,f,22,223,fr,r,0,raw,2022-06-10_13h20.40.019,oddball,2022.1.2,59.92319052526083,
10,,,,,0,0,0,2,1,0,1,0,17,0,17,0,,,,,,,,,,,,,,,,,302.54744460014626,None,303.1812934000045,303.7813701997511,303.7647710000165,305.7652849997394,None,1,0.6092572500929236,2.609727350063622,increament,0.6,25,standard,None,100,,,,,,,,f,22,223,fr,r,0,raw,2022-06-10_13h20.40.019,oddball,2022.1.2,59.92319052526083,
10,,,,,0,0,0,2,1,0,1,0,18,0,18,0,,,,,,,,,,,,,,,,,305.78225209983066,None,306.4319607000798,307.032627500128,307.01606049994007,309.0166277997196,None,1,0.6146006500348449,2.6151700504124165,increament,0.6,25,standard,None,100,,,,,,,,f,22,223,fr,r,0,raw,2022-06-10_13h20.40.019,oddball,2022.1.2,59.92319052526083,
10,,,,,0,0,0,2,1,0,1,0,19,0,19,0,,,,,,,,,,,,,,,,,309.03355700010434,None,309.5501484000124,310.15032859984785,310.1335227997042,312.13453149981797,None,1,0.6123449504375458,2.6135119502432644,increament,0.6,25,standard,None,100,,,,,,,,f,22,223,fr,r,0,raw,2022-06-10_13h20.40.019,oddball,2022.1.2,59.92319052526083,
10,,,,,0,0,0,2,1,0,1,0,20,0,20,0,,,,,,,,,,,,,,,,,312.1512585999444,None,312.8849975001067,313.73500269977376,313.70176779991016,315.7023148997687,j,1,0.8450072505511343,2.845509050413966,increament,0.84,27,oddball,j,140,0.5068223001435399,,,,,,,f,22,223,fr,r,0,raw,2022-06-10_13h20.40.019,oddball,2022.1.2,59.92319052526083,
10,,,,,0,0,0,2,1,0,1,0,21,0,21,0,,,,,,,,,,,,,,,,,315.71928700013086,None,316.4360126997344,317.03629820002243,317.01974199991673,319.02056480012834,None,1,0.6127322502434254,2.613541250117123,increament,0.6,25,standard,None,100,,,,,,,,f,22,223,fr,r,0,raw,2022-06-10_13h20.40.019,oddball,2022.1.2,59.92319052526083,
10,,,,,0,0,0,2,1,0,1,0,22,0,22,0,,,,,,,,,,,,,,,,,319.0373796997592,None,319.57053179992363,320.17084789974615,320.15424840012565,322.1547234999016,None,1,0.6134966495446861,2.613946749828756,increament,0.6,25,standard,None,100,,,,,,,,f,22,223,fr,r,0,raw,2022-06-10_13h20.40.019,oddball,2022.1.2,59.92319052526083,
10,,,,,0,0,0,2,1,0,1,0,23,0,23,0,,,,,,,,,,,,,,,,,322.1716184997931,None,322.8552139000967,323.455229899846,323.4387737000361,325.4398682001047,None,1,0.6129124499857426,2.6140863499604166,increament,0.6,25,standard,None,100,,,,,,,,f,22,223,fr,r,0,raw,2022-06-10_13h20.40.019,oddball,2022.1.2,59.92319052526083,
10,,,,,0,0,0,2,1,0,1,0,24,0,24,0,,,,,,,,,,,,,,,,,325.4563591997139,None,326.27312280004844,326.87311920011416,326.8568652998656,328.8570388997905,None,1,0.6123057501390576,2.612428450025618,increament,0.6,25,standard,None,100,,,,,,,,f,22,223,fr,r,0,raw,2022-06-10_13h20.40.019,oddball,2022.1.2,59.92319052526083,
10,,,,,0,0,0,2,1,0,1,0,25,0,25,0,,,,,,,,,,,,,,,,,328.8737699999474,None,329.5743859000504,330.1744276997633,330.1579633001238,332.1585709997453,None,1,0.6123502501286566,2.612951749935746,increament,0.6,25,standard,None,100,,,,,,,,f,22,223,fr,r,0,raw,2022-06-10_13h20.40.019,oddball,2022.1.2,59.92319052526083,
10,,,,,0,0,0,2,1,0,1,0,26,0,26,0,,,,,,,,,,,,,,,,,332.17528389999643,None,332.8254061001353,333.425737099722,333.4090311001055,335.40974469995126,None,1,0.6143935499712825,2.615105949807912,increament,0.6,25,standard,None,100,,,,,,,,f,22,223,fr,r,0,raw,2022-06-10_13h20.40.019,oddball,2022.1.2,59.92319052526083,
10,,,,,0,0,0,2,1,0,1,0,27,0,27,0,,,,,,,,,,,,,,,,,335.426427599974,None,336.07698669983074,336.6771399998106,336.66039509978145,338.6610543001443,None,1,0.6110199498943985,2.6117009497247636,increament,0.6,25,standard,None,100,,,,,,,,f,22,223,fr,r,0,raw,2022-06-10_13h20.40.019,oddball,2022.1.2,59.92319052526083,
10,,,,,0,0,0,2,1,0,1,0,28,0,28,0,,,,,,,,,,,,,,,,,338.6778560997918,None,339.32846480002627,339.9283345998265,339.9119981001131,341.9121608999558,None,1,0.6119735497049987,2.611996649764478,increament,0.6,25,standard,None,100,,,,,,,,f,22,223,fr,r,0,raw,2022-06-10_13h20.40.019,oddball,2022.1.2,59.92319052526083,
10,,,,,0,0,0,2,1,0,1,0,29,0,29,0,,,,,,,,,,,,,,,,,341.92874579969794,None,342.6123917000368,343.2125017000362,343.19639689987525,345.19681579992175,None,1,0.6125560505315661,2.6129783503711224,increament,0.6,25,standard,None,100,,,,,,,,f,22,223,fr,r,0,raw,2022-06-10_13h20.40.019,oddball,2022.1.2,59.92319052526083,
10,,,,,0,0,0,2,2,0,2,0,0,0,0,0,,,,,,,,,,,,,,,357.00875099981204,None,360.0858398997225,None,360.81978349993005,361.42001360002905,361.4031424000859,363.40391859970987,None,1,0.608056949917227,2.608785250224173,decreament,0.6,21,standard,None,100,,345.2137269000523,None,,,,,f,22,223,fr,r,0,raw,2022-06-10_13h20.40.019,oddball,2022.1.2,59.92319052526083,
10,,,,,0,0,0,2,2,0,2,0,1,0,1,0,,,,,,,,,,,,,,,,,363.4204345000908,None,364.1876102001406,364.7875009998679,364.7709782999009,366.77187500009313,None,1,0.6120468494482338,2.612999249715358,decreament,0.6,21,standard,None,100,,,,,,,,f,22,223,fr,r,0,raw,2022-06-10_13h20.40.019,oddball,2022.1.2,59.92319052526083,
10,,,,,0,0,0,2,2,0,2,0,2,0,2,0,,,,,,,,,,,,,,,,,366.7892184997909,None,367.38861479982734,367.9893383998424,367.9723423998803,369.9727900000289,None,1,0.6138941501267254,2.614291749894619,decreament,0.6,21,standard,None,100,,,,,,,,f,22,223,fr,r,0,raw,2022-06-10_13h20.40.019,oddball,2022.1.2,59.92319052526083,
10,,,,,0,0,0,2,2,0,2,0,3,0,3,0,,,,,,,,,,,,,,,,,369.9895325000398,None,370.6232316000387,371.2237689998001,371.20706099970266,373.2074098000303,None,1,0.6114123505540192,2.611692350357771,decreament,0.6,21,standard,None,100,,,,,,,,f,22,223,fr,r,0,raw,2022-06-10_13h20.40.019,oddball,2022.1.2,59.92319052526083,
10,,,,,0,0,0,2,2,0,2,0,4,0,4,0,,,,,,,,,,,,,,,,,373.224197300151,None,373.84110799990594,374.4410661999136,374.4244929999113,376.4251159001142,None,1,0.6128457500599325,2.6134739499539137,decreament,0.6,21,standard,None,100,,,,,,,,f,22,223,fr,r,0,raw,2022-06-10_13h20.40.019,oddball,2022.1.2,59.92319052526083,
10,,,,,0,0,0,2,2,0,2,0,5,0,5,0,,,,,,,,,,,,,,,,,376.4419487998821,None,377.1593817998655,377.7591300997883,377.7428616997786,379.74310800014064,None,1,0.6120571498759091,2.612228650134057,decreament,0.6,21,standard,None,100,,,,,,,,f,22,223,fr,r,0,raw,2022-06-10_13h20.40.019,oddball,2022.1.2,59.92319052526083,
10,,,,,0,0,0,2,2,0,2,0,6,0,6,0,,,,,,,,,,,,,,,,,379.76021299976856,None,380.39355110004544,380.76021659979597,380.7272549998015,382.7279897998087,j,1,0.36273775016888976,2.363492750097066,decreament,0.36,23,oddball,j,60,0.751692300196737,,,,,,,f,22,223,fr,r,0,raw,2022-06-10_13h20.40.019,oddball,2022.1.2,59.92319052526083,
10,,,,,0,0,0,2,2,0,2,0,7,0,7,0,,,,,,,,,,,,,,,,,382.74448049999774,None,383.52799759991467,384.12850819993764,384.1120270998217,386.1124644000083,None,1,0.613402749877423,2.613806350156665,decreament,0.6,21,standard,None,100,,,,,,,,f,22,223,fr,r,0,raw,2022-06-10_13h20.40.019,oddball,2022.1.2,59.92319052526083,
10,,,,,0,0,0,2,2,0,2,0,8,0,8,0,,,,,,,,,,,,,,,,,386.12913150014356,None,386.77924629999325,387.37945719994605,387.36303360015154,389.3638801998459,None,1,0.6127984505146742,2.613721050322056,decreament,0.6,21,standard,None,100,,,,,,,,f,22,223,fr,r,0,raw,2022-06-10_13h20.40.019,oddball,2022.1.2,59.92319052526083,
10,,,,,0,0,0,2,2,0,2,0,9,0,9,0,,,,,,,,,,,,,,,,,389.3810010999441,None,390.0473193000071,390.64740070002154,390.6307533001527,392.63134719990194,None,1,0.6139612505212426,2.6145238503813744,decreament,0.6,21,standard,None,100,,,,,,,,f,22,223,fr,r,0,raw,2022-06-10_13h20.40.019,oddball,2022.1.2,59.92319052526083,
10,,,,,0,0,0,2,2,0,2,0,10,0,10,0,,,,,,,,,,,,,,,,,392.64791909977794,None,393.2985247001052,393.8992158998735,393.8821280999109,395.8830585000105,None,1,0.6113839498721063,2.6122604496777058,decreament,0.6,21,standard,None,100,,,,,,,,f,22,223,fr,r,0,raw,2022-06-10_13h20.40.019,oddball,2022.1.2,59.92319052526083,
10,,,,,0,0,0,2,2,0,2,0,11,0,11,0,,,,,,,,,,,,,,,,,395.89942569984123,None,396.46642749989405,396.7165532000363,396.6830195998773,398.68387479986995,j,1,0.2443626499734819,2.2452185503207147,decreament,0.24,22,oddball,j,40,0.5650239000096917,,,,,,,f,22,223,fr,r,0,raw,2022-06-10_13h20.40.019,oddball,2022.1.2,59.92319052526083,
10,,,,,0,0,0,2,2,0,2,0,12,0,12,0,,,,,,,,,,,,,,,,,398.7017101999372,None,399.3341089999303,399.93422849988565,399.91767589980736,401.91805499978364,None,1,0.6136439498513937,2.613990650046617,decreament,0.6,21,standard,None,100,,,,,,,,f,22,223,fr,r,0,raw,2022-06-10_13h20.40.019,oddball,2022.1.2,59.92319052526083,
10,,,,,0,0,0,2,2,0,2,0,13,0,13,0,,,,,,,,,,,,,,,,,401.9347365000285,None,402.73509529978037,403.3357675001025,403.3190890997648,405.3196557997726,None,1,0.6135562495328486,2.6141058495268226,decreament,0.6,21,standard,None,100,,,,,,,,f,22,223,fr,r,0,raw,2022-06-10_13h20.40.019,oddball,2022.1.2,59.92319052526083,
10,,,,,0,0,0,2,2,0,2,0,14,0,14,0,,,,,,,,,,,,,,,,,405.3362716999836,None,405.9199517997913,406.51999530009925,406.50362249976024,408.5041772001423,None,1,0.6119652497582138,2.6125405495986342,decreament,0.6,21,standard,None,100,,,,,,,,f,22,223,fr,r,0,raw,2022-06-10_13h20.40.019,oddball,2022.1.2,59.92319052526083,
10,,,,,0,0,0,2,2,0,2,0,15,0,15,0,,,,,,,,,,,,,,,,,408.52107049990445,None,409.2046114997938,409.6879108999856,409.67147219972685,None,j,1,0.4791275500319898,2.479424349963665,decreament,0.48,24,oddball,j,80,0.9851816999725997,,,,,,,f,22,223,fr,r,0,raw,2022-06-10_13h20.40.019,oddball,2022.1.2,59.92319052526083,
10,,,,,0,0,0,2,2,0,2,0,16,0,16,0,,,,,,,,,,,,,,,,,411.67184880003333,None,412.18922289973125,412.789082699921,412.77266829973087,414.7732878997922,None,1,0.6098059499636292,2.6104172500781715,decreament,0.6,21,standard,None,100,,,,,,,,f,22,223,fr,r,0,raw,2022-06-10_13h20.40.019,oddball,2022.1.2,59.92319052526083,
10,,,,,0,0,0,2,2,0,2,0,17,0,17,0,,,,,,,,,,,,,,,,,414.7900865999982,None,415.3406241997145,415.94008720014244,415.9235231997445,417.9243336999789,None,1,0.6116378498263657,2.612489650025964,decreament,0.6,21,standard,None,100,,,,,,,,f,22,223,fr,r,0,raw,2022-06-10_13h20.40.019,oddball,2022.1.2,59.92319052526083,
10,,,,,0,0,0,2,2,0,2,0,18,0,18,0,,,,,,,,,,,,,,,,,417.9413549997844,None,418.6582132000476,419.25799610000104,419.24134649988264,421.24221140006557,None,1,0.6112936497665942,2.61215844983235,decreament,0.6,21,standard,None,100,,,,,,,,f,22,223,fr,r,0,raw,2022-06-10_13h20.40.019,oddball,2022.1.2,59.92319052526083,
10,,,,,0,0,0,2,2,0,2,0,19,0,19,0,,,,,,,,,,,,,,,,,421.2590211001225,None,421.9259067000821,422.5265107997693,422.5097745000385,424.5101354997605,None,1,0.6126548498868942,2.6129440497606993,decreament,0.6,21,standard,None,100,,,,,,,,f,22,223,fr,r,0,raw,2022-06-10_13h20.40.019,oddball,2022.1.2,59.92319052526083,
10,,,,,0,0,0,2,2,0,2,0,20,0,20,0,,,,,,,,,,,,,,,,,424.5271648000926,None,425.0602488000877,425.6608091001399,425.64437949983403,427.6449297997169,None,1,0.6146926498040557,2.6151816500350833,decreament,0.6,21,standard,None,100,,,,,,,,f,22,223,fr,r,0,raw,2022-06-10_13h20.40.019,oddball,2022.1.2,59.92319052526083,
10,,,,,0,0,0,2,2,0,2,0,21,0,21,0,,,,,,,,,,,,,,,,,427.66173709975556,None,428.261962399818,428.8618394001387,428.84499479969963,430.8462106999941,None,1,0.6108575500547886,2.6121619497425854,decreament,0.6,21,standard,None,100,,,,,,,,f,22,223,fr,r,0,raw,2022-06-10_13h20.40.019,oddball,2022.1.2,59.92319052526083,
10,,,,,0,0,0,2,2,0,2,0,22,0,22,0,,,,,,,,,,,,,,,,,430.862780299969,None,431.4460236998275,432.04643640015274,432.03028819989413,434.0306040998548,None,1,0.6147672501392663,2.615039249882102,decreament,0.6,21,standard,None,100,,,,,,,,f,22,223,fr,r,0,raw,2022-06-10_13h20.40.019,oddball,2022.1.2,59.92319052526083,
10,,,,,0,0,0,2,2,0,2,0,23,0,23,0,,,,,,,,,,,,,,,,,434.0475832000375,None,434.86414369987324,435.46479990007356,435.44802529970184,437.4487489000894,None,1,0.6133825499564409,2.6140903499908745,decreament,0.6,21,standard,None,100,,,,,,,,f,22,223,fr,r,0,raw,2022-06-10_13h20.40.019,oddball,2022.1.2,59.92319052526083,
10,,,,,0,0,0,2,2,0,2,0,24,0,24,0,,,,,,,,,,,,,,,,,437.465214099735,None,438.165528499987,438.76565589988604,438.74904719972983,440.75020280014724,None,1,0.6133472505025566,2.614556850399822,decreament,0.6,21,standard,None,100,,,,,,,,f,22,223,fr,r,0,raw,2022-06-10_13h20.40.019,oddball,2022.1.2,59.92319052526083,
10,,,,,0,0,0,2,2,0,2,0,25,0,25,0,,,,,,,,,,,,,,,,,440.7670219996944,None,441.3166529000737,441.9167968998663,441.90033750003204,443.90081139979884,None,1,0.6127791497856379,2.6132447496056557,decreament,0.6,21,standard,None,100,,,,,,,,f,22,223,fr,r,0,raw,2022-06-10_13h20.40.019,oddball,2022.1.2,59.92319052526083,
10,,,,,0,0,0,2,2,0,2,0,26,0,26,0,,,,,,,,,,,,,,,,,443.91786659974605,None,444.5343609000556,445.13466659979895,445.11795469978824,447.1189751001075,None,1,0.6133308499120176,2.6144094499759376,decreament,0.6,21,standard,None,100,,,,,,,,f,22,223,fr,r,0,raw,2022-06-10_13h20.40.019,oddball,2022.1.2,59.92319052526083,
10,,,,,0,0,0,2,2,0,2,0,27,0,27,0,,,,,,,,,,,,,,,,,447.1356923999265,None,447.65265379985794,448.2527402997948,448.2358711999841,450.2370262998156,None,1,0.609529749955982,2.6107300496660173,decreament,0.6,21,standard,None,100,,,,,,,,f,22,223,fr,r,0,raw,2022-06-10_13h20.40.019,oddball,2022.1.2,59.92319052526083,
10,,,,,0,0,0,2,2,0,2,0,28,0,28,0,,,,,,,,,,,,,,,,,450.25350870005786,None,450.98706830013543,451.58712849998847,451.57061399985105,453.57120049977675,None,1,0.6115653500892222,2.612127050291747,decreament,0.6,21,standard,None,100,,,,,,,,f,22,223,fr,r,0,raw,2022-06-10_13h20.40.019,oddball,2022.1.2,59.92319052526083,
10,,,,,0,0,0,2,2,0,2,0,29,0,29,0,,,,,,,,,,,,,,,,,453.5880853999406,None,454.17216360010207,454.77154729980975,454.75532259978354,456.75612160004675,None,1,0.6083490499295294,2.609270750079304,decreament,0.6,21,standard,None,100,,,,,,,,f,22,223,fr,r,0,raw,2022-06-10_13h20.40.019,oddball,2022.1.2,59.92319052526083,
10,,,,,0,0,0,2,3,0,3,0,0,0,0,0,,,,,,,,,,,,,,,467.85115869995207,None,471.67785959970206,None,472.3949357001111,472.9952495000325,472.97924969997257,474.9791884999722,None,1,0.6139413500204682,2.6137805501930416,increament,0.6,25,standard,None,100,,456.7738111000508,None,,,,,f,22,223,fr,r,0,raw,2022-06-10_13h20.40.019,oddball,2022.1.2,59.92319052526083,
10,,,,,0,0,0,2,3,0,3,0,1,0,1,0,,,,,,,,,,,,,,,,,474.9957917998545,None,475.63018500013277,476.2299122000113,476.21304429974407,478.2143509001471,None,1,0.608561750035733,2.6099384501576424,increament,0.6,25,standard,None,100,,,,,,,,f,22,223,fr,r,0,raw,2022-06-10_13h20.40.019,oddball,2022.1.2,59.92319052526083,
10,,,,,0,0,0,2,3,0,3,0,2,0,2,0,,,,,,,,,,,,,,,,,478.2305426001549,None,478.8642432000488,479.4643308999948,479.44765280000865,481.4488222999498,None,1,0.6114175501279533,2.612614349927753,increament,0.6,25,standard,None,100,,,,,,,,f,22,223,fr,r,0,raw,2022-06-10_13h20.40.019,oddball,2022.1.2,59.92319052526083,
10,,,,,0,0,0,2,3,0,3,0,3,0,3,0,,,,,,,,,,,,,,,,,481.4651214997284,None,482.1822084998712,482.78233220009133,482.76558610005304,484.7665776000358,None,1,0.6110967504791915,2.6121215503662825,increament,0.6,25,standard,None,100,,,,,,,,f,22,223,fr,r,0,raw,2022-06-10_13h20.40.019,oddball,2022.1.2,59.92319052526083,
10,,,,,0,0,0,2,3,0,3,0,4,0,4,0,,,,,,,,,,,,,,,,,484.78314690012485,None,485.36683799978346,485.9667429998517,485.9504223000258,487.95087829977274,None,1,0.612151550129056,2.612587850075215,increament,0.6,25,standard,None,100,,,,,,,,f,22,223,fr,r,0,raw,2022-06-10_13h20.40.019,oddball,2022.1.2,59.92319052526083,
10,,,,,0,0,0,2,3,0,3,0,5,0,5,0,,,,,,,,,,,,,,,,,487.96767359972,None,488.68473570002243,489.4179690000601,489.38504910003394,491.3856083997525,None,0,0.7286494495347142,2.7292158496566117,increament,0.72,26,oddball,j,120,,,,,,,,f,22,223,fr,r,0,raw,2022-06-10_13h20.40.019,oddball,2022.1.2,59.92319052526083,
10,,,,,0,0,0,2,3,0,3,0,6,0,6,0,,,,,,,,,,,,,,,,,491.40246749995276,None,492.1525880997069,492.7525883000344,492.73631349997595,494.73680440010503,None,1,0.6124218502081931,2.6129369498230517,increament,0.6,25,standard,None,100,,,,,,,,f,22,223,fr,r,0,raw,2022-06-10_13h20.40.019,oddball,2022.1.2,59.92319052526083,
10,,,,,0,0,0,2,3,0,3,0,7,0,7,0,,,,,,,,,,,,,,,,,494.7539339000359,None,495.47100429981947,496.07065979996696,496.05425809975713,498.0548159996979,None,1,0.6094626500271261,2.60998975019902,increament,0.6,25,standard,None,100,,,,,,,,f,22,223,fr,r,0,raw,2022-06-10_13h20.40.019,oddball,2022.1.2,59.92319052526083,
10,,,,,0,0,0,2,3,0,3,0,8,0,8,0,,,,,,,,,,,,,,,,,498.07138939993456,None,498.621777900029,499.22209580009803,499.2054924997501,501.20573069993407,None,1,0.6136049502529204,2.6137391505762935,increament,0.6,25,standard,None,100,,,,,,,,f,22,223,fr,r,0,raw,2022-06-10_13h20.40.019,oddball,2022.1.2,59.92319052526083,
10,,,,,0,0,0,2,3,0,3,0,9,0,9,0,,,,,,,,,,,,,,,,,501.2225945000537,None,501.85648689977825,502.45656780013815,502.43984719971195,504.4410079000518,None,1,0.6093811499886215,2.6106300498358905,increament,0.6,25,standard,None,100,,,,,,,,f,22,223,fr,r,0,raw,2022-06-10_13h20.40.019,oddball,2022.1.2,59.92319052526083,
10,,,,,0,0,0,2,3,0,3,0,10,0,10,0,,,,,,,,,,,,,,,,,504.45783959981054,None,505.24083419982344,505.84102059993893,505.82438190001994,507.8251489000395,None,1,0.6118644499219954,2.6126063498668373,increament,0.6,25,standard,None,100,,,,,,,,f,22,223,fr,r,0,raw,2022-06-10_13h20.40.019,oddball,2022.1.2,59.92319052526083,
10,,,,,0,0,0,2,3,0,3,0,11,0,11,0,,,,,,,,,,,,,,,,,507.84176719980314,None,508.558778999839,509.15907329972833,509.1422727997415,511.14324190001935,None,1,0.6118407500907779,2.612721649929881,increament,0.6,25,standard,None,100,,,,,,,,f,22,223,fr,r,0,raw,2022-06-10_13h20.40.019,oddball,2022.1.2,59.92319052526083,
10,,,,,0,0,0,2,3,0,3,0,12,0,12,0,,,,,,,,,,,,,,,,,511.1596308001317,None,511.7600596998818,512.3601847998798,512.3438701997511,514.3446479998529,None,1,0.6127960500307381,2.6136085498146713,increament,0.6,25,standard,None,100,,,,,,,,f,22,223,fr,r,0,raw,2022-06-10_13h20.40.019,oddball,2022.1.2,59.92319052526083,
10,,,,,0,0,0,2,3,0,3,0,13,0,13,0,,,,,,,,,,,,,,,,,514.3614411000162,None,514.9111830997281,515.5118487998843,515.4949900000356,517.4953348999843,None,1,0.6126683503389359,2.6129184500314295,increament,0.6,25,standard,None,100,,,,,,,,f,22,223,fr,r,0,raw,2022-06-10_13h20.40.019,oddball,2022.1.2,59.92319052526083,
10,,,,,0,0,0,2,3,0,3,0,14,0,14,0,,,,,,,,,,,,,,,,,517.5119420997798,None,518.1792299998924,518.779256799724,518.7626335998066,520.7634203000925,None,1,0.6117404499091208,2.612520749680698,increament,0.6,25,standard,None,100,,,,,,,,f,22,223,fr,r,0,raw,2022-06-10_13h20.40.019,oddball,2022.1.2,59.92319052526083,
10,,,,,0,0,0,2,3,0,3,0,15,0,15,0,,,,,,,,,,,,,,,,,520.7803408000618,None,521.3138919998892,521.9139525997452,521.8974838000722,523.8979587000795,None,1,0.6098659499548376,2.610354349948466,increament,0.6,25,standard,None,100,,,,,,,,f,22,223,fr,r,0,raw,2022-06-10_13h20.40.019,oddball,2022.1.2,59.92319052526083,
10,,,,,0,0,0,2,3,0,3,0,16,0,16,0,,,,,,,,,,,,,,,,,523.9146340000443,None,524.5980945001356,525.1983326999471,525.181905400008,527.1826752000488,None,1,0.6132383500225842,2.6139794499613345,increament,0.6,25,standard,None,100,,,,,,,,f,22,223,fr,r,0,raw,2022-06-10_13h20.40.019,oddball,2022.1.2,59.92319052526083,
10,,,,,0,0,0,2,3,0,3,0,17,0,17,0,,,,,,,,,,,,,,,,,527.1994750001468,None,527.7495720000006,528.3496840000153,528.3331649997272,530.3336076000705,None,1,0.6125775501132011,2.612994249910116,increament,0.6,25,standard,None,100,,,,,,,,f,22,223,fr,r,0,raw,2022-06-10_13h20.40.019,oddball,2022.1.2,59.92319052526083,
10,,,,,0,0,0,2,3,0,3,0,18,0,18,0,,,,,,,,,,,,,,,,,530.3504038001411,None,531.0673408997245,531.6675324998796,531.6507700998336,533.6511953999288,None,1,0.6127742500975728,2.613380250055343,increament,0.6,25,standard,None,100,,,,,,,,f,22,223,fr,r,0,raw,2022-06-10_13h20.40.019,oddball,2022.1.2,59.92319052526083,
10,,,,,0,0,0,2,3,0,3,0,19,0,19,0,,,,,,,,,,,,,,,,,533.6678542997688,None,534.3851324999705,534.9851345997304,534.9684950001538,536.9695008997805,None,1,0.6092938506044447,2.610354750417173,increament,0.6,25,standard,None,100,,,,,,,,f,22,223,fr,r,0,raw,2022-06-10_13h20.40.019,oddball,2022.1.2,59.92319052526083,
10,,,,,0,0,0,2,3,0,3,0,20,0,20,0,,,,,,,,,,,,,,,,,536.986403899733,None,537.6193963000551,538.5866863997653,538.5535920998082,540.5543750999495,j,1,0.9649903499521315,2.9658462502993643,increament,0.96,28,oddball,j,160,0.42957319971174,,,,,,,f,22,223,fr,r,0,raw,2022-06-10_13h20.40.019,oddball,2022.1.2,59.92319052526083,
10,,,,,0,0,0,2,3,0,3,0,21,0,21,0,,,,,,,,,,,,,,,,,540.5712155997753,None,541.2379955998622,541.8379700998776,541.821837299969,543.8220016998239,None,1,0.613563449587673,2.613645549863577,increament,0.6,25,standard,None,100,,,,,,,,f,22,223,fr,r,0,raw,2022-06-10_13h20.40.019,oddball,2022.1.2,59.92319052526083,
10,,,,,0,0,0,2,3,0,3,0,22,0,22,0,,,,,,,,,,,,,,,,,543.8386773997918,None,544.45589140011,545.0559779996984,545.0392235000618,547.0399058000185,None,1,0.6125387502834201,2.6132196499966085,increament,0.6,25,standard,None,100,,,,,,,,f,22,223,fr,r,0,raw,2022-06-10_13h20.40.019,oddball,2022.1.2,59.92319052526083,
10,,,,,0,0,0,2,3,0,3,0,23,0,23,0,,,,,,,,,,,,,,,,,547.0567377000116,None,547.7068459000438,548.3071502000093,548.2908371998928,550.2915248000063,None,1,0.613039749674499,2.613763349596411,increament,0.6,25,standard,None,100,,,,,,,,f,22,223,fr,r,0,raw,2022-06-10_13h20.40.019,oddball,2022.1.2,59.92319052526083,
10,,,,,0,0,0,2,3,0,3,0,24,0,24,0,,,,,,,,,,,,,,,,,550.3079145001248,None,550.8579735998064,551.458343599923,551.4417554000393,553.4426374998875,None,1,0.6125185498967767,2.613481150008738,increament,0.6,25,standard,None,100,,,,,,,,f,22,223,fr,r,0,raw,2022-06-10_13h20.40.019,oddball,2022.1.2,59.92319052526083,
10,,,,,0,0,0,2,3,0,3,0,25,0,25,0,,,,,,,,,,,,,,,,,553.4593082000501,None,554.0932533000596,554.9431858998723,554.9099098998122,556.9103111000732,j,1,0.8432082496583462,2.843563349917531,increament,0.84,27,oddball,j,140,0.5532003003172576,,,,,,,f,22,223,fr,r,0,raw,2022-06-10_13h20.40.019,oddball,2022.1.2,59.92319052526083,
10,,,,,0,0,0,2,3,0,3,0,26,0,26,0,,,,,,,,,,,,,,,,,556.927086299751,None,557.5939299999736,558.1941335001029,558.1774911000393,560.1783300000243,None,1,0.6125477501191199,2.6134402500465512,increament,0.6,25,standard,None,100,,,,,,,,f,22,223,fr,r,0,raw,2022-06-10_13h20.40.019,oddball,2022.1.2,59.92319052526083,
10,,,,,0,0,0,2,3,0,3,0,27,0,27,0,,,,,,,,,,,,,,,,,560.1949236998335,None,560.8618446998298,561.461894699838,561.4453694997355,563.4460292998701,None,1,0.6113847498781979,2.6120703499764204,increament,0.6,25,standard,None,100,,,,,,,,f,22,223,fr,r,0,raw,2022-06-10_13h20.40.019,oddball,2022.1.2,59.92319052526083,
10,,,,,0,0,0,2,3,0,3,0,28,0,28,0,,,,,,,,,,,,,,,,,563.4627563999966,None,564.2636958998628,564.8634946998209,564.8467688998207,566.8477674997412,None,1,0.6095883501693606,2.6105596502311528,increament,0.6,25,standard,None,100,,,,,,,,f,22,223,fr,r,0,raw,2022-06-10_13h20.40.019,oddball,2022.1.2,59.92319052526083,
10,,,,,0,0,0,2,3,0,3,0,29,0,29,0,,,,,,,,,,,,,,,,,566.8641476999037,None,567.480931899976,568.0812761997804,568.0646007996984,570.0650963997468,None,1,0.6130517502315342,2.61351964995265,increament,0.6,25,standard,None,100,,,,,,,,f,22,223,fr,r,0,raw,2022-06-10_13h20.40.019,oddball,2022.1.2,59.92319052526083,
10,,,,,0,0,0,2,4,0,4,0,0,0,0,0,,,,,,,,,,,,,,,580.2903056000359,None,584.604004399851,None,585.2379429996945,585.8380458997563,585.821683799848,587.8223131000996,None,1,0.612130249850452,2.6127167497761548,decreament,0.6,21,standard,None,100,,570.0820228997618,None,,,,,f,22,223,fr,r,0,raw,2022-06-10_13h20.40.019,oddball,2022.1.2,59.92319052526083,
10,,,,,0,0,0,2,4,0,4,0,1,0,1,0,,,,,,,,,,,,,,,,,587.8388156997971,None,588.4057996999472,589.0058039999567,588.9892913000658,590.9899158999324,None,1,0.6119006499648094,2.6125046499073505,decreament,0.6,21,standard,None,100,,,,,,,,f,22,223,fr,r,0,raw,2022-06-10_13h20.40.019,oddball,2022.1.2,59.92319052526083,
10,,,,,0,0,0,2,4,0,4,0,2,0,2,0,,,,,,,,,,,,,,,,,591.0065592001192,None,591.67387339985,592.2741966997273,592.2573571000248,594.25780629972,None,1,0.6092336494475603,2.6096554496325552,decreament,0.6,21,standard,None,100,,,,,,,,f,22,223,fr,r,0,raw,2022-06-10_13h20.40.019,oddball,2022.1.2,59.92319052526083,
10,,,,,0,0,0,2,4,0,4,0,3,0,3,0,,,,,,,,,,,,,,,,,594.274429500103,None,594.8580004000105,595.4584415997379,595.4420326999389,597.4424089998938,None,1,0.6143474499695003,2.614711550064385,decreament,0.6,21,standard,None,100,,,,,,,,f,22,223,fr,r,0,raw,2022-06-10_13h20.40.019,oddball,2022.1.2,59.92319052526083,
10,,,,,0,0,0,2,4,0,4,0,4,0,4,0,,,,,,,,,,,,,,,,,597.4593151998706,None,598.1923754001036,598.7930457997136,598.7764989999123,600.7771839001216,None,1,0.6143484502099454,2.6150374501012266,decreament,0.6,21,standard,None,100,,,,,,,,f,22,223,fr,r,0,raw,2022-06-10_13h20.40.019,oddball,2022.1.2,59.92319052526083,
10,,,,,0,0,0,2,4,0,4,0,5,0,5,0,,,,,,,,,,,,,,,,,600.7959468998015,None,601.5274346000515,601.8942414997146,601.8607454998419,603.8615223998204,j,1,0.3625710494816303,2.363335949834436,decreament,0.36,23,oddball,j,60,0.7378342002630234,,,,,,,f,22,223,fr,r,0,raw,2022-06-10_13h20.40.019,oddball,2022.1.2,59.92319052526083,
10,,,,,0,0,0,2,4,0,4,0,6,0,6,0,,,,,,,,,,,,,,,,,603.8783919000998,None,604.5785014997236,605.1785785998218,605.1619498999789,607.1626518000849,None,1,0.6119115501642227,2.61261615017429,decreament,0.6,21,standard,None,100,,,,,,,,f,22,223,fr,r,0,raw,2022-06-10_13h20.40.019,oddball,2022.1.2,59.92319052526083,
10,,,,,0,0,0,2,4,0,4,0,7,0,7,0,,,,,,,,,,,,,,,,,607.179648600053,None,607.8128804001026,608.4136314000934,608.3968981998041,610.3975533000194,None,1,0.6137223495170474,2.6142854494974017,decreament,0.6,21,standard,None,100,,,,,,,,f,22,223,fr,r,0,raw,2022-06-10_13h20.40.019,oddball,2022.1.2,59.92319052526083,
10,,,,,0,0,0,2,4,0,4,0,8,0,8,0,,,,,,,,,,,,,,,,,610.4139499999583,None,610.9643461001106,611.5648881997913,611.5479040001519,613.5483923000284,None,1,0.6106424499303102,2.611057950183749,decreament,0.6,21,standard,None,100,,,,,,,,f,22,223,fr,r,0,raw,2022-06-10_13h20.40.019,oddball,2022.1.2,59.92319052526083,
10,,,,,0,0,0,2,4,0,4,0,9,0,9,0,,,,,,,,,,,,,,,,,613.5653506000526,None,614.2154707000591,614.4653010000475,614.4321240000427,616.4330090000294,j,1,0.24516545003280044,2.24606614978984,decreament,0.24,22,oddball,j,40,0.542346500325948,,,,,,,f,22,223,fr,r,0,raw,2022-06-10_13h20.40.019,oddball,2022.1.2,59.92319052526083,
10,,,,,0,0,0,2,4,0,4,0,10,0,10,0,,,,,,,,,,,,,,,,,616.4495915998705,None,617.099857499823,617.700076600071,617.6833734000102,619.6841116999276,None,1,0.6129777505993843,2.6137059503234923,decreament,0.6,21,standard,None,100,,,,,,,,f,22,223,fr,r,0,raw,2022-06-10_13h20.40.019,oddball,2022.1.2,59.92319052526083,
10,,,,,0,0,0,2,4,0,4,0,11,0,11,0,,,,,,,,,,,,,,,,,619.7007006998174,None,620.2510345000774,620.8514815000817,620.8346322998405,622.8352292999625,None,1,0.6129719498567283,2.6135507500730455,decreament,0.6,21,standard,None,100,,,,,,,,f,22,223,fr,r,0,raw,2022-06-10_13h20.40.019,oddball,2022.1.2,59.92319052526083,
10,,,,,0,0,0,2,4,0,4,0,12,0,12,0,,,,,,,,,,,,,,,,,622.8521460997872,None,623.5189847000875,624.1193347000517,624.1023952998221,626.1035707001574,None,1,0.612546649761498,2.6137805497273803,decreament,0.6,21,standard,None,100,,,,,,,,f,22,223,fr,r,0,raw,2022-06-10_13h20.40.019,oddball,2022.1.2,59.92319052526083,
10,,,,,0,0,0,2,4,0,4,0,13,0,13,0,,,,,,,,,,,,,,,,,626.1201134999283,None,626.6869405996986,627.2870454997756,627.2703538001515,629.2710874998011,None,1,0.6122728502377868,2.6129829501733184,decreament,0.6,21,standard,None,100,,,,,,,,f,22,223,fr,r,0,raw,2022-06-10_13h20.40.019,oddball,2022.1.2,59.92319052526083,
10,,,,,0,0,0,2,4,0,4,0,14,0,14,0,,,,,,,,,,,,,,,,,629.2878124997951,None,630.0545938001014,630.654709499795,630.6382061000913,632.6393582997844,None,1,0.6137108504772186,2.614926850423217,decreament,0.6,21,standard,None,100,,,,,,,,f,22,223,fr,r,0,raw,2022-06-10_13h20.40.019,oddball,2022.1.2,59.92319052526083,
10,,,,,0,0,0,2,4,0,4,0,15,0,15,0,,,,,,,,,,,,,,,,,632.6556202997454,None,633.2729499000125,633.8728833999485,633.8562084999867,635.8569487999193,None,1,0.6104365503415465,2.6111890505999327,decreament,0.6,21,standard,None,100,,,,,,,,f,22,223,fr,r,0,raw,2022-06-10_13h20.40.019,oddball,2022.1.2,59.92319052526083,
10,,,,,0,0,0,2,4,0,4,0,16,0,16,0,,,,,,,,,,,,,,,,,635.8736908999272,None,636.4743682998233,637.0739726996981,637.0574560998939,639.0587005997077,None,1,0.6076232502236962,2.6089009502902627,decreament,0.6,21,standard,None,100,,,,,,,,f,22,223,fr,r,0,raw,2022-06-10_13h20.40.019,oddball,2022.1.2,59.92319052526083,
10,,,,,0,0,0,2,4,0,4,0,17,0,17,0,,,,,,,,,,,,,,,,,639.0748125999235,None,639.6415842999704,640.241978999693,640.2254810999148,642.2256477000192,None,1,0.6134754498489201,2.613595049828291,decreament,0.6,21,standard,None,100,,,,,,,,f,22,223,fr,r,0,raw,2022-06-10_13h20.40.019,oddball,2022.1.2,59.92319052526083,
10,,,,,0,0,0,2,4,0,4,0,18,0,18,0,,,,,,,,,,,,,,,,,642.2423422001302,None,642.9098747000098,643.5097876000218,643.4929980998859,645.4943546000868,None,1,0.6088229501619935,2.6103023500181735,decreament,0.6,21,standard,None,100,,,,,,,,f,22,223,fr,r,0,raw,2022-06-10_13h20.40.019,oddball,2022.1.2,59.92319052526083,
10,,,,,0,0,0,2,4,0,4,0,19,0,19,0,,,,,,,,,,,,,,,,,645.5118292998523,None,646.044252099935,646.644356300123,646.627701499965,648.6283574998379,None,1,0.6124088503420353,2.613083350006491,decreament,0.6,21,standard,None,100,,,,,,,,f,22,223,fr,r,0,raw,2022-06-10_13h20.40.019,oddball,2022.1.2,59.92319052526083,
10,,,,,0,0,0,2,4,0,4,0,20,0,20,0,,,,,,,,,,,,,,,,,648.6450418001041,None,649.3121416000649,649.9121586997062,649.8956526000984,651.8969972999766,None,1,0.611724550370127,2.6131221503019333,decreament,0.6,21,standard,None,100,,,,,,,,f,22,223,fr,r,0,raw,2022-06-10_13h20.40.019,oddball,2022.1.2,59.92319052526083,
10,,,,,0,0,0,2,4,0,4,0,21,0,21,0,,,,,,,,,,,,,,,,,651.9132218998857,None,652.5965712000616,653.1968483999372,653.1804682998918,655.1808273997158,None,1,0.6138778501190245,2.6141491499729455,decreament,0.6,21,standard,None,100,,,,,,,,f,22,223,fr,r,0,raw,2022-06-10_13h20.40.019,oddball,2022.1.2,59.92319052526083,
10,,,,,0,0,0,2,4,0,4,0,22,0,22,0,,,,,,,,,,,,,,,,,655.1973834997043,None,655.981272299774,656.5812599998899,656.5645856000483,658.5651559000835,None,1,0.6132503501139581,2.6138615501113236,decreament,0.6,21,standard,None,100,,,,,,,,f,22,223,fr,r,0,raw,2022-06-10_13h20.40.019,oddball,2022.1.2,59.92319052526083,
10,,,,,0,0,0,2,4,0,4,0,23,0,23,0,,,,,,,,,,,,,,,,,658.5818467000499,None,659.1994964997284,659.6825822000392,659.6659446000122,661.6667504999787,j,1,0.49382274970412254,2.494647449813783,decreament,0.48,24,oddball,j,80,0.5725576002150774,,,,,,,f,22,223,fr,r,0,raw,2022-06-10_13h20.40.019,oddball,2022.1.2,59.92319052526083,
10,,,,,0,0,0,2,4,0,4,0,24,0,24,0,,,,,,,,,,,,,,,,,661.6836823001504,None,662.5009808000177,663.1004792000167,663.0840902999043,665.0847837999463,None,1,0.6095991502515972,2.6103528500534594,decreament,0.6,21,standard,None,100,,,,,,,,f,22,223,fr,r,0,raw,2022-06-10_13h20.40.019,oddball,2022.1.2,59.92319052526083,
10,,,,,0,0,0,2,4,0,4,0,25,0,25,0,,,,,,,,,,,,,,,,,665.1018294999376,None,665.7515977998264,666.3517531999387,666.3354887999594,668.3360369997099,None,1,0.6126433503814042,2.613133850041777,decreament,0.6,21,standard,None,100,,,,,,,,f,22,223,fr,r,0,raw,2022-06-10_13h20.40.019,oddball,2022.1.2,59.92319052526083,
10,,,,,0,0,0,2,4,0,4,0,26,0,26,0,,,,,,,,,,,,,,,,,668.3525569997728,None,669.1029074001126,669.703142600134,669.6864455998875,671.6874727001414,None,1,0.6124489502981305,2.6138273500837386,decreament,0.6,21,standard,None,100,,,,,,,,f,22,223,fr,r,0,raw,2022-06-10_13h20.40.019,oddball,2022.1.2,59.92319052526083,
10,,,,,0,0,0,2,4,0,4,0,27,0,27,0,,,,,,,,,,,,,,,,,671.7037602998316,None,672.4877566001378,673.0879257000051,673.0714305997826,675.0724543998949,None,1,0.6094395495019853,2.6105131497606635,decreament,0.6,21,standard,None,100,,,,,,,,f,22,223,fr,r,0,raw,2022-06-10_13h20.40.019,oddball,2022.1.2,59.92319052526083,
10,,,,,0,0,0,2,4,0,4,0,28,0,28,0,,,,,,,,,,,,,,,,,675.0903965998441,None,675.6887815999798,676.2891220999882,676.2722557997331,678.273252800107,None,1,0.6116227493621409,2.6126550496555865,decreament,0.6,21,standard,None,100,,,,,,,,f,22,223,fr,r,0,raw,2022-06-10_13h20.40.019,oddball,2022.1.2,59.92319052526083,
10,,,,,0,0,0,2,4,0,4,0,29,0,29,0,,,,,,,,,,,,,,,,,678.2899283999577,None,679.1066811997443,679.7068022000603,679.6900720000267,681.6909046000801,None,1,0.6090301498770714,2.6098689502105117,decreament,0.6,21,standard,None,100,,,,,,,,f,22,223,fr,r,0,raw,2022-06-10_13h20.40.019,oddball,2022.1.2,59.92319052526083,
10,,,,,0,0,0,2,5,0,5,0,0,0,0,0,,,,,,,,,,,,,,,691.8946946999058,None,694.412395699881,None,694.9625570001081,695.5632540998049,695.5463410001248,697.5470388997346,None,1,0.6140406494960189,2.614704149775207,increament,0.6,25,standard,None,100,,681.7081448999234,None,,,,,f,22,223,fr,r,0,raw,2022-06-10_13h20.40.019,oddball,2022.1.2,59.92319052526083,
10,,,,,0,0,0,2,5,0,5,0,1,0,1,0,,,,,,,,,,,,,,,,,697.5639820001088,None,698.247317600064,698.8476287997328,698.8310229000635,700.8315328001045,None,1,0.6117893499322236,2.612282249610871,increament,0.6,25,standard,None,100,,,,,,,,f,22,223,fr,r,0,raw,2022-06-10_13h20.40.019,oddball,2022.1.2,59.92319052526083,
10,,,,,0,0,0,2,5,0,5,0,2,0,2,0,,,,,,,,,,,,,,,,,700.8482185998,None,701.665163199883,702.265028399881,702.248430499807,704.2495313999243,None,1,0.6128437500447035,2.6139953499659896,increament,0.6,25,standard,None,100,,,,,,,,f,22,223,fr,r,0,raw,2022-06-10_13h20.40.019,oddball,2022.1.2,59.92319052526083,
10,,,,,0,0,0,2,5,0,5,0,3,0,3,0,,,,,,,,,,,,,,,,,704.2663594000041,None,704.8663388998248,705.466678199824,705.4503172999248,707.4507402000017,None,1,0.6126491497270763,2.613008949905634,increament,0.6,25,standard,None,100,,,,,,,,f,22,223,fr,r,0,raw,2022-06-10_13h20.40.019,oddball,2022.1.2,59.92319052526083,
10,,,,,0,0,0,2,5,0,5,0,4,0,4,0,,,,,,,,,,,,,,,,,707.4672559997998,None,708.0842105997726,708.6843257998116,708.6678180000745,710.6687525999732,None,1,0.6136096497066319,2.6145708500407636,increament,0.6,25,standard,None,100,,,,,,,,f,22,223,fr,r,0,raw,2022-06-10_13h20.40.019,oddball,2022.1.2,59.92319052526083,
10,,,,,0,0,0,2,5,0,5,0,5,0,5,0,,,,,,,,,,,,,,,,,710.6854722998105,None,711.3525356999598,711.9523971998133,711.9357386999764,713.9365562000312,None,1,0.6122363498434424,2.6130439499393106,increament,0.6,25,standard,None,100,,,,,,,,f,22,223,fr,r,0,raw,2022-06-10_13h20.40.019,oddball,2022.1.2,59.92319052526083,
10,,,,,0,0,0,2,5,0,5,0,6,0,6,0,,,,,,,,,,,,,,,,,713.953283699695,None,714.5536712999456,715.1538346000016,715.1370967999101,717.1377022000961,None,1,0.6117313499562442,2.6123471497558057,increament,0.6,25,standard,None,100,,,,,,,,f,22,223,fr,r,0,raw,2022-06-10_13h20.40.019,oddball,2022.1.2,59.92319052526083,
10,,,,,0,0,0,2,5,0,5,0,7,0,7,0,,,,,,,,,,,,,,,,,717.1546010999009,None,717.8547028000467,718.7046878999099,718.6714188000187,720.672203999944,None,0,0.8459113496355712,2.846713149920106,increament,0.84,27,oddball,j,140,,,,,,,,f,22,223,fr,r,0,raw,2022-06-10_13h20.40.019,oddball,2022.1.2,59.92319052526083,
10,,,,,0,0,0,2,5,0,5,0,8,0,8,0,,,,,,,,,,,,,,,,,720.6889021000825,None,721.3393129999749,721.9396870997734,721.9233856000938,723.9241774999537,None,1,0.6133850496262312,2.6141687496565282,increament,0.6,25,standard,None,100,,,,,,,,f,22,223,fr,r,0,raw,2022-06-10_13h20.40.019,oddball,2022.1.2,59.92319052526083,
10,,,,,0,0,0,2,5,0,5,0,9,0,9,0,,,,,,,,,,,,,,,,,723.9413696001284,None,724.5904075000435,725.1910562999547,725.1741356998682,727.1750352997333,None,1,0.6132856504991651,2.614274150226265,increament,0.6,25,standard,None,100,,,,,,,,f,22,223,fr,r,0,raw,2022-06-10_13h20.40.019,oddball,2022.1.2,59.92319052526083,
10,,,,,0,0,0,2,5,0,5,0,10,0,10,0,,,,,,,,,,,,,,,,,727.1918473998085,None,727.925345200114,728.5252387998626,728.5086090997793,730.5097222998738,None,1,0.6131335501559079,2.614342549815774,increament,0.6,25,standard,None,100,,,,,,,,f,22,223,fr,r,0,raw,2022-06-10_13h20.40.019,oddball,2022.1.2,59.92319052526083,
10,,,,,0,0,0,2,5,0,5,0,11,0,11,0,,,,,,,,,,,,,,,,,730.5267827999778,None,731.1101235998794,731.8433288000524,731.8101419000886,733.8108561998233,None,0,0.7288089501671493,2.729541650041938,increament,0.72,26,oddball,j,120,,,,,,,,f,22,223,fr,r,0,raw,2022-06-10_13h20.40.019,oddball,2022.1.2,59.92319052526083,
10,,,,,0,0,0,2,5,0,5,0,12,0,12,0,,,,,,,,,,,,,,,,,733.8274984001182,None,734.377798399888,734.9777504000813,734.9613268999383,736.9619384999387,None,1,0.6095408499240875,2.610137450043112,increament,0.6,25,standard,None,100,,,,,,,,f,22,223,fr,r,0,raw,2022-06-10_13h20.40.019,oddball,2022.1.2,59.92319052526083,
10,,,,,0,0,0,2,5,0,5,0,13,0,13,0,,,,,,,,,,,,,,,,,736.9787638997659,None,737.5624373997562,738.1623348998837,738.1459583998658,740.1465293001384,None,1,0.6120759495534003,2.6126749496906996,increament,0.6,25,standard,None,100,,,,,,,,f,22,223,fr,r,0,raw,2022-06-10_13h20.40.019,oddball,2022.1.2,59.92319052526083,
10,,,,,0,0,0,2,5,0,5,0,14,0,14,0,,,,,,,,,,,,,,,,,740.1632340997458,None,740.8469982999377,741.4471613001078,741.4304057001136,743.4309640000574,None,1,0.6126322499476373,2.613192650023848,increament,0.6,25,standard,None,100,,,,,,,,f,22,223,fr,r,0,raw,2022-06-10_13h20.40.019,oddball,2022.1.2,59.92319052526083,
10,,,,,0,0,0,2,5,0,5,0,15,0,15,0,,,,,,,,,,,,,,,,,743.4479696000926,None,744.114689799957,745.0819109999575,745.0484020998701,747.0493473000824,j,1,0.963291950058192,2.9642906500957906,increament,0.96,28,oddball,j,160,0.5582226999104023,,,,,,,f,22,223,fr,r,0,raw,2022-06-10_13h20.40.019,oddball,2022.1.2,59.92319052526083,
10,,,,,0,0,0,2,5,0,5,0,16,0,16,0,,,,,,,,,,,,,,,,,747.0666435998864,None,747.6659892001189,748.2661999999546,748.2496246998198,750.2502357997,None,1,0.6142665497027338,2.6148597500286996,increament,0.6,25,standard,None,100,,,,,,,,f,22,223,fr,r,0,raw,2022-06-10_13h20.40.019,oddball,2022.1.2,59.92319052526083,
10,,,,,0,0,0,2,5,0,5,0,17,0,17,0,,,,,,,,,,,,,,,,,750.267177300062,None,750.8169968998991,751.4175474001095,751.4008377999999,753.4013968999498,None,1,0.6134444498457015,2.6139847501181066,increament,0.6,25,standard,None,100,,,,,,,,f,22,223,fr,r,0,raw,2022-06-10_13h20.40.019,oddball,2022.1.2,59.92319052526083,
10,,,,,0,0,0,2,5,0,5,0,18,0,18,0,,,,,,,,,,,,,,,,,753.4181197998114,None,754.3351517999545,754.9353203000501,754.9191279001534,756.9195206998847,None,1,0.6126458500511944,2.6130173499695957,increament,0.6,25,standard,None,100,,,,,,,,f,22,223,fr,r,0,raw,2022-06-10_13h20.40.019,oddball,2022.1.2,59.92319052526083,
10,,,,,0,0,0,2,5,0,5,0,19,0,19,0,,,,,,,,,,,,,,,,,756.9361749999225,None,757.6698394999839,758.2703811000101,758.2535920999944,760.2541245999746,None,1,0.6139600495807827,2.6144174495711923,increament,0.6,25,standard,None,100,,,,,,,,f,22,223,fr,r,0,raw,2022-06-10_13h20.40.019,oddball,2022.1.2,59.92319052526083,
10,,,,,0,0,0,2,5,0,5,0,20,0,20,0,,,,,,,,,,,,,,,,,760.2706663999707,None,761.0376945999451,761.6379817998968,761.6213325997815,763.6221198998392,None,1,0.6132247499190271,2.613987850025296,increament,0.6,25,standard,None,100,,,,,,,,f,22,223,fr,r,0,raw,2022-06-10_13h20.40.019,oddball,2022.1.2,59.92319052526083,
10,,,,,0,0,0,2,5,0,5,0,21,0,21,0,,,,,,,,,,,,,,,,,763.6387860998511,None,764.405689000152,765.0062569999136,764.9894268997014,766.9902650997974,None,1,0.6118293502368033,2.6126335500739515,increament,0.6,25,standard,None,100,,,,,,,,f,22,223,fr,r,0,raw,2022-06-10_13h20.40.019,oddball,2022.1.2,59.92319052526083,
10,,,,,0,0,0,2,5,0,5,0,22,0,22,0,,,,,,,,,,,,,,,,,767.007184300106,None,767.757147599943,768.3570718001574,768.3405629997142,770.3411232000217,None,1,0.6095807501114905,2.6101322500035167,increament,0.6,25,standard,None,100,,,,,,,,f,22,223,fr,r,0,raw,2022-06-10_13h20.40.019,oddball,2022.1.2,59.92319052526083,
10,,,,,0,0,0,2,5,0,5,0,23,0,23,0,,,,,,,,,,,,,,,,,770.3577283001505,None,770.9745805999264,771.575000199955,771.5585404001176,773.5592434001155,None,1,0.614506249781698,2.6152645498514175,increament,0.6,25,standard,None,100,,,,,,,,f,22,223,fr,r,0,raw,2022-06-10_13h20.40.019,oddball,2022.1.2,59.92319052526083,
10,,,,,0,0,0,2,5,0,5,0,24,0,24,0,,,,,,,,,,,,,,,,,773.5759287001565,None,774.1592986998148,774.7595633999445,774.7429720000364,776.7435031998903,None,1,0.61247035022825,2.612988749984652,increament,0.6,25,standard,None,100,,,,,,,,f,22,223,fr,r,0,raw,2022-06-10_13h20.40.019,oddball,2022.1.2,59.92319052526083,
10,,,,,0,0,0,2,5,0,5,0,25,0,25,0,,,,,,,,,,,,,,,,,776.760506699793,None,777.293963199947,777.8938895999454,777.8774012001231,779.87842549989,None,1,0.6119421501643956,2.61300965026021,increament,0.6,25,standard,None,100,,,,,,,,f,22,223,fr,r,0,raw,2022-06-10_13h20.40.019,oddball,2022.1.2,59.92319052526083,
10,,,,,0,0,0,2,5,0,5,0,26,0,26,0,,,,,,,,,,,,,,,,,779.8949031000957,None,780.6621006000787,781.2619199999608,781.2456344999373,783.2459420999512,None,1,0.6109313499182463,2.611184549983591,increament,0.6,25,standard,None,100,,,,,,,,f,22,223,fr,r,0,raw,2022-06-10_13h20.40.019,oddball,2022.1.2,59.92319052526083,
10,,,,,0,0,0,2,5,0,5,0,27,0,27,0,,,,,,,,,,,,,,,,,783.2629247000441,None,783.8468653997406,784.4471001001075,784.4301366996951,786.4305735998787,None,1,0.6101807500235736,2.610545050352812,increament,0.6,25,standard,None,100,,,,,,,,f,22,223,fr,r,0,raw,2022-06-10_13h20.40.019,oddball,2022.1.2,59.92319052526083,
10,,,,,0,0,0,2,5,0,5,0,28,0,28,0,,,,,,,,,,,,,,,,,786.4475930999033,None,786.9808507999405,787.5810624998994,787.5644241999835,789.5655173999257,None,1,0.6131910504773259,2.614360850304365,increament,0.6,25,standard,None,100,,,,,,,,f,22,223,fr,r,0,raw,2022-06-10_13h20.40.019,oddball,2022.1.2,59.92319052526083,
10,,,,,0,0,0,2,5,0,5,0,29,0,29,0,,,,,,,,,,,,,,,,,789.5817678999156,None,790.1488479999825,790.7491918997839,790.7331371000037,792.7330116000958,None,1,0.613248850684613,2.6130241504870355,increament,0.6,25,standard,None,100,,,,,,,,f,22,223,fr,r,0,raw,2022-06-10_13h20.40.019,oddball,2022.1.2,59.92319052526083,
10,,,,,0,0,0,2,6,0,6,0,0,0,0,0,,,,,,,,,,,,,,,809.079447499942,None,811.2065070001408,None,811.9903535000049,812.5905462000519,812.5737263998017,814.5745446998626,None,1,0.6118892496451735,2.6127062500454485,decreament,0.6,21,standard,None,100,,792.7499128999189,None,,,,,f,22,223,fr,r,0,raw,2022-06-10_13h20.40.019,oddball,2022.1.2,59.92319052526083,
10,,,,,0,0,0,2,6,0,6,0,1,0,1,0,,,,,,,,,,,,,,,,,814.5912595000118,None,815.2254773997702,815.8249853998423,815.8084670999087,817.8091497998685,None,1,0.6116974502801895,2.612381750252098,decreament,0.6,21,standard,None,100,,,,,,,,f,22,223,fr,r,0,raw,2022-06-10_13h20.40.019,oddball,2022.1.2,59.92319052526083,
10,,,,,0,0,0,2,6,0,6,0,2,0,2,0,,,,,,,,,,,,,,,,,817.8259132001549,None,818.4762446000241,819.0762232998386,819.0599034000188,821.0606431998312,None,1,0.6126182498410344,2.6132973497733474,decreament,0.6,21,standard,None,100,,,,,,,,f,22,223,fr,r,0,raw,2022-06-10_13h20.40.019,oddball,2022.1.2,59.92319052526083,
10,,,,,0,0,0,2,6,0,6,0,3,0,3,0,,,,,,,,,,,,,,,,,821.0773195000365,None,821.7938099000603,822.3945383997634,822.3781043998897,824.3784135999158,None,1,0.6144128497689962,2.61466804984957,decreament,0.6,21,standard,None,100,,,,,,,,f,22,223,fr,r,0,raw,2022-06-10_13h20.40.019,oddball,2022.1.2,59.92319052526083,
10,,,,,0,0,0,2,6,0,6,0,4,0,4,0,,,,,,,,,,,,,,,,,824.3950231000781,None,825.0119964997284,825.6127971997485,825.5957903000526,827.5961857000366,None,1,0.6129976501688361,2.6133082499727607,decreament,0.6,21,standard,None,100,,,,,,,,f,22,223,fr,r,0,raw,2022-06-10_13h20.40.019,oddball,2022.1.2,59.92319052526083,
10,,,,,0,0,0,2,6,0,6,0,5,0,5,0,,,,,,,,,,,,,,,,,827.6128050000407,None,828.26308840001,828.6298524998128,828.5970684001222,830.5973382000811,j,1,0.36252165026962757,2.362708850298077,decreament,0.36,23,oddball,j,60,0.9768507000990212,,,,,,,f,22,223,fr,r,0,raw,2022-06-10_13h20.40.019,oddball,2022.1.2,59.92319052526083,
10,,,,,0,0,0,2,6,0,6,0,6,0,6,0,,,,,,,,,,,,,,,,,830.6142194997519,None,831.2143842997029,831.8146329997107,831.7979644001462,833.7985155000351,None,1,0.6117710499092937,2.6123036495409906,decreament,0.6,21,standard,None,100,,,,,,,,f,22,223,fr,r,0,raw,2022-06-10_13h20.40.019,oddball,2022.1.2,59.92319052526083,
10,,,,,0,0,0,2,6,0,6,0,7,0,7,0,,,,,,,,,,,,,,,,,833.8150977999903,None,834.3822097000666,834.9823063998483,834.9653787999414,836.9663015999831,None,1,0.6106964498758316,2.611614449881017,decreament,0.6,21,standard,None,100,,,,,,,,f,22,223,fr,r,0,raw,2022-06-10_13h20.40.019,oddball,2022.1.2,59.92319052526083,
10,,,,,0,0,0,2,6,0,6,0,8,0,8,0,,,,,,,,,,,,,,,,,836.9829505998641,None,837.6168537000194,838.216958399862,838.2002655998804,840.2013685000129,None,1,0.6120241503231227,2.613157750107348,decreament,0.6,21,standard,None,100,,,,,,,,f,22,223,fr,r,0,raw,2022-06-10_13h20.40.019,oddball,2022.1.2,59.92319052526083,
10,,,,,0,0,0,2,6,0,6,0,9,0,9,0,,,,,,,,,,,,,,,,,840.2179704997689,None,840.8682105001062,841.4681961997412,841.451531900093,843.4523689998314,None,1,0.6086830506101251,2.6096299504861236,decreament,0.6,21,standard,None,100,,,,,,,,f,22,223,fr,r,0,raw,2022-06-10_13h20.40.019,oddball,2022.1.2,59.92319052526083,
10,,,,,0,0,0,2,6,0,6,0,10,0,10,0,,,,,,,,,,,,,,,,,843.4691610997543,None,844.2026744997129,844.8028146997094,844.7861367999576,846.7869834997691,None,1,0.6105312504805624,2.6113829500973225,decreament,0.6,21,standard,None,100,,,,,,,,f,22,223,fr,r,0,raw,2022-06-10_13h20.40.019,oddball,2022.1.2,59.92319052526083,
10,,,,,0,0,0,2,6,0,6,0,11,0,11,0,,,,,,,,,,,,,,,,,846.803569199983,None,847.4705421999097,848.070513300132,848.0541572999209,850.0547182001173,None,1,0.6116130501031876,2.612160049844533,decreament,0.6,21,standard,None,100,,,,,,,,f,22,223,fr,r,0,raw,2022-06-10_13h20.40.019,oddball,2022.1.2,59.92319052526083,
10,,,,,0,0,0,2,6,0,6,0,12,0,12,0,,,,,,,,,,,,,,,,,850.0713828001171,None,850.8221788001247,851.4219943000935,851.405700000003,853.406172899995,None,1,0.6096406504511833,2.610121150035411,decreament,0.6,21,standard,None,100,,,,,,,,f,22,223,fr,r,0,raw,2022-06-10_13h20.40.019,oddball,2022.1.2,59.92319052526083,
10,,,,,0,0,0,2,6,0,6,0,13,0,13,0,,,,,,,,,,,,,,,,,853.4226639997214,None,854.0894814999774,854.6900617997162,854.6734299999662,856.6738716000691,None,1,0.6104139504022896,2.6108008502051234,decreament,0.6,21,standard,None,100,,,,,,,,f,22,223,fr,r,0,raw,2022-06-10_13h20.40.019,oddball,2022.1.2,59.92319052526083,
10,,,,,0,0,0,2,6,0,6,0,14,0,14,0,,,,,,,,,,,,,,,,,856.6907545998693,None,857.3408178999089,857.8242885000072,857.8078447999433,859.8089732998051,None,0,0.4930125498212874,2.494195149745792,decreament,0.48,24,oddball,j,80,,,,,,,,f,22,223,fr,r,0,raw,2022-06-10_13h20.40.019,oddball,2022.1.2,59.92319052526083,
10,,,,,0,0,0,2,6,0,6,0,15,0,15,0,,,,,,,,,,,,,,,,,859.8260325998999,None,860.408881700132,861.0088431998156,860.9923191000707,862.9930006000213,None,1,0.6111281500197947,2.611828049644828,decreament,0.6,21,standard,None,100,,,,,,,,f,22,223,fr,r,0,raw,2022-06-10_13h20.40.019,oddball,2022.1.2,59.92319052526083,
10,,,,,0,0,0,2,6,0,6,0,16,0,16,0,,,,,,,,,,,,,,,,,863.0097082001157,None,863.5267781000584,864.1267058998346,864.1102967998013,866.1107332999818,None,1,0.6125862500630319,2.612956349737942,decreament,0.6,21,standard,None,100,,,,,,,,f,22,223,fr,r,0,raw,2022-06-10_13h20.40.019,oddball,2022.1.2,59.92319052526083,
10,,,,,0,0,0,2,6,0,6,0,17,0,17,0,,,,,,,,,,,,,,,,,866.1274787001312,None,866.7610899996944,867.3614126001485,867.3445860999636,869.345266699791,None,1,0.6132344496436417,2.6138987499289215,decreament,0.6,21,standard,None,100,,,,,,,,f,22,223,fr,r,0,raw,2022-06-10_13h20.40.019,oddball,2022.1.2,59.92319052526083,
10,,,,,0,0,0,2,6,0,6,0,18,0,18,0,,,,,,,,,,,,,,,,,869.3620310998522,None,869.9292675000615,870.529011500068,870.5127361998893,872.5133436000906,None,1,0.6116352500393987,2.612248150166124,decreament,0.6,21,standard,None,100,,,,,,,,f,22,223,fr,r,0,raw,2022-06-10_13h20.40.019,oddball,2022.1.2,59.92319052526083,
10,,,,,0,0,0,2,6,0,6,0,19,0,19,0,,,,,,,,,,,,,,,,,872.530181999784,None,873.2470434000716,873.8471500999294,873.8308040997945,875.8316926001571,None,1,0.6110536498017609,2.611893749795854,decreament,0.6,21,standard,None,100,,,,,,,,f,22,223,fr,r,0,raw,2022-06-10_13h20.40.019,oddball,2022.1.2,59.92319052526083,
10,,,,,0,0,0,2,6,0,6,0,20,0,20,0,,,,,,,,,,,,,,,,,875.8479459998198,None,876.4149771998636,877.014934499748,876.9986383998767,878.9992852997966,None,1,0.6083265501074493,2.6089402502402663,decreament,0.6,21,standard,None,100,,,,,,,,f,22,223,fr,r,0,raw,2022-06-10_13h20.40.019,oddball,2022.1.2,59.92319052526083,
10,,,,,0,0,0,2,6,0,6,0,21,0,21,0,,,,,,,,,,,,,,,,,879.0158223998733,None,879.5827601999044,880.1827039998025,880.1662329998799,882.166870099958,None,1,0.6110173501074314,2.6116691501811147,decreament,0.6,21,standard,None,100,,,,,,,,f,22,223,fr,r,0,raw,2022-06-10_13h20.40.019,oddball,2022.1.2,59.92319052526083,
10,,,,,0,0,0,2,6,0,6,0,22,0,22,0,,,,,,,,,,,,,,,,,882.1836382998154,None,882.7503792000934,883.3508552000858,883.334475599695,885.3346692998894,None,1,0.6132305497303605,2.6133757499046624,decreament,0.6,21,standard,None,100,,,,,,,,f,22,223,fr,r,0,raw,2022-06-10_13h20.40.019,oddball,2022.1.2,59.92319052526083,
10,,,,,0,0,0,2,6,0,6,0,23,0,23,0,,,,,,,,,,,,,,,,,885.3515110998414,None,885.968432799913,886.5687804999761,886.5520091000944,888.5524577000178,None,1,0.6126509504392743,2.613082450348884,decreament,0.6,21,standard,None,100,,,,,,,,f,22,223,fr,r,0,raw,2022-06-10_13h20.40.019,oddball,2022.1.2,59.92319052526083,
10,,,,,0,0,0,2,6,0,6,0,24,0,24,0,,,,,,,,,,,,,,,,,888.5693594999611,None,889.3529477999546,889.6030565998517,889.5699319001287,891.5704256999306,j,1,0.2453337498009205,2.245766249950975,decreament,0.24,22,oddball,j,40,0.4512184001505375,,,,,,,f,22,223,fr,r,0,raw,2022-06-10_13h20.40.019,oddball,2022.1.2,59.92319052526083,
10,,,,,0,0,0,2,6,0,6,0,25,0,25,0,,,,,,,,,,,,,,,,,891.5870508998632,None,892.370902299881,892.9708266998641,892.9543221001513,894.9546598000452,None,1,0.6130587505176663,2.6133416504599154,decreament,0.6,21,standard,None,100,,,,,,,,f,22,223,fr,r,0,raw,2022-06-10_13h20.40.019,oddball,2022.1.2,59.92319052526083,
10,,,,,0,0,0,2,6,0,6,0,26,0,26,0,,,,,,,,,,,,,,,,,894.9713297998533,None,895.5890302001499,896.189079800155,896.1721049998887,898.1730011999607,None,1,0.612338850274682,2.6132443505339324,decreament,0.6,21,standard,None,100,,,,,,,,f,22,223,fr,r,0,raw,2022-06-10_13h20.40.019,oddball,2022.1.2,59.92319052526083,
10,,,,,0,0,0,2,6,0,6,0,27,0,27,0,,,,,,,,,,,,,,,,,898.1896901000291,None,898.8900582999922,899.4899669997394,899.4737789998762,901.4743844997138,None,1,0.6103204498067498,2.6108940499834716,decreament,0.6,21,standard,None,100,,,,,,,,f,22,223,fr,r,0,raw,2022-06-10_13h20.40.019,oddball,2022.1.2,59.92319052526083,
10,,,,,0,0,0,2,6,0,6,0,28,0,28,0,,,,,,,,,,,,,,,,,901.4906243998557,None,902.2584076998755,902.8586062998511,902.841657999903,904.8423754000105,None,1,0.610960949677974,2.611672549508512,decreament,0.6,21,standard,None,100,,,,,,,,f,22,223,fr,r,0,raw,2022-06-10_13h20.40.019,oddball,2022.1.2,59.92319052526083,
10,,,,,0,0,0,2,6,0,6,0,29,0,29,0,,,,,,,,,,,,,,,,,904.8592368001118,None,905.5264908997342,906.1259232000448,906.1093084998429,908.11017609993,None,1,0.6095178499817848,2.6103774500079453,decreament,0.6,21,standard,None,100,,,,,,,,f,22,223,fr,r,0,raw,2022-06-10_13h20.40.019,oddball,2022.1.2,59.92319052526083,
10,,,,,0,0,0,2,7,0,7,0,0,0,0,0,,,,,,,,,,,,,,,968.3879387001507,None,973.2347320001572,None,973.8686111001298,974.4684208999388,974.4517815001309,976.4524818998761,None,1,0.6113926493562758,2.612096949480474,increament,0.6,25,standard,None,100,,908.1270774998702,None,,,,,f,22,223,fr,r,0,raw,2022-06-10_13h20.40.019,oddball,2022.1.2,59.92319052526083,
10,,,,,0,0,0,2,7,0,7,0,1,0,1,0,,,,,,,,,,,,,,,,,976.4691814999096,None,977.1531806997955,977.7532726000063,977.7363700000569,979.7370190997608,None,1,0.6112161502242088,2.611862050369382,increament,0.6,25,standard,None,100,,,,,,,,f,22,223,fr,r,0,raw,2022-06-10_13h20.40.019,oddball,2022.1.2,59.92319052526083,
10,,,,,0,0,0,2,7,0,7,0,2,0,2,0,,,,,,,,,,,,,,,,,979.7540262001567,None,980.4874883997254,981.0875430000015,981.0712619000115,983.071797600016,None,1,0.6129785496741533,2.6135005499236286,increament,0.6,25,standard,None,100,,,,,,,,f,22,223,fr,r,0,raw,2022-06-10_13h20.40.019,oddball,2022.1.2,59.92319052526083,
10,,,,,0,0,0,2,7,0,7,0,3,0,3,0,,,,,,,,,,,,,,,,,983.088504599873,None,983.738717299886,984.3388229999691,984.3222734001465,986.3230286999606,None,1,0.6129868500865996,2.6137480502948165,increament,0.6,25,standard,None,100,,,,,,,,f,22,223,fr,r,0,raw,2022-06-10_13h20.40.019,oddball,2022.1.2,59.92319052526083,
10,,,,,0,0,0,2,7,0,7,0,4,0,4,0,,,,,,,,,,,,,,,,,986.3394932998344,None,986.9733031997457,987.573379999958,987.556936299894,989.557951499708,None,1,0.6118684499524534,2.6129593499936163,increament,0.6,25,standard,None,100,,,,,,,,f,22,223,fr,r,0,raw,2022-06-10_13h20.40.019,oddball,2022.1.2,59.92319052526083,
10,,,,,0,0,0,2,7,0,7,0,5,0,5,0,,,,,,,,,,,,,,,,,989.574258599896,None,990.3077782001346,990.9081222000532,990.891733400058,992.8923487998545,None,1,0.6125990501604974,2.613308450207114,increament,0.6,25,standard,None,100,,,,,,,,f,22,223,fr,r,0,raw,2022-06-10_13h20.40.019,oddball,2022.1.2,59.92319052526083,
10,,,,,0,0,0,2,7,0,7,0,6,0,6,0,,,,,,,,,,,,,,,,,992.9088634001091,None,993.5593518000096,994.1593947000802,994.1426661000587,996.1434681997634,None,1,0.6097601498477161,2.610594649799168,increament,0.6,25,standard,None,100,,,,,,,,f,22,223,fr,r,0,raw,2022-06-10_13h20.40.019,oddball,2022.1.2,59.92319052526083,
10,,,,,0,0,0,2,7,0,7,0,7,0,7,0,,,,,,,,,,,,,,,,,996.1603989996947,None,996.8101910999976,997.4104152000509,997.3940020999871,999.3945327000692,None,1,0.6134141497313976,2.6139314500615,increament,0.6,25,standard,None,100,,,,,,,,f,22,223,fr,r,0,raw,2022-06-10_13h20.40.019,oddball,2022.1.2,59.92319052526083,
10,,,,,0,0,0,2,7,0,7,0,8,0,8,0,,,,,,,,,,,,,,,,,999.4115891000256,None,999.9779912000522,1000.5788285997696,1000.5621575000696,1002.5622251997702,None,1,0.6135742496699095,2.6135569498874247,increament,0.6,25,standard,None,100,,,,,,,,f,22,223,fr,r,0,raw,2022-06-10_13h20.40.019,oddball,2022.1.2,59.92319052526083,
10,,,,,0,0,0,2,7,0,7,0,9,0,9,0,,,,,,,,,,,,,,,,,1002.5788620999083,None,1003.1795099996962,1003.7796677998267,1003.7628898997791,1005.7639131001197,None,1,0.6110856495797634,2.6121837496757507,increament,0.6,25,standard,None,100,,,,,,,,f,22,223,fr,r,0,raw,2022-06-10_13h20.40.019,oddball,2022.1.2,59.92319052526083,
10,,,,,0,0,0,2,7,0,7,0,10,0,10,0,,,,,,,,,,,,,,,,,1005.7806385001168,None,1006.4807827998884,1007.0812495998107,1007.064327399712,1009.0648599001579,None,1,0.6125199496746063,2.613044349476695,increament,0.6,25,standard,None,100,,,,,,,,f,22,223,fr,r,0,raw,2022-06-10_13h20.40.019,oddball,2022.1.2,59.92319052526083,
10,,,,,0,0,0,2,7,0,7,0,11,0,11,0,,,,,,,,,,,,,,,,,1009.0816357997246,None,1009.6824137000367,1010.2818797999062,1010.2654051999561,1012.2660642000847,None,1,0.6092850500717759,2.609919949900359,increament,0.6,25,standard,None,100,,,,,,,,f,22,223,fr,r,0,raw,2022-06-10_13h20.40.019,oddball,2022.1.2,59.92319052526083,
10,,,,,0,0,0,2,7,0,7,0,12,0,12,0,,,,,,,,,,,,,,,,,1012.2826805999503,None,1012.8329416001216,1013.4334467998706,1013.4166481997818,1015.4172010999173,None,1,0.6118811499327421,2.6124179498292506,increament,0.6,25,standard,None,100,,,,,,,,f,22,223,fr,r,0,raw,2022-06-10_13h20.40.019,oddball,2022.1.2,59.92319052526083,
10,,,,,0,0,0,2,7,0,7,0,13,0,13,0,,,,,,,,,,,,,,,,,1015.4340828000568,None,1016.1345389001071,1016.7343942001462,1016.7183154998347,1018.7188448999077,None,1,0.6119553502649069,2.612473350018263,increament,0.6,25,standard,None,100,,,,,,,,f,22,223,fr,r,0,raw,2022-06-10_13h20.40.019,oddball,2022.1.2,59.92319052526083,
10,,,,,0,0,0,2,7,0,7,0,14,0,14,0,,,,,,,,,,,,,,,,,1018.7354234997183,None,1019.3024699999951,1019.9025436998345,1019.8858757996932,1021.8865593997762,None,1,0.6096498500555754,2.6103199501521885,increament,0.6,25,standard,None,100,,,,,,,,f,22,223,fr,r,0,raw,2022-06-10_13h20.40.019,oddball,2022.1.2,59.92319052526083,
10,,,,,0,0,0,2,7,0,7,0,15,0,15,0,,,,,,,,,,,,,,,,,1021.9032803000882,None,1022.67034519976,1023.2702800999396,1023.2542727999389,1025.254892199766,None,1,0.6119275502860546,2.6125442502088845,increament,0.6,25,standard,None,100,,,,,,,,f,22,223,fr,r,0,raw,2022-06-10_13h20.40.019,oddball,2022.1.2,59.92319052526083,
10,,,,,0,0,0,2,7,0,7,0,16,0,16,0,,,,,,,,,,,,,,,,,1025.2712604999542,None,1026.03803459974,1026.638455600012,1026.6219536000863,1028.6231351001188,None,1,0.6130932499654591,2.6142919501289725,increament,0.6,25,standard,None,100,,,,,,,,f,22,223,fr,r,0,raw,2022-06-10_13h20.40.019,oddball,2022.1.2,59.92319052526083,
10,,,,,0,0,0,2,7,0,7,0,17,0,17,0,,,,,,,,,,,,,,,,,1028.6398533997126,None,1029.2394308000803,1030.0896700001322,1030.056628599763,1032.0572394998744,None,0,0.8469163500703871,2.847538450267166,increament,0.84,27,oddball,j,140,,,,,,,,f,22,223,fr,r,0,raw,2022-06-10_13h20.40.019,oddball,2022.1.2,59.92319052526083,
10,,,,,0,0,0,2,7,0,7,0,18,0,18,0,,,,,,,,,,,,,,,,,1032.0742444000207,None,1032.7911090999842,1033.3908981001005,1033.3743631998077,1035.3751571998,None,1,0.6094068503007293,2.610230150166899,increament,0.6,25,standard,None,100,,,,,,,,f,22,223,fr,r,0,raw,2022-06-10_13h20.40.019,oddball,2022.1.2,59.92319052526083,
10,,,,,0,0,0,2,7,0,7,0,19,0,19,0,,,,,,,,,,,,,,,,,1035.391544399783,None,1036.0253107999451,1036.625558000058,1036.6089272000827,1038.6092900997028,None,1,0.6129630501382053,2.61323285009712,increament,0.6,25,standard,None,100,,,,,,,,f,22,223,fr,r,0,raw,2022-06-10_13h20.40.019,oddball,2022.1.2,59.92319052526083,
10,,,,,0,0,0,2,7,0,7,0,20,0,20,0,,,,,,,,,,,,,,,,,1038.6261331997812,None,1039.2933312999085,1039.8936141999438,1039.8771063000895,1041.877259499859,None,1,0.6100822505541146,2.610154450405389,increament,0.6,25,standard,None,100,,,,,,,,f,22,223,fr,r,0,raw,2022-06-10_13h20.40.019,oddball,2022.1.2,59.92319052526083,
10,,,,,0,0,0,2,7,0,7,0,21,0,21,0,,,,,,,,,,,,,,,,,1041.8940546000376,None,1042.6277816998772,1043.2278911997564,1043.2117590000853,1045.2119764001109,None,1,0.6117932498455048,2.6119948499836028,increament,0.6,25,standard,None,100,,,,,,,,f,22,223,fr,r,0,raw,2022-06-10_13h20.40.019,oddball,2022.1.2,59.92319052526083,
10,,,,,0,0,0,2,7,0,7,0,22,0,22,0,,,,,,,,,,,,,,,,,1045.2289086999372,None,1045.762044500094,1046.362308199983,1046.3458301997744,1048.3465782999992,None,1,0.613898849580437,2.6146628498099744,increament,0.6,25,standard,None,100,,,,,,,,f,22,223,fr,r,0,raw,2022-06-10_13h20.40.019,oddball,2022.1.2,59.92319052526083,
10,,,,,0,0,0,2,7,0,7,0,23,0,23,0,,,,,,,,,,,,,,,,,1048.3632537997328,None,1049.18050999986,1050.1473809997551,1050.1313102999702,1052.1316126999445,j,1,0.9759306502528489,2.9761935505084693,increament,0.96,28,oddball,j,160,0.8256570999510586,,,,,,,f,22,223,fr,r,0,raw,2022-06-10_13h20.40.019,oddball,2022.1.2,59.92319052526083,
10,,,,,0,0,0,2,7,0,7,0,24,0,24,0,,,,,,,,,,,,,,,,,1052.1478289999068,None,1052.8151010000147,1053.415291399695,1053.398504300043,1055.3992460998707,None,1,0.6095424499362707,2.6102740499190986,increament,0.6,25,standard,None,100,,,,,,,,f,22,223,fr,r,0,raw,2022-06-10_13h20.40.019,oddball,2022.1.2,59.92319052526083,
10,,,,,0,0,0,2,7,0,7,0,25,0,25,0,,,,,,,,,,,,,,,,,1055.415963199921,None,1055.9823941998184,1056.5828471998684,1056.5666122999974,1058.5669470997527,None,1,0.6139906500466168,2.6142796501517296,increament,0.6,25,standard,None,100,,,,,,,,f,22,223,fr,r,0,raw,2022-06-10_13h20.40.019,oddball,2022.1.2,59.92319052526083,
10,,,,,0,0,0,2,7,0,7,0,26,0,26,0,,,,,,,,,,,,,,,,,1058.5841319998726,None,1059.1340501001105,1059.734391800128,1059.717909200117,1061.718317899853,None,1,0.609948449768126,2.6103275497443974,increament,0.6,25,standard,None,100,,,,,,,,f,22,223,fr,r,0,raw,2022-06-10_13h20.40.019,oddball,2022.1.2,59.92319052526083,
10,,,,,0,0,0,2,7,0,7,0,27,0,27,0,,,,,,,,,,,,,,,,,1061.7350308997557,None,1062.301890899893,1062.9022952998057,1062.8856170000508,1064.8858447000384,None,1,0.6116401497274637,2.6117716496810317,increament,0.6,25,standard,None,100,,,,,,,,f,22,223,fr,r,0,raw,2022-06-10_13h20.40.019,oddball,2022.1.2,59.92319052526083,
10,,,,,0,0,0,2,7,0,7,0,28,0,28,0,,,,,,,,,,,,,,,,,1064.9027069001459,None,1065.5199429998174,1066.2535148998722,1066.2202943000011,1068.2207733998075,None,0,0.7298543504439294,2.730265850201249,increament,0.72,26,oddball,j,120,,,,,,,,f,22,223,fr,r,0,raw,2022-06-10_13h20.40.019,oddball,2022.1.2,59.92319052526083,
10,,,,,0,0,0,2,7,0,7,0,29,0,29,0,,,,,,,,,,,,,,,,,1068.2374959997833,None,1068.9544486999512,1069.554633599706,1069.5377866998315,1071.538870899938,None,1,0.6118043498136103,2.6129104499705136,increament,0.6,25,standard,None,100,,,,,,,,f,22,223,fr,r,0,raw,2022-06-10_13h20.40.019,oddball,2022.1.2,59.92319052526083,
10,,,,,0,0,0,2,8,0,8,0,0,0,0,0,,,,,,,,,,,,,,,1144.8585359998979,None,1147.483799399808,None,1148.1674962998368,1148.7680457998067,1148.751787699759,1150.7521362998523,None,1,0.6137827504426241,2.6137142502702773,decreament,0.6,21,standard,None,100,,1071.5555218998343,None,,,,,f,22,223,fr,r,0,raw,2022-06-10_13h20.40.019,oddball,2022.1.2,59.92319052526083,
10,,,,,0,0,0,2,8,0,8,0,1,0,1,0,,,,,,,,,,,,,,,,,1150.7701237001456,None,1151.3688161997125,1151.9689360000193,1151.9524396997876,1153.9532071999274,None,1,0.6127709499560297,2.6135523496195674,decreament,0.6,21,standard,None,100,,,,,,,,f,22,223,fr,r,0,raw,2022-06-10_13h20.40.019,oddball,2022.1.2,59.92319052526083,
10,,,,,0,0,0,2,8,0,8,0,2,0,2,0,,,,,,,,,,,,,,,,,1153.9698231001385,None,1154.6868388000876,1155.2867938997224,1155.2703676000237,1157.2710790000856,None,1,0.6092825504019856,2.6100190500728786,decreament,0.6,21,standard,None,100,,,,,,,,f,22,223,fr,r,0,raw,2022-06-10_13h20.40.019,oddball,2022.1.2,59.92319052526083,
10,,,,,0,0,0,2,8,0,8,0,3,0,3,0,,,,,,,,,,,,,,,,,1157.2879612999968,None,1157.9382444000803,1158.5381474997848,1158.5219029998407,1160.5225615999661,None,1,0.6112956497818232,2.611981349531561,decreament,0.6,21,standard,None,100,,,,,,,,f,22,223,fr,r,0,raw,2022-06-10_13h20.40.019,oddball,2022.1.2,59.92319052526083,
10,,,,,0,0,0,2,8,0,8,0,4,0,4,0,,,,,,,,,,,,,,,,,1160.538928099908,None,1161.3058464997448,1161.9063912001438,1161.889643299859,1163.890656999778,None,1,0.6144915497861803,2.6155696497298777,decreament,0.6,21,standard,None,100,,,,,,,,f,22,223,fr,r,0,raw,2022-06-10_13h20.40.019,oddball,2022.1.2,59.92319052526083,
10,,,,,0,0,0,2,8,0,8,0,5,0,5,0,,,,,,,,,,,,,,,,,1163.907650699839,None,1164.5741570997052,1165.1746604000218,1165.1577933998778,1167.1584894000553,None,1,0.611281150020659,2.6120028500445187,decreament,0.6,21,standard,None,100,,,,,,,,f,22,223,fr,r,0,raw,2022-06-10_13h20.40.019,oddball,2022.1.2,59.92319052526083,
10,,,,,0,0,0,2,8,0,8,0,6,0,6,0,,,,,,,,,,,,,,,,,1167.1755093997344,None,1167.7584408000112,1168.3588636997156,1168.342296099756,1170.3428553999402,None,1,0.61241344967857,2.612927949987352,decreament,0.6,21,standard,None,100,,,,,,,,f,22,223,fr,r,0,raw,2022-06-10_13h20.40.019,oddball,2022.1.2,59.92319052526083,
10,,,,,0,0,0,2,8,0,8,0,7,0,7,0,,,,,,,,,,,,,,,,,1170.3596732998267,None,1170.97662020009,1171.5763086997904,1171.5598232001066,1173.560891199857,None,1,0.6125442502088845,2.6136720506474376,decreament,0.6,21,standard,None,100,,,,,,,,f,22,223,fr,r,0,raw,2022-06-10_13h20.40.019,oddball,2022.1.2,59.92319052526083,
10,,,,,0,0,0,2,8,0,8,0,8,0,8,0,,,,,,,,,,,,,,,,,1173.5771479001269,None,1174.3775746999308,1174.97781699989,1174.9613898997195,1176.9618489998393,None,1,0.6125275497324765,2.612993049900979,decreament,0.6,21,standard,None,100,,,,,,,,f,22,223,fr,r,0,raw,2022-06-10_13h20.40.019,oddball,2022.1.2,59.92319052526083,
10,,,,,0,0,0,2,8,0,8,0,9,0,9,0,,,,,,,,,,,,,,,,,1176.9789601000957,None,1177.6955511998385,1178.2961285999045,1178.2795385001227,1180.279859900009,None,1,0.6120511502958834,2.6122994502075016,decreament,0.6,21,standard,None,100,,,,,,,,f,22,223,fr,r,0,raw,2022-06-10_13h20.40.019,oddball,2022.1.2,59.92319052526083,
10,,,,,0,0,0,2,8,0,8,0,10,0,10,0,,,,,,,,,,,,,,,,,1180.2964461999945,None,1181.0639812001027,1181.6638338998891,1181.6472845999524,1183.6476509999484,None,1,0.6096674506552517,2.609955850522965,decreament,0.6,21,standard,None,100,,,,,,,,f,22,223,fr,r,0,raw,2022-06-10_13h20.40.019,oddball,2022.1.2,59.92319052526083,
10,,,,,0,0,0,2,8,0,8,0,11,0,11,0,,,,,,,,,,,,,,,,,1183.6642259997316,None,1184.398266799748,1184.998592799995,1184.981820399873,1186.9822944998741,None,1,0.6127378502860665,2.6131380503065884,decreament,0.6,21,standard,None,100,,,,,,,,f,22,223,fr,r,0,raw,2022-06-10_13h20.40.019,oddball,2022.1.2,59.92319052526083,
10,,,,,0,0,0,2,8,0,8,0,12,0,12,0,,,,,,,,,,,,,,,,,1186.9988359999843,None,1187.599204099737,1187.9658754998818,1187.9332698998041,1189.9337054998614,j,1,0.3626740500330925,2.363101650029421,decreament,0.36,23,oddball,j,60,0.5827720002271235,,,,,,,f,22,223,fr,r,0,raw,2022-06-10_13h20.40.019,oddball,2022.1.2,59.92319052526083,
10,,,,,0,0,0,2,8,0,8,0,13,0,13,0,,,,,,,,,,,,,,,,,1189.950896400027,None,1190.5338380998,1191.1341137997806,1191.1175218001008,1193.1182087999769,None,1,0.6128043499775231,2.6135078500956297,decreament,0.6,21,standard,None,100,,,,,,,,f,22,223,fr,r,0,raw,2022-06-10_13h20.40.019,oddball,2022.1.2,59.92319052526083,
10,,,,,0,0,0,2,8,0,8,0,14,0,14,0,,,,,,,,,,,,,,,,,1193.1345552001148,None,1193.9016589997336,1194.5017385999672,1194.4851315999404,1196.4862294001505,None,1,0.6126788505353034,2.6137856505811214,decreament,0.6,21,standard,None,100,,,,,,,,f,22,223,fr,r,0,raw,2022-06-10_13h20.40.019,oddball,2022.1.2,59.92319052526083,
10,,,,,0,0,0,2,8,0,8,0,15,0,15,0,,,,,,,,,,,,,,,,,1196.5027085999027,None,1197.086536299903,1197.6863740999252,1197.669849799946,1199.6705216998234,None,1,0.6111834500916302,2.6118594501167536,decreament,0.6,21,standard,None,100,,,,,,,,f,22,223,fr,r,0,raw,2022-06-10_13h20.40.019,oddball,2022.1.2,59.92319052526083,
10,,,,,0,0,0,2,8,0,8,0,16,0,16,0,,,,,,,,,,,,,,,,,1199.6873630997725,None,1200.2710107001476,1200.5211304998957,1200.487404400017,1202.4884232999757,j,1,0.24408524995669723,2.2451627496629953,decreament,0.24,22,oddball,j,40,0.5886419997550547,,,,,,,f,22,223,fr,r,0,raw,2022-06-10_13h20.40.019,oddball,2022.1.2,59.92319052526083,
10,,,,,0,0,0,2,8,0,8,0,17,0,17,0,,,,,,,,,,,,,,,,,1202.5048358999193,None,1203.1049123001285,1203.7052358998917,1203.688628199976,1205.6896752999164,None,1,0.6122010499238968,2.6133312503807247,decreament,0.6,21,standard,None,100,,,,,,,,f,22,223,fr,r,0,raw,2022-06-10_13h20.40.019,oddball,2022.1.2,59.92319052526083,
10,,,,,0,0,0,2,8,0,8,0,18,0,18,0,,,,,,,,,,,,,,,,,1205.7060345001519,None,1206.4066918999888,1207.0064492998645,1206.9897770001553,1208.9904247000813,None,1,0.6103666499257088,2.6109917499125004,decreament,0.6,21,standard,None,100,,,,,,,,f,22,223,fr,r,0,raw,2022-06-10_13h20.40.019,oddball,2022.1.2,59.92319052526083,
10,,,,,0,0,0,2,8,0,8,0,19,0,19,0,,,,,,,,,,,,,,,,,1209.0072669000365,None,1209.6908515999094,1210.2917447998188,1210.2745777997188,1212.2753631998785,None,1,0.6124357501976192,2.6132635502144694,decreament,0.6,21,standard,None,100,,,,,,,,f,22,223,fr,r,0,raw,2022-06-10_13h20.40.019,oddball,2022.1.2,59.92319052526083,
10,,,,,0,0,0,2,8,0,8,0,20,0,20,0,,,,,,,,,,,,,,,,,1212.29234599974,None,1212.8926404998638,1213.4923922996968,1213.475811399985,1215.4767509000376,None,1,0.6092993500642478,2.610324450302869,decreament,0.6,21,standard,None,100,,,,,,,,f,22,223,fr,r,0,raw,2022-06-10_13h20.40.019,oddball,2022.1.2,59.92319052526083,
10,,,,,0,0,0,2,8,0,8,0,21,0,21,0,,,,,,,,,,,,,,,,,1215.4930310999043,None,1216.1600391999818,1216.7603760999627,1216.743754599709,1218.7444631997496,None,1,0.6144398502074182,2.615197450388223,decreament,0.6,21,standard,None,100,,,,,,,,f,22,223,fr,r,0,raw,2022-06-10_13h20.40.019,oddball,2022.1.2,59.92319052526083,
10,,,,,0,0,0,2,8,0,8,0,22,0,22,0,,,,,,,,,,,,,,,,,1218.761284600012,None,1219.47809829982,1220.0783198000863,1220.0614986000583,1222.0626326999627,None,1,0.6091576498001814,2.61039815004915,decreament,0.6,21,standard,None,100,,,,,,,,f,22,223,fr,r,0,raw,2022-06-10_13h20.40.019,oddball,2022.1.2,59.92319052526083,
10,,,,,0,0,0,2,8,0,8,0,23,0,23,0,,,,,,,,,,,,,,,,,1222.0805005999282,None,1222.7792324000038,1223.3798775998875,1223.36302109994,1225.3634790000506,None,1,0.6117310496047139,2.612085949629545,decreament,0.6,21,standard,None,100,,,,,,,,f,22,223,fr,r,0,raw,2022-06-10_13h20.40.019,oddball,2022.1.2,59.92319052526083,
10,,,,,0,0,0,2,8,0,8,0,24,0,24,0,,,,,,,,,,,,,,,,,1225.379997299984,None,1225.9143948000856,1226.5140259000473,1226.497297800146,1228.4980227998458,None,1,0.6094641499221325,2.610201449599117,decreament,0.6,21,standard,None,100,,,,,,,,f,22,223,fr,r,0,raw,2022-06-10_13h20.40.019,oddball,2022.1.2,59.92319052526083,
10,,,,,0,0,0,2,8,0,8,0,25,0,25,0,,,,,,,,,,,,,,,,,1228.514949799981,None,1229.1148779001087,1229.715166399721,1229.698516299948,1231.6992529998533,None,1,0.612166850361973,2.6129617504775524,decreament,0.6,21,standard,None,100,,,,,,,,f,22,223,fr,r,0,raw,2022-06-10_13h20.40.019,oddball,2022.1.2,59.92319052526083,
10,,,,,0,0,0,2,8,0,8,0,26,0,26,0,,,,,,,,,,,,,,,,,1231.716119799763,None,1232.332860399969,1232.8162627001293,1232.7996140997857,1234.8007648000494,None,0,0.49472635006532073,2.4959109500050545,decreament,0.48,24,oddball,j,80,,,,,,,,f,22,223,fr,r,0,raw,2022-06-10_13h20.40.019,oddball,2022.1.2,59.92319052526083,
10,,,,,0,0,0,2,8,0,8,0,27,0,27,0,,,,,,,,,,,,,,,,,1234.8173185000196,None,1235.400948899798,1236.0009956001304,1235.9846465997398,1237.984948599711,None,1,0.6122356499545276,2.612444750033319,decreament,0.6,21,standard,None,100,,,,,,,,f,22,223,fr,r,0,raw,2022-06-10_13h20.40.019,oddball,2022.1.2,59.92319052526083,
10,,,,,0,0,0,2,8,0,8,0,28,0,28,0,,,,,,,,,,,,,,,,,1238.0017340998165,None,1238.6187714999542,1239.2188341999426,1239.20233609993,1241.2029594997875,None,1,0.6118580498732626,2.6124923499301076,decreament,0.6,21,standard,None,100,,,,,,,,f,22,223,fr,r,0,raw,2022-06-10_13h20.40.019,oddball,2022.1.2,59.92319052526083,
10,,,,,0,0,0,2,8,0,8,0,29,0,29,0,,,,,,,,,,,,,,,,,1241.2197925997898,None,1241.9868916999549,1242.5866851001047,1242.570333499927,1244.5707070999779,None,1,0.6117299501784146,2.6120470501482487,decreament,0.6,21,standard,None,100,,,,,,,,f,22,223,fr,r,0,raw,2022-06-10_13h20.40.019,oddball,2022.1.2,59.92319052526083,
10,,,,,0,0,0,2,9,0,9,0,0,0,0,0,,,,,,,,,,,,,,,1292.396009199787,None,1297.5242166998796,None,1298.091348499991,1298.6912577999756,1298.6746681998484,1300.675964999944,None,1,0.6117079500108957,2.6130755501799285,increament,0.6,25,standard,None,100,,1244.5875957999378,None,,,,,f,22,223,fr,r,0,raw,2022-06-10_13h20.40.019,oddball,2022.1.2,59.92319052526083,
10,,,,,0,0,0,2,9,0,9,0,1,0,1,0,,,,,,,,,,,,,,,,,1300.6940526999533,None,1301.2427743999287,1301.8427137001418,1301.8263667998835,1303.82712120004,None,1,0.6110015497542918,2.611747049726546,increament,0.6,25,standard,None,100,,,,,,,,f,22,223,fr,r,0,raw,2022-06-10_13h20.40.019,oddball,2022.1.2,59.92319052526083,
10,,,,,0,0,0,2,9,0,9,0,2,0,2,0,,,,,,,,,,,,,,,,,1303.8431577999145,None,1304.4767252998427,1305.0769591000862,1305.060631599743,1307.0613991999999,None,1,0.6131985494866967,2.614019049797207,increament,0.6,25,standard,None,100,,,,,,,,f,22,223,fr,r,0,raw,2022-06-10_13h20.40.019,oddball,2022.1.2,59.92319052526083,
10,,,,,0,0,0,2,9,0,9,0,3,0,3,0,,,,,,,,,,,,,,,,,1307.0783477998339,None,1307.8614782998338,1308.4616950997151,1308.4448338998482,1310.4457155996934,None,1,0.6129122502170503,2.6138430503197014,increament,0.6,25,standard,None,100,,,,,,,,f,22,223,fr,r,0,raw,2022-06-10_13h20.40.019,oddball,2022.1.2,59.92319052526083,
10,,,,,0,0,0,2,9,0,9,0,4,0,4,0,,,,,,,,,,,,,,,,,1310.462575700134,None,1311.095972099807,1311.6961254999042,1311.679698499851,1313.6805515000597,None,1,0.6121595501899719,2.613068350125104,increament,0.6,25,standard,None,100,,,,,,,,f,22,223,fr,r,0,raw,2022-06-10_13h20.40.019,oddball,2022.1.2,59.92319052526083,
10,,,,,0,0,0,2,9,0,9,0,5,0,5,0,,,,,,,,,,,,,,,,,1313.6976358997636,None,1314.2806811998598,1314.8809282998554,1314.863945200108,1316.8648300999776,None,1,0.6129979495890439,2.613890449516475,increament,0.6,25,standard,None,100,,,,,,,,f,22,223,fr,r,0,raw,2022-06-10_13h20.40.019,oddball,2022.1.2,59.92319052526083,
10,,,,,0,0,0,2,9,0,9,0,6,0,6,0,,,,,,,,,,,,,,,,,1316.881367399823,None,1317.5817406997085,1318.43202139996,1318.3988129999489,1320.3995425999165,j,1,0.8452552501112223,2.8460072497837245,increament,0.84,27,oddball,j,140,0.07644700026139617,,,,,,,f,22,223,fr,r,0,raw,2022-06-10_13h20.40.019,oddball,2022.1.2,59.92319052526083,
10,,,,,0,0,0,2,9,0,9,0,7,0,7,0,,,,,,,,,,,,,,,,,1320.4175781998783,None,1320.9500750000589,1321.5502864001319,1321.5335963000543,1323.5338789001107,None,1,0.6114035500213504,2.6116063501685858,increament,0.6,25,standard,None,100,,,,,,,,f,22,223,fr,r,0,raw,2022-06-10_13h20.40.019,oddball,2022.1.2,59.92319052526083,
10,,,,,0,0,0,2,9,0,9,0,8,0,8,0,,,,,,,,,,,,,,,,,1323.5508083999157,None,1324.117430899758,1324.7178460001014,1324.7012233999558,1326.701797099784,None,1,0.6126455496996641,2.6132308496162295,increament,0.6,25,standard,None,100,,,,,,,,f,22,223,fr,r,0,raw,2022-06-10_13h20.40.019,oddball,2022.1.2,59.92319052526083,
10,,,,,0,0,0,2,9,0,9,0,9,0,9,0,,,,,,,,,,,,,,,,,1326.7186414999887,None,1327.352231899742,1327.952639900148,1327.9358795997687,1329.9366370998323,None,1,0.6136980499140918,2.6144336499273777,increament,0.6,25,standard,None,100,,,,,,,,f,22,223,fr,r,0,raw,2022-06-10_13h20.40.019,oddball,2022.1.2,59.92319052526083,
10,,,,,0,0,0,2,9,0,9,0,10,0,10,0,,,,,,,,,,,,,,,,,1329.953462800011,None,1330.8369557997212,1331.437142699957,1331.4203768000007,1333.4211214999668,None,1,0.612343150191009,2.613092650193721,increament,0.6,25,standard,None,100,,,,,,,,f,22,223,fr,r,0,raw,2022-06-10_13h20.40.019,oddball,2022.1.2,59.92319052526083,
10,,,,,0,0,0,2,9,0,9,0,11,0,11,0,,,,,,,,,,,,,,,,,1333.4380268999375,None,1334.288101799786,1334.8883118000813,1334.871740099974,1336.8725175000727,None,1,0.6093406495638192,2.6101375496946275,increament,0.6,25,standard,None,100,,,,,,,,f,22,223,fr,r,0,raw,2022-06-10_13h20.40.019,oddball,2022.1.2,59.92319052526083,
10,,,,,0,0,0,2,9,0,9,0,12,0,12,0,,,,,,,,,,,,,,,,,1336.8890766999684,None,1337.5725855999626,1338.1732625998557,1338.1564341997728,1340.1570222000591,None,1,0.6143243503756821,2.6148652504198253,increament,0.6,25,standard,None,100,,,,,,,,f,22,223,fr,r,0,raw,2022-06-10_13h20.40.019,oddball,2022.1.2,59.92319052526083,
10,,,,,0,0,0,2,9,0,9,0,13,0,13,0,,,,,,,,,,,,,,,,,1340.1737155998126,None,1340.7905866000801,1341.390674899798,1341.3741391999647,1343.3752259998582,None,1,0.6093770498409867,2.6104943500831723,increament,0.6,25,standard,None,100,,,,,,,,f,22,223,fr,r,0,raw,2022-06-10_13h20.40.019,oddball,2022.1.2,59.92319052526083,
10,,,,,0,0,0,2,9,0,9,0,14,0,14,0,,,,,,,,,,,,,,,,,1343.3918159999885,None,1344.1088275001384,1344.7088891998865,1344.69226779975,1346.6930694999173,None,1,0.6117323501966894,2.6126345503143966,increament,0.6,25,standard,None,100,,,,,,,,f,22,223,fr,r,0,raw,2022-06-10_13h20.40.019,oddball,2022.1.2,59.92319052526083,
10,,,,,0,0,0,2,9,0,9,0,15,0,15,0,,,,,,,,,,,,,,,,,1346.7098741000518,None,1347.2764471000992,1347.877035799902,1347.859897499904,1349.8604898997582,None,1,0.6123774498701096,2.6129547501914203,increament,0.6,25,standard,None,100,,,,,,,,f,22,223,fr,r,0,raw,2022-06-10_13h20.40.019,oddball,2022.1.2,59.92319052526083,
10,,,,,0,0,0,2,9,0,9,0,16,0,16,0,,,,,,,,,,,,,,,,,1349.8774354001507,None,1350.6276344000362,1351.5952217001468,1351.5617315000854,1353.56259649992,j,1,0.9612163496203721,2.9621194498613477,increament,0.96,28,oddball,j,160,0.5542009002529085,,,,,,,f,22,223,fr,r,0,raw,2022-06-10_13h20.40.019,oddball,2022.1.2,59.92319052526083,
10,,,,,0,0,0,2,9,0,9,0,17,0,17,0,,,,,,,,,,,,,,,,,1353.5801447001286,None,1354.2459722999483,1354.845755300019,1354.8292613998055,1356.83020199975,None,1,0.6125471503473818,2.61349885025993,increament,0.6,25,standard,None,100,,,,,,,,f,22,223,fr,r,0,raw,2022-06-10_13h20.40.019,oddball,2022.1.2,59.92319052526083,
10,,,,,0,0,0,2,9,0,9,0,18,0,18,0,,,,,,,,,,,,,,,,,1356.8467160998844,None,1357.3971396000125,1357.9971910999157,1357.9802697999403,1359.9809721997008,None,1,0.6099554500542581,2.6106436499394476,increament,0.6,25,standard,None,100,,,,,,,,f,22,223,fr,r,0,raw,2022-06-10_13h20.40.019,oddball,2022.1.2,59.92319052526083,
10,,,,,0,0,0,2,9,0,9,0,19,0,19,0,,,,,,,,,,,,,,,,,1359.9977979999967,None,1360.5479906001128,1361.1484726001509,1361.131817500107,1363.132804399822,None,1,0.6122330497018993,2.613252249546349,increament,0.6,25,standard,None,100,,,,,,,,f,22,223,fr,r,0,raw,2022-06-10_13h20.40.019,oddball,2022.1.2,59.92319052526083,
10,,,,,0,0,0,2,9,0,9,0,20,0,20,0,,,,,,,,,,,,,,,,,1363.1494117998518,None,1363.8994980999269,1364.4996524997987,1364.4835675000213,1366.4836071999744,None,1,0.6139386505819857,2.6138666504994035,increament,0.6,25,standard,None,100,,,,,,,,f,22,223,fr,r,0,raw,2022-06-10_13h20.40.019,oddball,2022.1.2,59.92319052526083,
10,,,,,0,0,0,2,9,0,9,0,21,0,21,0,,,,,,,,,,,,,,,,,1366.5002810996957,None,1367.3507383000106,1367.9506490998901,1367.9342068997212,1369.9353072000667,None,1,0.6129546500742435,2.614112850278616,increament,0.6,25,standard,None,100,,,,,,,,f,22,223,fr,r,0,raw,2022-06-10_13h20.40.019,oddball,2022.1.2,59.92319052526083,
10,,,,,0,0,0,2,9,0,9,0,22,0,22,0,,,,,,,,,,,,,,,,,1369.9520590999164,None,1370.8189489999786,1371.419052099809,1371.4025429999456,1373.4029753999785,None,1,0.6112569500692189,2.611608650069684,increament,0.6,25,standard,None,100,,,,,,,,f,22,223,fr,r,0,raw,2022-06-10_13h20.40.019,oddball,2022.1.2,59.92319052526083,
10,,,,,0,0,0,2,9,0,9,0,23,0,23,0,,,,,,,,,,,,,,,,,1373.419561299961,None,1374.102864000015,1374.7032874999568,1374.6867026998661,1376.6877218997106,None,1,0.6149447504431009,2.6162290503270924,increament,0.6,25,standard,None,100,,,,,,,,f,22,223,fr,r,0,raw,2022-06-10_13h20.40.019,oddball,2022.1.2,59.92319052526083,
10,,,,,0,0,0,2,9,0,9,0,24,0,24,0,,,,,,,,,,,,,,,,,1376.7044102000073,None,1377.3379203998484,1377.9381323996931,1377.921229899861,1379.9222599999048,None,1,0.6125921504572034,2.6136802504770458,increament,0.6,25,standard,None,100,,,,,,,,f,22,223,fr,r,0,raw,2022-06-10_13h20.40.019,oddball,2022.1.2,59.92319052526083,
10,,,,,0,0,0,2,9,0,9,0,25,0,25,0,,,,,,,,,,,,,,,,,1379.9393528001383,None,1380.6224337001331,1381.2228808999062,1381.2062245998532,1383.206884100102,None,1,0.612130549736321,2.612785049714148,increament,0.6,25,standard,None,100,,,,,,,,f,22,223,fr,r,0,raw,2022-06-10_13h20.40.019,oddball,2022.1.2,59.92319052526083,
10,,,,,0,0,0,2,9,0,9,0,26,0,26,0,,,,,,,,,,,,,,,,,1383.22350559989,None,1383.8904976998456,1384.6240869001485,1384.5904463999905,1386.59157030005,None,0,0.7296566497534513,2.730859549716115,increament,0.72,26,oddball,j,120,,,,,,,,f,22,223,fr,r,0,raw,2022-06-10_13h20.40.019,oddball,2022.1.2,59.92319052526083,
10,,,,,0,0,0,2,9,0,9,0,27,0,27,0,,,,,,,,,,,,,,,,,1386.6083504999988,None,1387.241917300038,1387.8422059998848,1387.825413200073,1389.8258257000707,None,1,0.6116903503425419,2.6120488503947854,increament,0.6,25,standard,None,100,,,,,,,,f,22,223,fr,r,0,raw,2022-06-10_13h20.40.019,oddball,2022.1.2,59.92319052526083,
10,,,,,0,0,0,2,9,0,9,0,28,0,28,0,,,,,,,,,,,,,,,,,1389.8426397996955,None,1390.4095915998332,1391.0095099001192,1390.9933612998575,1392.9940526001155,None,1,0.6126828501001,2.6133105498738587,increament,0.6,25,standard,None,100,,,,,,,,f,22,223,fr,r,0,raw,2022-06-10_13h20.40.019,oddball,2022.1.2,59.92319052526083,
10,,,,,0,0,0,2,9,0,9,0,29,0,29,0,,,,,,,,,,,,,,,,,1393.0103668998927,None,1393.7107719997875,1394.3109997999854,1394.2943128999323,1396.29498230014,None,1,0.6110920505598187,2.611772450618446,increament,0.6,25,standard,None,100,,,,,,,,f,22,223,fr,r,0,raw,2022-06-10_13h20.40.019,oddball,2022.1.2,59.92319052526083,
5,,,,,0,1,1,1,0,0,0,0,0,0,0,0,,,,,,,,,,,,,,,1581.1221876000054,None,1589.4346926999278,None,1590.101691799704,1590.7021951000206,1590.6853152001277,1592.685787399765,None,1,0.6124893501400948,2.6128765498287976,decreament,0.6,11,standard,None,100,,1576.346538099926,None,1396.3342550997622,None,,,f,22,223,fr,r,0,raw,2022-06-10_13h20.40.019,oddball,2022.1.2,59.92319052526083,
5,,,,,0,1,1,1,0,0,0,0,1,0,1,0,,,,,,,,,,,,,,,,,1592.7026961999945,None,1593.2699071997777,1593.8698535999283,1593.8533049998805,1595.8540746998042,None,1,0.6114453501068056,2.612285050097853,decreament,0.6,11,standard,None,100,,,,,,,,f,22,223,fr,r,0,raw,2022-06-10_13h20.40.019,oddball,2022.1.2,59.92319052526083,
5,,,,,0,1,1,1,0,0,0,0,2,0,2,0,,,,,,,,,,,,,,,,,1595.8711641998962,None,1596.5039516999386,1597.1045774999075,1597.087616099976,1599.088318400085,None,1,0.6145776505582035,2.615286650136113,decreament,0.6,11,standard,None,100,,,,,,,,f,22,223,fr,r,0,raw,2022-06-10_13h20.40.019,oddball,2022.1.2,59.92319052526083,
5,,,,,0,1,1,1,0,0,0,0,3,0,3,0,,,,,,,,,,,,,,,,,1599.1051050000824,None,1599.7887301999144,1600.3891249997541,1600.3722781999968,1602.3727492000908,None,1,0.6129825497046113,2.6134219500236213,decreament,0.6,11,standard,None,100,,,,,,,,f,22,223,fr,r,0,raw,2022-06-10_13h20.40.019,oddball,2022.1.2,59.92319052526083,
5,,,,,0,1,1,1,0,0,0,0,4,0,4,0,,,,,,,,,,,,,,,,,1602.389577999711,None,1602.9901741999201,1603.5898771998473,1603.573078500107,1605.5742015996948,None,1,0.6112486496567726,2.612416449468583,decreament,0.6,11,standard,None,100,,,,,,,,f,22,223,fr,r,0,raw,2022-06-10_13h20.40.019,oddball,2022.1.2,59.92319052526083,
5,,,,,0,1,1,1,0,0,0,0,5,0,5,0,,,,,,,,,,,,,,,,,1605.5911487000994,None,1606.324520099908,1606.9247872997075,1606.9080436998047,1608.9087779000401,None,1,0.6122633502818644,2.6131499502807856,decreament,0.6,11,standard,None,100,,,,,,,,f,22,223,fr,r,0,raw,2022-06-10_13h20.40.019,oddball,2022.1.2,59.92319052526083,
5,,,,,0,1,1,1,0,0,0,0,6,0,6,0,,,,,,,,,,,,,,,,,1608.9257268998772,None,1609.5255924998783,1610.1257751998492,1610.1091469000094,1612.1100646997802,None,1,0.6087526502087712,2.6096900501288474,decreament,0.6,11,standard,None,100,,,,,,,,f,22,223,fr,r,0,raw,2022-06-10_13h20.40.019,oddball,2022.1.2,59.92319052526083,
5,,,,,0,1,1,1,0,0,0,0,7,0,7,0,,,,,,,,,,,,,,,,,1612.1268734000623,None,1612.7271401998587,1613.3270168998279,1613.3104372001253,1615.311288099736,None,1,0.6089301495812833,2.6098769498057663,decreament,0.6,11,standard,None,100,,,,,,,,f,22,223,fr,r,0,raw,2022-06-10_13h20.40.019,oddball,2022.1.2,59.92319052526083,
5,,,,,0,1,1,1,0,0,0,0,8,0,8,0,,,,,,,,,,,,,,,,,1615.3281370000914,None,1615.8780089998618,1616.4785660998896,1616.4618953000754,1618.4627990000881,None,1,0.6133541497401893,2.61421374976635,decreament,0.6,11,standard,None,100,,,,,,,,f,22,223,fr,r,0,raw,2022-06-10_13h20.40.019,oddball,2022.1.2,59.92319052526083,
5,,,,,0,1,1,1,0,0,0,0,9,0,9,0,,,,,,,,,,,,,,,,,1618.480114999693,None,1619.112904400099,1619.7128280000761,1619.6965064997785,1621.6968932999298,None,1,0.6106627495028079,2.6110508497804403,decreament,0.6,11,standard,None,100,,,,,,,,f,22,223,fr,r,0,raw,2022-06-10_13h20.40.019,oddball,2022.1.2,59.92319052526083,
5,,,,,0,1,1,1,0,0,0,0,10,0,10,0,,,,,,,,,,,,,,,,,1621.713880199939,None,1622.3805724997073,1622.980653699953,1622.9643699997105,1624.965461099986,None,1,0.6123014497570693,2.6134982495568693,decreament,0.6,11,standard,None,100,,,,,,,,f,22,223,fr,r,0,raw,2022-06-10_13h20.40.019,oddball,2022.1.2,59.92319052526083,
5,,,,,0,1,1,1,0,0,0,0,11,0,11,0,,,,,,,,,,,,,,,,,1624.9815932000056,None,1625.598440399859,1626.1986044999212,1626.1823784001172,1628.1829678998329,None,1,0.613281849771738,2.6138306497596204,decreament,0.6,11,standard,None,100,,,,,,,,f,22,223,fr,r,0,raw,2022-06-10_13h20.40.019,oddball,2022.1.2,59.92319052526083,
5,,,,,0,1,1,1,0,0,0,0,12,0,12,0,,,,,,,,,,,,,,,,,1628.1998141999356,None,1628.9331605997868,1629.2997719999403,1629.26686780015,1631.267431399785,j,1,0.3616078500635922,2.362100050318986,decreament,0.36,13,oddball,j,60,0.8636532002128661,,,,,,,f,22,223,fr,r,0,raw,2022-06-10_13h20.40.019,oddball,2022.1.2,59.92319052526083,
5,,,,,0,1,1,1,0,0,0,0,13,0,13,0,,,,,,,,,,,,,,,,,1631.284299599938,None,1632.0009340997785,1632.60102429986,1632.5845360998064,1634.5850871996954,None,1,0.6116631501354277,2.6122323498129845,decreament,0.6,11,standard,None,100,,,,,,,,f,22,223,fr,r,0,raw,2022-06-10_13h20.40.019,oddball,2022.1.2,59.92319052526083,
