grating_freq,blocks_prac.thisRepN,blocks_prac.thisTrialN,blocks_prac.thisN,blocks_prac.thisIndex,blocks.thisRepN,blocks.thisTrialN,blocks.thisN,blocks.thisIndex,repeat_freq.thisRepN,repeat_freq.thisTrialN,repeat_freq.thisN,repeat_freq.thisIndex,trials.thisRepN,trials.thisTrialN,trials.thisN,trials.thisIndex,break_loop.thisRepN,break_loop.thisTrialN,break_loop.thisN,break_loop.thisIndex,rest_loop.thisRepN,rest_loop.thisTrialN,rest_loop.thisN,rest_loop.thisIndex,instruct_prac_text.started,instruct_prac_text.stopped,b_instruct_text_2_.started,b_instruct_text_2_.stopped,prac_done_text.started,prac_done_text.stopped,instruct_text.started,instruct_text.stopped,fixation.started,fixation.stopped,grating.started,grating.stopped,blank.started,blank.stopped,resp.keys,resp.corr,resp.started,resp.stopped,direction,duration,trigger,stim_type,corr_ans,scaling,resp.rt,rest_text.started,rest_text.stopped,text_2.started,text_2.stopped,thx_txt.started,thx_txt.stopped,gender,age,participant,language,main_hand,nBlock_prac,file_suffix,date,expName,psychopyVersion,frameRate,
5,,,,,0,0,0,1,0,0,0,0,0,0,0,0,,,,,,,,,19.32765890005976,None,22.83652130002156,None,37.98308110004291,None,45.31244480004534,None,49.52922109980136,None,50.12449839990586,50.729572399985045,50.66311159962788,52.664186199661344,None,1,0.6098444000817835,2.6108310003764927,increament,0.6,15,standard,None,100,,,,,,,,m,22,225,fr,r,0,raw,2022-06-15_10h13.30.597,oddball,2022.1.2,59.96987118655631,
5,,,,,0,0,0,1,0,0,0,0,1,0,1,0,,,,,,,,,,,,,,,,,52.68339749984443,None,53.281366399955004,53.88124619983137,53.86452419962734,55.86522080004215,None,1,0.6095153000205755,2.6102291997522116,increament,0.6,15,standard,None,100,,,,,,,,m,22,225,fr,r,0,raw,2022-06-15_10h13.30.597,oddball,2022.1.2,59.96987118655631,
5,,,,,0,0,0,1,0,0,0,0,2,0,2,0,,,,,,,,,,,,,,,,,55.88190339971334,None,56.46565579995513,57.06543629989028,57.04883820004761,59.049404699821025,None,1,0.609506799839437,2.6100528999231756,increament,0.6,15,standard,None,100,,,,,,,,m,22,225,fr,r,0,raw,2022-06-15_10h13.30.597,oddball,2022.1.2,59.96987118655631,
5,,,,,0,0,0,1,0,0,0,0,3,0,3,0,,,,,,,,,,,,,,,,,59.066119299735874,None,59.58339300006628,60.1835481999442,60.16657050000504,62.16738480003551,None,1,0.6091491007246077,2.6099763005040586,increament,0.6,15,standard,None,100,,,,,,,,m,22,225,fr,r,0,raw,2022-06-15_10h13.30.597,oddball,2022.1.2,59.96987118655631,
5,,,,,0,0,0,1,0,0,0,0,4,0,4,0,,,,,,,,,,,,,,,,,62.1842393996194,None,62.784168699756265,63.38448809972033,63.367977699730545,65.36903079971671,None,1,0.6129217003472149,2.614086400717497,increament,0.6,15,standard,None,100,,,,,,,,m,22,225,fr,r,0,raw,2022-06-15_10h13.30.597,oddball,2022.1.2,59.96987118655631,
5,,,,,0,0,0,1,0,0,0,0,5,0,5,0,,,,,,,,,,,,,,,,,65.38684429973364,None,65.95220219995826,66.55265640001744,66.53645160002634,68.53637450002134,None,1,0.6116575002670288,2.611475100275129,increament,0.6,15,standard,None,100,,,,,,,,m,22,225,fr,r,0,raw,2022-06-15_10h13.30.597,oddball,2022.1.2,59.96987118655631,
5,,,,,0,0,0,1,0,0,0,0,6,0,6,0,,,,,,,,,,,,,,,,,68.55314720002934,None,69.15351910004392,69.75383899966255,69.73751970008016,71.73790219984949,None,1,0.6128428997471929,2.6131800999864936,increament,0.6,15,standard,None,100,,,,,,,,m,22,225,fr,r,0,raw,2022-06-15_10h13.30.597,oddball,2022.1.2,59.96987118655631,
5,,,,,0,0,0,1,0,0,0,0,7,0,7,0,,,,,,,,,,,,,,,,,71.75475209997967,None,72.38800309970975,72.98841009987518,72.9718313999474,74.97255499986932,None,1,0.6126081002876163,2.613307200372219,increament,0.6,15,standard,None,100,,,,,,,,m,22,225,fr,r,0,raw,2022-06-15_10h13.30.597,oddball,2022.1.2,59.96987118655631,
5,,,,,0,0,0,1,0,0,0,0,8,0,8,0,,,,,,,,,,,,,,,,,74.98886279994622,None,75.53941149963066,76.38943189987913,76.35677050007507,78.3569239997305,None,0,0.8443474001251161,2.844430500175804,increament,0.84,17,oddball,j,140,,,,,,,,m,22,225,fr,r,0,raw,2022-06-15_10h13.30.597,oddball,2022.1.2,59.96987118655631,
5,,,,,0,0,0,1,0,0,0,0,9,0,9,0,,,,,,,,,,,,,,,,,78.37387100001797,None,79.19063950004056,79.79080830002204,79.77437679981813,81.77489219978452,None,1,0.6128215999342501,2.6133546996861696,increament,0.6,15,standard,None,100,,,,,,,,m,22,225,fr,r,0,raw,2022-06-15_10h13.30.597,oddball,2022.1.2,59.96987118655631,
5,,,,,0,0,0,1,0,0,0,0,10,0,10,0,,,,,,,,,,,,,,,,,81.79161179997027,None,82.4752835999243,83.07527709985152,83.05858369963244,85.05967779969797,None,1,0.6097707999870181,2.6108864000998437,increament,0.6,15,standard,None,100,,,,,,,,m,22,225,fr,r,0,raw,2022-06-15_10h13.30.597,oddball,2022.1.2,59.96987118655631,
5,,,,,0,0,0,1,0,0,0,0,11,0,11,0,,,,,,,,,,,,,,,,,85.07629839982837,None,85.90982869965956,86.50995089998469,86.4934874996543,88.49410620005801,None,1,0.6132294996641576,2.613884299993515,increament,0.6,15,standard,None,100,,,,,,,,m,22,225,fr,r,0,raw,2022-06-15_10h13.30.597,oddball,2022.1.2,59.96987118655631,
5,,,,,0,0,0,1,0,0,0,0,12,0,12,0,,,,,,,,,,,,,,,,,88.51106829987839,None,89.21084319986403,89.81132109975442,89.79478950006887,91.79550089966506,None,1,0.6115373005159199,2.6122650001198053,increament,0.6,15,standard,None,100,,,,,,,,m,22,225,fr,r,0,raw,2022-06-15_10h13.30.597,oddball,2022.1.2,59.96987118655631,
5,,,,,0,0,0,1,0,0,0,0,13,0,13,0,,,,,,,,,,,,,,,,,91.81189989997074,None,92.42917690007016,93.02918979991227,93.01236689975485,95.01343729998916,None,1,0.6078228000551462,2.608947299886495,increament,0.6,15,standard,None,100,,,,,,,,m,22,225,fr,r,0,raw,2022-06-15_10h13.30.597,oddball,2022.1.2,59.96987118655631,
5,,,,,0,0,0,1,0,0,0,0,14,0,14,0,,,,,,,,,,,,,,,,,95.03065169975162,None,95.6134195998311,96.21365529997274,96.19733109977096,98.19782250002027,None,1,0.61255900003016,2.6129943998530507,increament,0.6,15,standard,None,100,,,,,,,,m,22,225,fr,r,0,raw,2022-06-15_10h13.30.597,oddball,2022.1.2,59.96987118655631,
5,,,,,0,0,0,1,0,0,0,0,15,0,15,0,,,,,,,,,,,,,,,,,98.2143466998823,None,98.84841369977221,99.44815199961886,99.4315108996816,101.43230259977281,None,1,0.6105110002681613,2.6113004004582763,increament,0.6,15,standard,None,100,,,,,,,,m,22,225,fr,r,0,raw,2022-06-15_10h13.30.597,oddball,2022.1.2,59.96987118655631,
5,,,,,0,0,0,1,0,0,0,0,16,0,16,0,,,,,,,,,,,,,,,,,101.44896179996431,None,102.11621989961714,102.7160772997886,102.69943120004609,104.70034979982302,None,1,0.611177199985832,2.612165799830109,increament,0.6,15,standard,None,100,,,,,,,,m,22,225,fr,r,0,raw,2022-06-15_10h13.30.597,oddball,2022.1.2,59.96987118655631,
5,,,,,0,0,0,1,0,0,0,0,17,0,17,0,,,,,,,,,,,,,,,,,104.71734509989619,None,105.46695269970223,106.20076859975234,106.16749219968915,108.16820139996707,None,0,0.7315994002856314,2.7324307006783783,increament,0.72,16,oddball,j,120,,,,,,,,m,22,225,fr,r,0,raw,2022-06-15_10h13.30.597,oddball,2022.1.2,59.96987118655631,
5,,,,,0,0,0,1,0,0,0,0,18,0,18,0,,,,,,,,,,,,,,,,,108.18508019996807,None,108.78499649977311,109.38547189999372,109.36891429964453,111.3700154996477,None,1,0.612348800059408,2.6134878997690976,increament,0.6,15,standard,None,100,,,,,,,,m,22,225,fr,r,0,raw,2022-06-15_10h13.30.597,oddball,2022.1.2,59.96987118655631,
5,,,,,0,0,0,1,0,0,0,0,19,0,19,0,,,,,,,,,,,,,,,,,111.3885364998132,None,111.93638379964978,112.53643589979038,112.51978249987587,114.52066549984738,None,1,0.6078856005333364,2.6088329004123807,increament,0.6,15,standard,None,100,,,,,,,,m,22,225,fr,r,0,raw,2022-06-15_10h13.30.597,oddball,2022.1.2,59.96987118655631,
5,,,,,0,0,0,1,0,0,0,0,20,0,20,0,,,,,,,,,,,,,,,,,114.53762059984729,None,115.23752209963277,115.83822759985924,115.82132719969377,117.82169550005347,None,1,0.6130649005062878,2.6133565003983676,increament,0.6,15,standard,None,100,,,,,,,,m,22,225,fr,r,0,raw,2022-06-15_10h13.30.597,oddball,2022.1.2,59.96987118655631,
5,,,,,0,0,0,1,0,0,0,0,21,0,21,0,,,,,,,,,,,,,,,,,117.83849409967661,None,118.53867289982736,119.13890689983964,119.12328699976206,121.12329289969057,None,1,0.6139179999008775,2.6138784997165203,increament,0.6,15,standard,None,100,,,,,,,,m,22,225,fr,r,0,raw,2022-06-15_10h13.30.597,oddball,2022.1.2,59.96987118655631,
5,,,,,0,0,0,1,0,0,0,0,22,0,22,0,,,,,,,,,,,,,,,,,121.13964249985293,None,121.89058359991759,122.4904800998047,122.47389499982819,124.474377699662,None,1,0.6100198002532125,2.6104669999331236,increament,0.6,15,standard,None,100,,,,,,,,m,22,225,fr,r,0,raw,2022-06-15_10h13.30.597,oddball,2022.1.2,59.96987118655631,
5,,,,,0,0,0,1,0,0,0,0,23,0,23,0,,,,,,,,,,,,,,,,,124.4912163997069,None,125.30819049989805,126.27483389992267,126.25815099989995,128.2588653997518,j,1,0.9743296001106501,2.97506820037961,increament,0.96,18,oddball,j,160,0.35852340050041676,,,,,,,m,22,225,fr,r,0,raw,2022-06-15_10h13.30.597,oddball,2022.1.2,59.96987118655631,
5,,,,,0,0,0,1,0,0,0,0,24,0,24,0,,,,,,,,,,,,,,,,,128.27573259966448,None,128.84265299979597,129.44290459994227,129.42654139967635,131.4272224996239,None,1,0.6124504003673792,2.613112300168723,increament,0.6,15,standard,None,100,,,,,,,,m,22,225,fr,r,0,raw,2022-06-15_10h13.30.597,oddball,2022.1.2,59.96987118655631,
5,,,,,0,0,0,1,0,0,0,0,25,0,25,0,,,,,,,,,,,,,,,,,131.44470439990982,None,132.06044670008123,132.6607825998217,132.6446783998981,134.64480250002816,None,1,0.613447000272572,2.6134585002437234,increament,0.6,15,standard,None,100,,,,,,,,m,22,225,fr,r,0,raw,2022-06-15_10h13.30.597,oddball,2022.1.2,59.96987118655631,
5,,,,,0,0,0,1,0,0,0,0,26,0,26,0,,,,,,,,,,,,,,,,,134.6613718997687,None,135.31184550002217,135.9121599998325,135.89545759977773,137.8964157998562,None,1,0.6123509998433292,2.613314399495721,increament,0.6,15,standard,None,100,,,,,,,,m,22,225,fr,r,0,raw,2022-06-15_10h13.30.597,oddball,2022.1.2,59.96987118655631,
5,,,,,0,0,0,1,0,0,0,0,27,0,27,0,,,,,,,,,,,,,,,,,137.91287059988827,None,138.5132681997493,139.11337599996477,139.09673850005493,141.09745119977742,None,1,0.6125729996711016,2.613271599635482,increament,0.6,15,standard,None,100,,,,,,,,m,22,225,fr,r,0,raw,2022-06-15_10h13.30.597,oddball,2022.1.2,59.96987118655631,
5,,,,,0,0,0,1,0,0,0,0,28,0,28,0,,,,,,,,,,,,,,,,,141.11424680007622,None,141.78105890005827,142.38129090005532,142.36444679973647,144.3651389000006,None,1,0.6109820995479822,2.611672299914062,increament,0.6,15,standard,None,100,,,,,,,,m,22,225,fr,r,0,raw,2022-06-15_10h13.30.597,oddball,2022.1.2,59.96987118655631,
5,,,,,0,0,0,1,0,0,0,0,29,0,29,0,,,,,,,,,,,,,,,,,144.38201309973374,None,145.08208830002695,145.682419099845,145.66596639994532,147.66650669975206,None,1,0.6138150002807379,2.61437030043453,increament,0.6,15,standard,None,100,,,,,,,,m,22,225,fr,r,0,raw,2022-06-15_10h13.30.597,oddball,2022.1.2,59.96987118655631,
5,,,,,0,0,0,1,1,0,1,0,0,0,0,0,,,,,,,,,,,,,,,155.27752409968525,None,158.37081439979374,None,158.93741140002385,159.5379377999343,159.52107129991055,161.52175069972873,None,1,0.612036700360477,2.612639599945396,decreament,0.6,11,standard,None,100,,147.68343949969858,None,,,,,m,22,225,fr,r,0,raw,2022-06-15_10h13.30.597,oddball,2022.1.2,59.96987118655631,
5,,,,,0,0,0,1,1,0,1,0,1,0,1,0,,,,,,,,,,,,,,,,,161.53835659986362,None,162.22212779987603,162.82208349974826,162.80571109987795,164.8061897996813,None,1,0.612085800152272,2.6125054000876844,decreament,0.6,11,standard,None,100,,,,,,,,m,22,225,fr,r,0,raw,2022-06-15_10h13.30.597,oddball,2022.1.2,59.96987118655631,
5,,,,,0,0,0,1,1,0,1,0,2,0,2,0,,,,,,,,,,,,,,,,,164.82323359977454,None,165.5729899997823,166.17330139968544,166.15679019968957,168.1574333999306,None,1,0.6142600001767278,2.614889500197023,decreament,0.6,11,standard,None,100,,,,,,,,m,22,225,fr,r,0,raw,2022-06-15_10h13.30.597,oddball,2022.1.2,59.96987118655631,
5,,,,,0,0,0,1,1,0,1,0,3,0,3,0,,,,,,,,,,,,,,,,,168.17422189982608,None,168.75773989968002,169.3582341996953,169.34168179985136,171.34222409967333,None,1,0.6139743998646736,2.6144468998536468,decreament,0.6,11,standard,None,100,,,,,,,,m,22,225,fr,r,0,raw,2022-06-15_10h13.30.597,oddball,2022.1.2,59.96987118655631,
5,,,,,0,0,0,1,1,0,1,0,4,0,4,0,,,,,,,,,,,,,,,,,171.3587914998643,None,172.1423919997178,172.74256139993668,172.72594239981845,174.7266878997907,None,1,0.6123747006058693,2.613182300236076,decreament,0.6,11,standard,None,100,,,,,,,,m,22,225,fr,r,0,raw,2022-06-15_10h13.30.597,oddball,2022.1.2,59.96987118655631,
5,,,,,0,0,0,1,1,0,1,0,5,0,5,0,,,,,,,,,,,,,,,,,174.74352049967274,None,175.3438577996567,175.9438074999489,175.92715589981526,177.92790109990165,None,1,0.6116141001693904,2.612366800196469,decreament,0.6,11,standard,None,100,,,,,,,,m,22,225,fr,r,0,raw,2022-06-15_10h13.30.597,oddball,2022.1.2,59.96987118655631,
5,,,,,0,0,0,1,1,0,1,0,6,0,6,0,,,,,,,,,,,,,,,,,177.9448275999166,None,178.49492339976132,179.09527849964797,179.07841639965773,181.0793616999872,None,1,0.6120101995766163,2.6129040997475386,decreament,0.6,11,standard,None,100,,,,,,,,m,22,225,fr,r,0,raw,2022-06-15_10h13.30.597,oddball,2022.1.2,59.96987118655631,
5,,,,,0,0,0,1,1,0,1,0,7,0,7,0,,,,,,,,,,,,,,,,,181.09579829964787,None,181.69615469966084,182.2964570997283,182.2796760997735,184.28040479961783,None,1,0.6122367000207305,2.6129401000216603,decreament,0.6,11,standard,None,100,,,,,,,,m,22,225,fr,r,0,raw,2022-06-15_10h13.30.597,oddball,2022.1.2,59.96987118655631,
5,,,,,0,0,0,1,1,0,1,0,8,0,8,0,,,,,,,,,,,,,,,,,184.29702889965847,None,185.1979966997169,185.79764720005915,185.78088109986857,187.78174509992823,None,1,0.6101365000940859,2.611073600128293,decreament,0.6,11,standard,None,100,,,,,,,,m,22,225,fr,r,0,raw,2022-06-15_10h13.30.597,oddball,2022.1.2,59.96987118655631,
5,,,,,0,0,0,1,1,0,1,0,9,0,9,0,,,,,,,,,,,,,,,,,187.79856720007956,None,188.3485774998553,188.59865759965032,188.5654161996208,190.56583039974794,j,1,0.24402579991146922,2.2444261997006834,decreament,0.24,12,oddball,j,40,0.5384950004518032,,,,,,,m,22,225,fr,r,0,raw,2022-06-15_10h13.30.597,oddball,2022.1.2,59.96987118655631,
5,,,,,0,0,0,1,1,0,1,0,10,0,10,0,,,,,,,,,,,,,,,,,190.58293679961935,None,191.11625619977713,191.71652479982004,191.69998499983922,193.70078169973567,None,1,0.609222199767828,2.6100860000588,decreament,0.6,11,standard,None,100,,,,,,,,m,22,225,fr,r,0,raw,2022-06-15_10h13.30.597,oddball,2022.1.2,59.96987118655631,
5,,,,,0,0,0,1,1,0,1,0,11,0,11,0,,,,,,,,,,,,,,,,,193.7178039997816,None,194.38413099991158,194.98454959969968,194.96798740001395,196.96837319992483,None,1,0.6131155001930892,2.6135168001055717,decreament,0.6,11,standard,None,100,,,,,,,,m,22,225,fr,r,0,raw,2022-06-15_10h13.30.597,oddball,2022.1.2,59.96987118655631,
5,,,,,0,0,0,1,1,0,1,0,12,0,12,0,,,,,,,,,,,,,,,,,196.98524589976296,None,197.5689683998935,198.16911110002548,198.1523271999322,200.15272859996185,None,1,0.6077254000119865,2.6080586002208292,decreament,0.6,11,standard,None,100,,,,,,,,m,22,225,fr,r,0,raw,2022-06-15_10h13.30.597,oddball,2022.1.2,59.96987118655631,
5,,,,,0,0,0,1,1,0,1,0,13,0,13,0,,,,,,,,,,,,,,,,,200.1695298999548,None,200.8198179998435,201.3037184998393,201.28730960004032,203.28764039976522,None,0,0.4919745004735887,2.492146100383252,decreament,0.48,14,oddball,j,80,,,,,,,,m,22,225,fr,r,0,raw,2022-06-15_10h13.30.597,oddball,2022.1.2,59.96987118655631,
5,,,,,0,0,0,1,1,0,1,0,14,0,14,0,,,,,,,,,,,,,,,,,203.30429819971323,None,204.0211376999505,204.62113759992644,204.6045882999897,206.60547329997644,None,1,0.6102193002589047,2.61103710019961,decreament,0.6,11,standard,None,100,,,,,,,,m,22,225,fr,r,0,raw,2022-06-15_10h13.30.597,oddball,2022.1.2,59.96987118655631,
5,,,,,0,0,0,1,1,0,1,0,15,0,15,0,,,,,,,,,,,,,,,,,206.6221277997829,None,207.23896279977635,207.83930039964616,207.82288149977103,209.8234465997666,None,1,0.613610400352627,2.614194900263101,decreament,0.6,11,standard,None,100,,,,,,,,m,22,225,fr,r,0,raw,2022-06-15_10h13.30.597,oddball,2022.1.2,59.96987118655631,
5,,,,,0,0,0,1,1,0,1,0,16,0,16,0,,,,,,,,,,,,,,,,,209.83998409984633,None,210.4569115000777,211.0569251999259,211.04066010005772,213.04119220003486,None,1,0.6115822000429034,2.6121135000139475,decreament,0.6,11,standard,None,100,,,,,,,,m,22,225,fr,r,0,raw,2022-06-15_10h13.30.597,oddball,2022.1.2,59.96987118655631,
5,,,,,0,0,0,1,1,0,1,0,17,0,17,0,,,,,,,,,,,,,,,,,213.05809869989753,None,213.65812859963626,214.25813899980858,214.24151389999315,216.24248529970646,None,1,0.6138205998577178,2.614829699974507,decreament,0.6,11,standard,None,100,,,,,,,,m,22,225,fr,r,0,raw,2022-06-15_10h13.30.597,oddball,2022.1.2,59.96987118655631,
5,,,,,0,0,0,1,1,0,1,0,18,0,18,0,,,,,,,,,,,,,,,,,216.25913569983095,None,216.84247099980712,217.44286599988118,217.42650579987094,219.4270362998359,None,1,0.6131390002556145,2.6136907003819942,decreament,0.6,11,standard,None,100,,,,,,,,m,22,225,fr,r,0,raw,2022-06-15_10h13.30.597,oddball,2022.1.2,59.96987118655631,
5,,,,,0,0,0,1,1,0,1,0,19,0,19,0,,,,,,,,,,,,,,,,,219.44372779969126,None,219.9773530997336,220.57757729990408,220.5607708999887,222.5615524998866,None,1,0.6117496001534164,2.6125390003435314,decreament,0.6,11,standard,None,100,,,,,,,,m,22,225,fr,r,0,raw,2022-06-15_10h13.30.597,oddball,2022.1.2,59.96987118655631,
5,,,,,0,0,0,1,1,0,1,0,20,0,20,0,,,,,,,,,,,,,,,,,222.5781880998984,None,223.31181549979374,223.91218139976263,223.89561440004036,225.8956933999434,None,1,0.6106525999493897,2.6106483000330627,decreament,0.6,11,standard,None,100,,,,,,,,m,22,225,fr,r,0,raw,2022-06-15_10h13.30.597,oddball,2022.1.2,59.96987118655631,
5,,,,,0,0,0,1,1,0,1,0,21,0,21,0,,,,,,,,,,,,,,,,,225.91238029999658,None,226.47992959991097,227.08027529995888,227.06347119994462,229.06412209989503,None,1,0.6127055999822915,2.6133439000695944,decreament,0.6,11,standard,None,100,,,,,,,,m,22,225,fr,r,0,raw,2022-06-15_10h13.30.597,oddball,2022.1.2,59.96987118655631,
5,,,,,0,0,0,1,1,0,1,0,22,0,22,0,,,,,,,,,,,,,,,,,229.08097269991413,None,229.6978497998789,230.2976267999038,230.28086559986696,232.28177900006995,None,1,0.6094435998238623,2.6103381998836994,decreament,0.6,11,standard,None,100,,,,,,,,m,22,225,fr,r,0,raw,2022-06-15_10h13.30.597,oddball,2022.1.2,59.96987118655631,
5,,,,,0,0,0,1,1,0,1,0,23,0,23,0,,,,,,,,,,,,,,,,,232.29858749965206,None,232.9490131996572,233.31555279996246,233.28268860001117,235.28285129973665,j,1,0.3620747998356819,2.3621251001022756,decreament,0.36,13,oddball,j,60,0.9320362000726163,,,,,,,m,22,225,fr,r,0,raw,2022-06-15_10h13.30.597,oddball,2022.1.2,59.96987118655631,
5,,,,,0,0,0,1,1,0,1,0,24,0,24,0,,,,,,,,,,,,,,,,,235.2996567999944,None,235.9165197997354,236.51697609992698,236.5005568000488,238.5006903996691,None,1,0.6129627996124327,2.6129609998315573,decreament,0.6,11,standard,None,100,,,,,,,,m,22,225,fr,r,0,raw,2022-06-15_10h13.30.597,oddball,2022.1.2,59.96987118655631,
5,,,,,0,0,0,1,1,0,1,0,25,0,25,0,,,,,,,,,,,,,,,,,238.51730189984664,None,239.13444999977946,239.7347383997403,239.71819299971685,241.71872799983248,None,1,0.612916000187397,2.6134126000106335,decreament,0.6,11,standard,None,100,,,,,,,,m,22,225,fr,r,0,raw,2022-06-15_10h13.30.597,oddball,2022.1.2,59.96987118655631,
5,,,,,0,0,0,1,1,0,1,0,26,0,26,0,,,,,,,,,,,,,,,,,241.7354700998403,None,242.38585529988632,242.9859215999022,242.96963409986347,244.96980469999835,j,0,0.6119821001775563,2.612058900296688,decreament,0.6,11,standard,None,100,0.894282000605017,,,,,,,m,22,225,fr,r,0,raw,2022-06-15_10h13.30.597,oddball,2022.1.2,59.96987118655631,
5,,,,,0,0,0,1,1,0,1,0,27,0,27,0,,,,,,,,,,,,,,,,,244.98655999964103,None,245.52015039976686,246.12042679963633,246.10368499998003,248.10450549982488,None,1,0.6118379002436996,2.61266570026055,decreament,0.6,11,standard,None,100,,,,,,,,m,22,225,fr,r,0,raw,2022-06-15_10h13.30.597,oddball,2022.1.2,59.96987118655631,
5,,,,,0,0,0,1,1,0,1,0,28,0,28,0,,,,,,,,,,,,,,,,,248.12146899988875,None,248.85484449984506,249.4554355996661,249.43877589982003,251.43892479967326,None,1,0.6106523000635207,2.6107441000640392,decreament,0.6,11,standard,None,100,,,,,,,,m,22,225,fr,r,0,raw,2022-06-15_10h13.30.597,oddball,2022.1.2,59.96987118655631,
5,,,,,0,0,0,1,1,0,1,0,29,0,29,0,,,,,,,,,,,,,,,,,251.45570719987154,None,252.03932159999385,252.6403149999678,252.62287229998037,254.62350279977545,j,0,0.6131268003955483,2.613752100151032,decreament,0.6,11,standard,None,100,0.8011529999785125,,,,,,,m,22,225,fr,r,0,raw,2022-06-15_10h13.30.597,oddball,2022.1.2,59.96987118655631,
5,,,,,0,0,0,1,2,0,2,0,0,0,0,0,,,,,,,,,,,,,,,265.8634138996713,None,269.82939630001783,None,270.4299010997638,271.03003669995815,271.0135292997584,273.0139961997047,None,1,0.612075200304389,2.6124829002656043,increament,0.6,15,standard,None,100,,254.64027599990368,None,,,,,m,22,225,fr,r,0,raw,2022-06-15_10h13.30.597,oddball,2022.1.2,59.96987118655631,
5,,,,,0,0,0,1,2,0,2,0,1,0,1,0,,,,,,,,,,,,,,,,,273.0306049999781,None,273.64777209982276,274.2475259997882,274.231032199692,276.2318488997407,None,1,0.6077229999937117,2.608565699774772,increament,0.6,15,standard,None,100,,,,,,,,m,22,225,fr,r,0,raw,2022-06-15_10h13.30.597,oddball,2022.1.2,59.96987118655631,
5,,,,,0,0,0,1,2,0,2,0,2,0,2,0,,,,,,,,,,,,,,,,,276.24859699979424,None,276.7995630996302,277.3988529997878,277.38221409963444,279.3831098000519,None,1,0.6116589000448585,2.6126954001374543,increament,0.6,15,standard,None,100,,,,,,,,m,22,225,fr,r,0,raw,2022-06-15_10h13.30.597,oddball,2022.1.2,59.96987118655631,
5,,,,,0,0,0,1,2,0,2,0,3,0,3,0,,,,,,,,,,,,,,,,,279.3999775997363,None,280.0498794000596,280.649874499999,280.6333900997415,282.634250999894,None,1,0.6126427999697626,2.6135396999306977,increament,0.6,15,standard,None,100,,,,,,,,m,22,225,fr,r,0,raw,2022-06-15_10h13.30.597,oddball,2022.1.2,59.96987118655631,
5,,,,,0,0,0,1,2,0,2,0,4,0,4,0,,,,,,,,,,,,,,,,,282.65091879991814,None,283.3348350999877,283.93456219974905,283.9179078997113,285.91902290005237,None,1,0.6120909000746906,2.6133722001686692,increament,0.6,15,standard,None,100,,,,,,,,m,22,225,fr,r,0,raw,2022-06-15_10h13.30.597,oddball,2022.1.2,59.96987118655631,
5,,,,,0,0,0,1,2,0,2,0,5,0,5,0,,,,,,,,,,,,,,,,,285.9362508999184,None,286.4857401000336,287.0858642999083,287.0697460998781,289.0702872998081,None,1,0.6118131005205214,2.612316300161183,increament,0.6,15,standard,None,100,,,,,,,,m,22,225,fr,r,0,raw,2022-06-15_10h13.30.597,oddball,2022.1.2,59.96987118655631,
5,,,,,0,0,0,1,2,0,2,0,6,0,6,0,,,,,,,,,,,,,,,,,289.0868545998819,None,289.8037221999839,290.40399449970573,290.38737599970773,292.38788589974865,None,1,0.6134716002270579,2.6139576002024114,increament,0.6,15,standard,None,100,,,,,,,,m,22,225,fr,r,0,raw,2022-06-15_10h13.30.597,oddball,2022.1.2,59.96987118655631,
5,,,,,0,0,0,1,2,0,2,0,7,0,7,0,,,,,,,,,,,,,,,,,292.40489149978384,None,293.00490209972486,293.6051725000143,293.58830459974706,295.5893220999278,None,1,0.6124986000359058,2.613597400020808,increament,0.6,15,standard,None,100,,,,,,,,m,22,225,fr,r,0,raw,2022-06-15_10h13.30.597,oddball,2022.1.2,59.96987118655631,
5,,,,,0,0,0,1,2,0,2,0,8,0,8,0,,,,,,,,,,,,,,,,,295.605786500033,None,296.22296450007707,296.8232724997215,296.806297800038,298.80698250001296,None,1,0.6124979997985065,2.6131373001262546,increament,0.6,15,standard,None,100,,,,,,,,m,22,225,fr,r,0,raw,2022-06-15_10h13.30.597,oddball,2022.1.2,59.96987118655631,
5,,,,,0,0,0,1,2,0,2,0,9,0,9,0,,,,,,,,,,,,,,,,,298.8238160996698,None,299.4404930998571,300.17417029989883,300.1413427996449,302.141599799972,None,0,0.7302730004303157,2.7304261005483568,increament,0.72,16,oddball,j,120,,,,,,,,m,22,225,fr,r,0,raw,2022-06-15_10h13.30.597,oddball,2022.1.2,59.96987118655631,
5,,,,,0,0,0,1,2,0,2,0,10,0,10,0,,,,,,,,,,,,,,,,,302.1583781000227,None,302.8918721997179,303.4923018999398,303.47587709967047,305.47661949973553,None,1,0.6115898001007736,2.6123798000626266,increament,0.6,15,standard,None,100,,,,,,,,m,22,225,fr,r,0,raw,2022-06-15_10h13.30.597,oddball,2022.1.2,59.96987118655631,
5,,,,,0,0,0,1,2,0,2,0,11,0,11,0,,,,,,,,,,,,,,,,,305.49328999966383,None,306.0265070996247,306.626681599766,306.6099562998861,308.6107623996213,None,1,0.6077930005267262,2.6086231004446745,increament,0.6,15,standard,None,100,,,,,,,,m,22,225,fr,r,0,raw,2022-06-15_10h13.30.597,oddball,2022.1.2,59.96987118655631,
5,,,,,0,0,0,1,2,0,2,0,12,0,12,0,,,,,,,,,,,,,,,,,308.62738779978827,None,309.3277195999399,309.92795599997044,309.91142429970205,311.9117097998969,None,1,0.6124518001452088,2.6126964003778994,increament,0.6,15,standard,None,100,,,,,,,,m,22,225,fr,r,0,raw,2022-06-15_10h13.30.597,oddball,2022.1.2,59.96987118655631,
5,,,,,0,0,0,1,2,0,2,0,13,0,13,0,,,,,,,,,,,,,,,,,311.9285978996195,None,312.612521099858,313.21249589975923,313.1959222997539,315.19648889964446,None,1,0.6121573997661471,2.61270309984684,increament,0.6,15,standard,None,100,,,,,,,,m,22,225,fr,r,0,raw,2022-06-15_10h13.30.597,oddball,2022.1.2,59.96987118655631,
5,,,,,0,0,0,1,2,0,2,0,14,0,14,0,,,,,,,,,,,,,,,,,315.2133017000742,None,315.7305848998949,316.33064109971747,316.3141793999821,318.31443859962747,None,1,0.6110485000535846,2.611203500069678,increament,0.6,15,standard,None,100,,,,,,,,m,22,225,fr,r,0,raw,2022-06-15_10h13.30.597,oddball,2022.1.2,59.96987118655631,
5,,,,,0,0,0,1,2,0,2,0,15,0,15,0,,,,,,,,,,,,,,,,,318.3310634000227,None,318.8978593000211,319.49827650003135,319.48174329986796,321.48245959961787,None,1,0.6136488006450236,2.614415100775659,increament,0.6,15,standard,None,100,,,,,,,,m,22,225,fr,r,0,raw,2022-06-15_10h13.30.597,oddball,2022.1.2,59.96987118655631,
5,,,,,0,0,0,1,2,0,2,0,16,0,16,0,,,,,,,,,,,,,,,,,321.49951549991965,None,322.13270309986547,323.09967879997566,323.0665934998542,325.06755180004984,j,1,0.9599494002759457,2.9605078999884427,increament,0.96,18,oddball,j,160,0.3971782000735402,,,,,,,m,22,225,fr,r,0,raw,2022-06-15_10h13.30.597,oddball,2022.1.2,59.96987118655631,
5,,,,,0,0,0,1,2,0,2,0,17,0,17,0,,,,,,,,,,,,,,,,,325.08579259971157,None,325.73369249980897,326.33422739990056,326.31765279965475,328.3187317000702,None,1,0.6144846002571285,2.6159481001086533,increament,0.6,15,standard,None,100,,,,,,,,m,22,225,fr,r,0,raw,2022-06-15_10h13.30.597,oddball,2022.1.2,59.96987118655631,
5,,,,,0,0,0,1,2,0,2,0,18,0,18,0,,,,,,,,,,,,,,,,,328.3350479998626,None,329.00244720000774,329.6022884999402,329.5857927999459,331.5861872998066,None,1,0.6122579001821578,2.6126120002008975,increament,0.6,15,standard,None,100,,,,,,,,m,22,225,fr,r,0,raw,2022-06-15_10h13.30.597,oddball,2022.1.2,59.96987118655631,
5,,,,,0,0,0,1,2,0,2,0,19,0,19,0,,,,,,,,,,,,,,,,,331.6029169000685,None,332.3696882999502,332.970051900018,332.9535937998444,334.95372009975836,None,1,0.6119160004891455,2.6119781006127596,increament,0.6,15,standard,None,100,,,,,,,,m,22,225,fr,r,0,raw,2022-06-15_10h13.30.597,oddball,2022.1.2,59.96987118655631,
5,,,,,0,0,0,1,2,0,2,0,20,0,20,0,,,,,,,,,,,,,,,,,334.97043260000646,None,335.72110989969224,336.32150319963694,336.3045910997316,338.30566670000553,j,0,0.6123683997429907,2.613480399828404,increament,0.6,15,standard,None,100,0.8709773002192378,,,,,,,m,22,225,fr,r,0,raw,2022-06-15_10h13.30.597,oddball,2022.1.2,59.96987118655631,
5,,,,,0,0,0,1,2,0,2,0,21,0,21,0,,,,,,,,,,,,,,,,,338.3233738997951,None,339.10602869978175,339.70598159963265,339.68912639981136,341.6896843998693,None,1,0.6093257996253669,2.609837499447167,increament,0.6,15,standard,None,100,,,,,,,,m,22,225,fr,r,0,raw,2022-06-15_10h13.30.597,oddball,2022.1.2,59.96987118655631,
5,,,,,0,0,0,1,2,0,2,0,22,0,22,0,,,,,,,,,,,,,,,,,341.7064495999366,None,342.29014619998634,342.89061859995127,342.8740672999993,344.8746599997394,None,1,0.6132469000294805,2.613841500133276,increament,0.6,15,standard,None,100,,,,,,,,m,22,225,fr,r,0,raw,2022-06-15_10h13.30.597,oddball,2022.1.2,59.96987118655631,
5,,,,,0,0,0,1,2,0,2,0,23,0,23,0,,,,,,,,,,,,,,,,,344.8913496998139,None,345.4411981999874,346.0414708000608,346.02514619985595,348.02568960003555,None,1,0.6128085996024311,2.613315699622035,increament,0.6,15,standard,None,100,,,,,,,,m,22,225,fr,r,0,raw,2022-06-15_10h13.30.597,oddball,2022.1.2,59.96987118655631,
5,,,,,0,0,0,1,2,0,2,0,24,0,24,0,,,,,,,,,,,,,,,,,348.0422878996469,None,348.6591896000318,349.2596392999403,349.2430068999529,351.24371459987015,None,1,0.6130292997695506,2.613723199814558,increament,0.6,15,standard,None,100,,,,,,,,m,22,225,fr,r,0,raw,2022-06-15_10h13.30.597,oddball,2022.1.2,59.96987118655631,
5,,,,,0,0,0,1,2,0,2,0,25,0,25,0,,,,,,,,,,,,,,,,,351.2602524999529,None,351.99392599985003,352.59396529989317,352.5775629999116,354.5781724997796,None,1,0.6127559002488852,2.6133636003360152,increament,0.6,15,standard,None,100,,,,,,,,m,22,225,fr,r,0,raw,2022-06-15_10h13.30.597,oddball,2022.1.2,59.96987118655631,
5,,,,,0,0,0,1,2,0,2,0,26,0,26,0,,,,,,,,,,,,,,,,,354.59481739997864,None,355.17844619974494,355.7786614000797,355.76235889969394,357.7627036999911,None,1,0.610667500179261,2.6108845002017915,increament,0.6,15,standard,None,100,,,,,,,,m,22,225,fr,r,0,raw,2022-06-15_10h13.30.597,oddball,2022.1.2,59.96987118655631,
5,,,,,0,0,0,1,2,0,2,0,27,0,27,0,,,,,,,,,,,,,,,,,357.7792741996236,None,358.46328979963437,359.0630659996532,359.04659229982644,361.047197799664,None,1,0.6125922002829611,2.6131702004931867,increament,0.6,15,standard,None,100,,,,,,,,m,22,225,fr,r,0,raw,2022-06-15_10h13.30.597,oddball,2022.1.2,59.96987118655631,
5,,,,,0,0,0,1,2,0,2,0,28,0,28,0,,,,,,,,,,,,,,,,,361.0640757996589,None,361.69745249999687,362.29777699988335,362.28130149981007,364.28198449965566,None,1,0.6131328004412353,2.6138171004131436,increament,0.6,15,standard,None,100,,,,,,,,m,22,225,fr,r,0,raw,2022-06-15_10h13.30.597,oddball,2022.1.2,59.96987118655631,
5,,,,,0,0,0,1,2,0,2,0,29,0,29,0,,,,,,,,,,,,,,,,,364.29850729973987,None,364.932100799866,365.78257909975946,365.7495067999698,367.7500549000688,None,0,0.8450388005003333,2.845559500157833,increament,0.84,17,oddball,j,140,,,,,,,,m,22,225,fr,r,0,raw,2022-06-15_10h13.30.597,oddball,2022.1.2,59.96987118655631,
5,,,,,0,0,0,1,3,0,3,0,0,0,0,0,,,,,,,,,,,,,,,379.45623859995976,None,382.8055427996442,None,383.45621739979833,384.0561820999719,384.039516299963,386.0403914996423,None,1,0.6099408003501594,2.610828600358218,decreament,0.6,11,standard,None,100,,367.76675109984353,None,,,,,m,22,225,fr,r,0,raw,2022-06-15_10h13.30.597,oddball,2022.1.2,59.96987118655631,
5,,,,,0,0,0,1,3,0,3,0,1,0,1,0,,,,,,,,,,,,,,,,,386.05676839966327,None,386.7236514999531,387.3236008998938,387.3071682997979,389.30796819971874,None,1,0.6125790998339653,2.6134198997169733,decreament,0.6,11,standard,None,100,,,,,,,,m,22,225,fr,r,0,raw,2022-06-15_10h13.30.597,oddball,2022.1.2,59.96987118655631,
5,,,,,0,0,0,1,3,0,3,0,2,0,2,0,,,,,,,,,,,,,,,,,389.3246501996182,None,389.94185339985415,390.54164489964023,390.5251563997008,392.5261987000704,None,1,0.6110265995375812,2.612138499505818,decreament,0.6,11,standard,None,100,,,,,,,,m,22,225,fr,r,0,raw,2022-06-15_10h13.30.597,oddball,2022.1.2,59.96987118655631,
5,,,,,0,0,0,1,3,0,3,0,3,0,3,0,,,,,,,,,,,,,,,,,392.5423959996551,None,393.0597568997182,393.6597739998251,393.64333619968966,395.6438607997261,None,1,0.612425600644201,2.6129432003945112,decreament,0.6,11,standard,None,100,,,,,,,,m,22,225,fr,r,0,raw,2022-06-15_10h13.30.597,oddball,2022.1.2,59.96987118655631,
5,,,,,0,0,0,1,3,0,3,0,4,0,4,0,,,,,,,,,,,,,,,,,395.66043350007385,None,396.2775844996795,396.8773399996571,396.8608475998044,398.86190290004015,None,1,0.6110785002820194,2.612214300315827,decreament,0.6,11,standard,None,100,,,,,,,,m,22,225,fr,r,0,raw,2022-06-15_10h13.30.597,oddball,2022.1.2,59.96987118655631,
5,,,,,0,0,0,1,3,0,3,0,5,0,5,0,,,,,,,,,,,,,,,,,398.8782611996867,None,399.6122322999872,400.2119696000591,400.19526829989627,402.1963752997108,None,1,0.6116413003765047,2.612821000162512,decreament,0.6,11,standard,None,100,,,,,,,,m,22,225,fr,r,0,raw,2022-06-15_10h13.30.597,oddball,2022.1.2,59.96987118655631,
5,,,,,0,0,0,1,3,0,3,0,6,0,6,0,,,,,,,,,,,,,,,,,402.2129151998088,None,402.779680499807,403.37973899999633,403.3635797998868,405.3641496999189,None,1,0.6127103003673255,2.6132779004983604,decreament,0.6,11,standard,None,100,,,,,,,,m,22,225,fr,r,0,raw,2022-06-15_10h13.30.597,oddball,2022.1.2,59.96987118655631,
5,,,,,0,0,0,1,3,0,3,0,7,0,7,0,,,,,,,,,,,,,,,,,405.380432699807,None,405.96472529973835,406.21437389962375,406.18146150000393,408.1820510998368,j,1,0.2426414005458355,2.243264800403267,decreament,0.24,12,oddball,j,40,0.4729817002080381,,,,,,,m,22,225,fr,r,0,raw,2022-06-15_10h13.30.597,oddball,2022.1.2,59.96987118655631,
5,,,,,0,0,0,1,3,0,3,0,8,0,8,0,,,,,,,,,,,,,,,,,408.19838309986517,None,408.7986820000224,409.39898950001225,409.38254249980673,411.38299309974536,None,1,0.6128475000150502,2.613254100084305,decreament,0.6,11,standard,None,100,,,,,,,,m,22,225,fr,r,0,raw,2022-06-15_10h13.30.597,oddball,2022.1.2,59.96987118655631,
5,,,,,0,0,0,1,3,0,3,0,9,0,9,0,,,,,,,,,,,,,,,,,411.3996738996357,None,412.08341269986704,412.683323699981,412.667037199717,414.66758169978857,None,1,0.6118850000202656,2.612369299866259,decreament,0.6,11,standard,None,100,,,,,,,,m,22,225,fr,r,0,raw,2022-06-15_10h13.30.597,oddball,2022.1.2,59.96987118655631,
5,,,,,0,0,0,1,3,0,3,0,10,0,10,0,,,,,,,,,,,,,,,,,414.6842549997382,None,415.33498729998246,415.93482839968055,415.91831809980795,417.91863379999995,None,1,0.6108948001638055,2.6111904000863433,decreament,0.6,11,standard,None,100,,,,,,,,m,22,225,fr,r,0,raw,2022-06-15_10h13.30.597,oddball,2022.1.2,59.96987118655631,
5,,,,,0,0,0,1,3,0,3,0,11,0,11,0,,,,,,,,,,,,,,,,,417.9357451996766,None,418.5857404000126,419.18601309973747,419.16950379963964,421.1702193999663,None,1,0.6126796002499759,2.6134369000792503,decreament,0.6,11,standard,None,100,,,,,,,,m,22,225,fr,r,0,raw,2022-06-15_10h13.30.597,oddball,2022.1.2,59.96987118655631,
5,,,,,0,0,0,1,3,0,3,0,12,0,12,0,,,,,,,,,,,,,,,,,421.18671529972926,None,421.97092729993165,422.5705002998002,422.5541779999621,424.5551529000513,None,1,0.6094768005423248,2.61049950029701,decreament,0.6,11,standard,None,100,,,,,,,,m,22,225,fr,r,0,raw,2022-06-15_10h13.30.597,oddball,2022.1.2,59.96987118655631,
5,,,,,0,0,0,1,3,0,3,0,13,0,13,0,,,,,,,,,,,,,,,,,424.5712579996325,None,425.1050471998751,425.70507869962603,425.68834579968825,427.68914219969884,j,0,0.6129528000019491,2.613758100196719,decreament,0.6,11,standard,None,100,0.1587700005620718,,,,,,,m,22,225,fr,r,0,raw,2022-06-15_10h13.30.597,oddball,2022.1.2,59.96987118655631,
5,,,,,0,0,0,1,3,0,3,0,14,0,14,0,,,,,,,,,,,,,,,,,427.7058965996839,None,428.38995449990034,428.9898186000064,428.9730205000378,430.97421719972044,None,1,0.6108663999475539,2.612099400255829,decreament,0.6,11,standard,None,100,,,,,,,,m,22,225,fr,r,0,raw,2022-06-15_10h13.30.597,oddball,2022.1.2,59.96987118655631,
5,,,,,0,0,0,1,3,0,3,0,15,0,15,0,,,,,,,,,,,,,,,,,430.9905711999163,None,431.65739469975233,432.2575619998388,432.24091270007193,434.24180019972846,None,1,0.6104794996790588,2.6114342999644578,decreament,0.6,11,standard,None,100,,,,,,,,m,22,225,fr,r,0,raw,2022-06-15_10h13.30.597,oddball,2022.1.2,59.96987118655631,
5,,,,,0,0,0,1,3,0,3,0,16,0,16,0,,,,,,,,,,,,,,,,,434.2583417999558,None,435.05900549981743,435.5422233999707,435.52580210007727,437.5266375998035,None,0,0.4950390998274088,2.495887799654156,decreament,0.48,14,oddball,j,80,,,,,,,,m,22,225,fr,r,0,raw,2022-06-15_10h13.30.597,oddball,2022.1.2,59.96987118655631,
5,,,,,0,0,0,1,3,0,3,0,17,0,17,0,,,,,,,,,,,,,,,,,437.54374449979514,None,438.1268953997642,438.7266538999975,438.70995619986206,440.7110629999079,None,1,0.6116728004999459,2.6128319003619254,decreament,0.6,11,standard,None,100,,,,,,,,m,22,225,fr,r,0,raw,2022-06-15_10h13.30.597,oddball,2022.1.2,59.96987118655631,
5,,,,,0,0,0,1,3,0,3,0,18,0,18,0,,,,,,,,,,,,,,,,,440.72849529981613,None,441.29420410003513,441.8945064996369,441.8782640998252,443.8790163998492,None,1,0.6142063997685909,2.614895799662918,decreament,0.6,11,standard,None,100,,,,,,,,m,22,225,fr,r,0,raw,2022-06-15_10h13.30.597,oddball,2022.1.2,59.96987118655631,
5,,,,,0,0,0,1,3,0,3,0,19,0,19,0,,,,,,,,,,,,,,,,,443.89530909992754,None,444.49575949972495,445.0956405000761,445.0791984000243,447.08019899996,None,1,0.610286199953407,2.61132359970361,decreament,0.6,11,standard,None,100,,,,,,,,m,22,225,fr,r,0,raw,2022-06-15_10h13.30.597,oddball,2022.1.2,59.96987118655631,
5,,,,,0,0,0,1,3,0,3,0,20,0,20,0,,,,,,,,,,,,,,,,,447.09662859980017,None,447.6635893997736,448.26366129983217,448.24715049983934,450.24757510004565,None,1,0.611882199998945,2.612318799830973,decreament,0.6,11,standard,None,100,,,,,,,,m,22,225,fr,r,0,raw,2022-06-15_10h13.30.597,oddball,2022.1.2,59.96987118655631,
5,,,,,0,0,0,1,3,0,3,0,21,0,21,0,,,,,,,,,,,,,,,,,450.2644174997695,None,450.8813823997043,451.4813572000712,451.4646208998747,453.46553039969876,None,1,0.6115303002297878,2.612484300043434,decreament,0.6,11,standard,None,100,,,,,,,,m,22,225,fr,r,0,raw,2022-06-15_10h13.30.597,oddball,2022.1.2,59.96987118655631,
5,,,,,0,0,0,1,3,0,3,0,22,0,22,0,,,,,,,,,,,,,,,,,453.4825496999547,None,454.0993085000664,454.4659956996329,454.4327052999288,456.4336484996602,j,1,0.36266200011596084,2.363647900056094,decreament,0.36,13,oddball,j,60,0.9425760004669428,,,,,,,m,22,225,fr,r,0,raw,2022-06-15_10h13.30.597,oddball,2022.1.2,59.96987118655631,
5,,,,,0,0,0,1,3,0,3,0,23,0,23,0,,,,,,,,,,,,,,,,,456.4513002000749,None,457.08419249998406,457.68405579961836,457.6671305000782,459.6679944996722,None,1,0.6108877002261579,2.6117410003207624,decreament,0.6,11,standard,None,100,,,,,,,,m,22,225,fr,r,0,raw,2022-06-15_10h13.30.597,oddball,2022.1.2,59.96987118655631,
5,,,,,0,0,0,1,3,0,3,0,24,0,24,0,,,,,,,,,,,,,,,,,459.6845964998938,None,460.26854679966345,460.8684636997059,460.8526117000729,462.8525070999749,None,1,0.61014339979738,2.609960099682212,decreament,0.6,11,standard,None,100,,,,,,,,m,22,225,fr,r,0,raw,2022-06-15_10h13.30.597,oddball,2022.1.2,59.96987118655631,
5,,,,,0,0,0,1,3,0,3,0,25,0,25,0,,,,,,,,,,,,,,,,,462.86921579996124,None,463.4860493000597,464.0862250998616,464.0696673998609,466.070353299845,None,1,0.6122110998257995,2.6128948000259697,decreament,0.6,11,standard,None,100,,,,,,,,m,22,225,fr,r,0,raw,2022-06-15_10h13.30.597,oddball,2022.1.2,59.96987118655631,
5,,,,,0,0,0,1,3,0,3,0,26,0,26,0,,,,,,,,,,,,,,,,,466.0870028999634,None,466.7872577998787,467.38719329982996,467.370978299994,469.37146669998765,None,1,0.6132446997798979,2.61377440020442,decreament,0.6,11,standard,None,100,,,,,,,,m,22,225,fr,r,0,raw,2022-06-15_10h13.30.597,oddball,2022.1.2,59.96987118655631,
5,,,,,0,0,0,1,3,0,3,0,27,0,27,0,,,,,,,,,,,,,,,,,469.38860059995204,None,469.95537990005687,470.5555373998359,470.53896579984576,472.53983769984916,None,1,0.6127051995135844,2.6135996994562447,decreament,0.6,11,standard,None,100,,,,,,,,m,22,225,fr,r,0,raw,2022-06-15_10h13.30.597,oddball,2022.1.2,59.96987118655631,
5,,,,,0,0,0,1,3,0,3,0,28,0,28,0,,,,,,,,,,,,,,,,,472.5572676998563,None,473.1901054000482,473.7901265998371,473.77332159969956,475.77413639985025,None,1,0.6100678998045623,2.610929799731821,decreament,0.6,11,standard,None,100,,,,,,,,m,22,225,fr,r,0,raw,2022-06-15_10h13.30.597,oddball,2022.1.2,59.96987118655631,
5,,,,,0,0,0,1,3,0,3,0,29,0,29,0,,,,,,,,,,,,,,,,,475.79090170003474,None,476.37431810004637,476.97442469978705,476.95791210001335,478.95848679961637,None,1,0.6123605999164283,2.61292660003528,decreament,0.6,11,standard,None,100,,,,,,,,m,22,225,fr,r,0,raw,2022-06-15_10h13.30.597,oddball,2022.1.2,59.96987118655631,
5,,,,,0,0,0,1,4,0,4,0,0,0,0,0,,,,,,,,,,,,,,,485.14026079978794,None,487.0283156996593,None,487.67869169963524,488.27909979969263,488.262502099853,490.26302979979664,None,1,0.6121882000006735,2.612689800094813,increament,0.6,15,standard,None,100,,478.97569109965116,None,,,,,m,22,225,fr,r,0,raw,2022-06-15_10h13.30.597,oddball,2022.1.2,59.96987118655631,
5,,,,,0,0,0,1,4,0,4,0,1,0,1,0,,,,,,,,,,,,,,,,,490.2794862999581,None,490.91335289971903,491.51427139993757,491.49703119974583,493.4976045996882,None,1,0.6098518003709614,2.610363600309938,increament,0.6,15,standard,None,100,,,,,,,,m,22,225,fr,r,0,raw,2022-06-15_10h13.30.597,oddball,2022.1.2,59.96987118655631,
5,,,,,0,0,0,1,4,0,4,0,2,0,2,0,,,,,,,,,,,,,,,,,493.51411799993366,None,494.0812903000042,494.6813359996304,494.66471379995346,496.66534279985353,None,1,0.6112976004369557,2.6119199004024267,increament,0.6,15,standard,None,100,,,,,,,,m,22,225,fr,r,0,raw,2022-06-15_10h13.30.597,oddball,2022.1.2,59.96987118655631,
5,,,,,0,0,0,1,4,0,4,0,3,0,3,0,,,,,,,,,,,,,,,,,496.6820061998442,None,497.2820910997689,497.8825510996394,497.86567769991234,499.8667210000567,None,1,0.6123856999911368,2.6134999999776483,increament,0.6,15,standard,None,100,,,,,,,,m,22,225,fr,r,0,raw,2022-06-15_10h13.30.597,oddball,2022.1.2,59.96987118655631,
5,,,,,0,0,0,1,4,0,4,0,4,0,4,0,,,,,,,,,,,,,,,,,499.88306349981576,None,500.5835442999378,501.1836622999981,501.1670061000623,503.1677448996343,None,1,0.6112667000852525,2.6119957002811134,increament,0.6,15,standard,None,100,,,,,,,,m,22,225,fr,r,0,raw,2022-06-15_10h13.30.597,oddball,2022.1.2,59.96987118655631,
5,,,,,0,0,0,1,4,0,4,0,5,0,5,0,,,,,,,,,,,,,,,,,503.184490500018,None,503.9180878000334,504.5183329996653,504.50155139993876,506.50227819988504,None,1,0.6130485995672643,2.613738399464637,increament,0.6,15,standard,None,100,,,,,,,,m,22,225,fr,r,0,raw,2022-06-15_10h13.30.597,oddball,2022.1.2,59.96987118655631,
5,,,,,0,0,0,1,4,0,4,0,6,0,6,0,,,,,,,,,,,,,,,,,506.518876099959,None,507.13590179989114,508.103069299832,508.06960779987276,510.07070229994133,j,1,0.9625802002847195,2.9637195002287626,increament,0.96,18,oddball,j,160,0.4573137005791068,,,,,,,m,22,225,fr,r,0,raw,2022-06-15_10h13.30.597,oddball,2022.1.2,59.96987118655631,
5,,,,,0,0,0,1,4,0,4,0,7,0,7,0,,,,,,,,,,,,,,,,,510.0871254997328,None,510.9040859998204,511.50431489991024,511.48833979992196,513.4883526996709,None,1,0.6134243002161384,2.6133547998033464,increament,0.6,15,standard,None,100,,,,,,,,m,22,225,fr,r,0,raw,2022-06-15_10h13.30.597,oddball,2022.1.2,59.96987118655631,
5,,,,,0,0,0,1,4,0,4,0,8,0,8,0,,,,,,,,,,,,,,,,,513.5049691996537,None,514.0887366998941,514.6890683998354,514.6723346998915,516.6728912000544,None,1,0.6121668997220695,2.6126716998405755,increament,0.6,15,standard,None,100,,,,,,,,m,22,225,fr,r,0,raw,2022-06-15_10h13.30.597,oddball,2022.1.2,59.96987118655631,
5,,,,,0,0,0,1,4,0,4,0,9,0,9,0,,,,,,,,,,,,,,,,,516.6894331998192,None,517.3231939999387,517.9232453997247,517.9068592996337,519.9076910000294,None,1,0.6135519002564251,2.6144304000772536,increament,0.6,15,standard,None,100,,,,,,,,m,22,225,fr,r,0,raw,2022-06-15_10h13.30.597,oddball,2022.1.2,59.96987118655631,
5,,,,,0,0,0,1,4,0,4,0,10,0,10,0,,,,,,,,,,,,,,,,,519.9241497996263,None,520.4743844000623,521.0746920998208,521.0582751999609,523.0590967996977,None,1,0.6124736000783741,2.613296799827367,increament,0.6,15,standard,None,100,,,,,,,,m,22,225,fr,r,0,raw,2022-06-15_10h13.30.597,oddball,2022.1.2,59.96987118655631,
5,,,,,0,0,0,1,4,0,4,0,11,0,11,0,,,,,,,,,,,,,,,,,523.0754535999149,None,523.7591337999329,524.3591514998116,524.3426588997245,526.3434472996742,None,1,0.6125572002492845,2.61341440025717,increament,0.6,15,standard,None,100,,,,,,,,m,22,225,fr,r,0,raw,2022-06-15_10h13.30.597,oddball,2022.1.2,59.96987118655631,
5,,,,,0,0,0,1,4,0,4,0,12,0,12,0,,,,,,,,,,,,,,,,,526.3601811998524,None,526.876706500072,527.4772354997694,527.4608346996829,529.4610496996902,None,1,0.6132402000948787,2.613427999895066,increament,0.6,15,standard,None,100,,,,,,,,m,22,225,fr,r,0,raw,2022-06-15_10h13.30.597,oddball,2022.1.2,59.96987118655631,
5,,,,,0,0,0,1,4,0,4,0,13,0,13,0,,,,,,,,,,,,,,,,,529.4778073998168,None,530.2450432996266,530.8450841996819,530.8282436998561,532.8291787998751,None,1,0.6095910998992622,2.6105622998438776,increament,0.6,15,standard,None,100,,,,,,,,m,22,225,fr,r,0,raw,2022-06-15_10h13.30.597,oddball,2022.1.2,59.96987118655631,
5,,,,,0,0,0,1,4,0,4,0,14,0,14,0,,,,,,,,,,,,,,,,,532.8460476999171,None,533.3791971998289,533.9798449999653,533.9629472000524,535.9636785998009,None,1,0.608044299762696,2.608763199765235,increament,0.6,15,standard,None,100,,,,,,,,m,22,225,fr,r,0,raw,2022-06-15_10h13.30.597,oddball,2022.1.2,59.96987118655631,
5,,,,,0,0,0,1,4,0,4,0,15,0,15,0,,,,,,,,,,,,,,,,,535.9802393000573,None,536.5637659998611,537.1641197996214,537.1477938997559,539.1481514996849,None,1,0.6116649000905454,2.611927399877459,increament,0.6,15,standard,None,100,,,,,,,,m,22,225,fr,r,0,raw,2022-06-15_10h13.30.597,oddball,2022.1.2,59.96987118655631,
5,,,,,0,0,0,1,4,0,4,0,16,0,16,0,,,,,,,,,,,,,,,,,539.1647914997302,None,539.7316077998839,540.4651031997055,540.4319287999533,542.4322780999355,None,0,0.7297355993650854,2.7300560995936394,increament,0.72,16,oddball,j,120,,,,,,,,m,22,225,fr,r,0,raw,2022-06-15_10h13.30.597,oddball,2022.1.2,59.96987118655631,
5,,,,,0,0,0,1,4,0,4,0,17,0,17,0,,,,,,,,,,,,,,,,,542.4488985999487,None,543.0330097000115,543.6331247999333,543.616978999693,545.6174462996423,None,1,0.6129000000655651,2.6133669004775584,increament,0.6,15,standard,None,100,,,,,,,,m,22,225,fr,r,0,raw,2022-06-15_10h13.30.597,oddball,2022.1.2,59.96987118655631,
5,,,,,0,0,0,1,4,0,4,0,18,0,18,0,,,,,,,,,,,,,,,,,545.6345098996535,None,546.1842371998355,546.784578199964,546.7677565999329,548.7684036996216,None,1,0.6093366998247802,2.6099680000916123,increament,0.6,15,standard,None,100,,,,,,,,m,22,225,fr,r,0,raw,2022-06-15_10h13.30.597,oddball,2022.1.2,59.96987118655631,
5,,,,,0,0,0,1,4,0,4,0,19,0,19,0,,,,,,,,,,,,,,,,,548.7851247000508,None,549.5853450000286,550.1854221997783,550.1688729999587,552.1700087999925,None,1,0.612907400354743,2.6141167003661394,increament,0.6,15,standard,None,100,,,,,,,,m,22,225,fr,r,0,raw,2022-06-15_10h13.30.597,oddball,2022.1.2,59.96987118655631,
5,,,,,0,0,0,1,4,0,4,0,20,0,20,0,,,,,,,,,,,,,,,,,552.1865211999975,None,552.9204650996253,553.7705850000493,553.7373021999374,555.7375841997564,j,1,0.8415506994351745,2.8418382997624576,increament,0.84,17,oddball,j,140,0.4144977005198598,,,,,,,m,22,225,fr,r,0,raw,2022-06-15_10h13.30.597,oddball,2022.1.2,59.96987118655631,
5,,,,,0,0,0,1,4,0,4,0,21,0,21,0,,,,,,,,,,,,,,,,,555.7544309999794,None,556.3379631997086,556.9383581997827,556.9222463998012,558.9223819999024,None,1,0.60823680087924,2.6082724006846547,increament,0.6,15,standard,None,100,,,,,,,,m,22,225,fr,r,0,raw,2022-06-15_10h13.30.597,oddball,2022.1.2,59.96987118655631,
5,,,,,0,0,0,1,4,0,4,0,22,0,22,0,,,,,,,,,,,,,,,,,558.9391533997841,None,559.4724421999417,560.0725654996932,560.0563614997081,562.0567932999693,None,1,0.6097529004327953,2.610163100063801,increament,0.6,15,standard,None,100,,,,,,,,m,22,225,fr,r,0,raw,2022-06-15_10h13.30.597,oddball,2022.1.2,59.96987118655631,
5,,,,,0,0,0,1,4,0,4,0,23,0,23,0,,,,,,,,,,,,,,,,,562.0735351997428,None,562.757632299792,563.3572498997673,563.3407747996971,565.3411757000722,None,1,0.6106416997499764,2.610981499776244,increament,0.6,15,standard,None,100,,,,,,,,m,22,225,fr,r,0,raw,2022-06-15_10h13.30.597,oddball,2022.1.2,59.96987118655631,
5,,,,,0,0,0,1,4,0,4,0,24,0,24,0,,,,,,,,,,,,,,,,,565.3579231998883,None,566.092210599687,566.6920205997303,566.6753259999678,568.6761167999357,None,1,0.6084314002655447,2.6092048003338277,increament,0.6,15,standard,None,100,,,,,,,,m,22,225,fr,r,0,raw,2022-06-15_10h13.30.597,oddball,2022.1.2,59.96987118655631,
5,,,,,0,0,0,1,4,0,4,0,25,0,25,0,,,,,,,,,,,,,,,,,568.6927879997529,None,569.3760722000152,569.9767272998579,569.9598886999302,571.9605061998591,None,1,0.6124529000371695,2.613055100198835,increament,0.6,15,standard,None,100,,,,,,,,m,22,225,fr,r,0,raw,2022-06-15_10h13.30.597,oddball,2022.1.2,59.96987118655631,
5,,,,,0,0,0,1,4,0,4,0,26,0,26,0,,,,,,,,,,,,,,,,,571.9772737999447,None,572.5108560998924,573.1109830997884,573.0942486999556,575.0949838999659,None,1,0.6122864000499249,2.6129898000508547,increament,0.6,15,standard,None,100,,,,,,,,m,22,225,fr,r,0,raw,2022-06-15_10h13.30.597,oddball,2022.1.2,59.96987118655631,
5,,,,,0,0,0,1,4,0,4,0,27,0,27,0,,,,,,,,,,,,,,,,,575.11165469978,None,575.9122464996763,576.5124677000567,576.4958649999462,578.4963075998239,None,1,0.6108817001804709,2.611263200175017,increament,0.6,15,standard,None,100,,,,,,,,m,22,225,fr,r,0,raw,2022-06-15_10h13.30.597,oddball,2022.1.2,59.96987118655631,
5,,,,,0,0,0,1,4,0,4,0,28,0,28,0,,,,,,,,,,,,,,,,,578.5131618999876,None,579.0466195996851,579.6470073997043,579.6304087997414,581.6308376998641,None,1,0.6125453994609416,2.61293639941141,increament,0.6,15,standard,None,100,,,,,,,,m,22,225,fr,r,0,raw,2022-06-15_10h13.30.597,oddball,2022.1.2,59.96987118655631,
5,,,,,0,0,0,1,4,0,4,0,29,0,29,0,,,,,,,,,,,,,,,,,581.647661099676,None,582.2643676996231,582.8646955997683,582.8481477000751,584.8489749999717,None,1,0.6136843003332615,2.6145278001204133,increament,0.6,15,standard,None,100,,,,,,,,m,22,225,fr,r,0,raw,2022-06-15_10h13.30.597,oddball,2022.1.2,59.96987118655631,
5,,,,,0,0,0,1,5,0,5,0,0,0,0,0,,,,,,,,,,,,,,,599.5767757999711,None,601.5548796998337,None,602.0718719996512,602.6720888996497,602.6553525999188,604.6562004997395,None,1,0.6119243996217847,2.612755300011486,decreament,0.6,11,standard,None,100,,584.8696955996566,None,,,,,m,22,225,fr,r,0,raw,2022-06-15_10h13.30.597,oddball,2022.1.2,59.96987118655631,
5,,,,,0,0,0,1,5,0,5,0,1,0,1,0,,,,,,,,,,,,,,,,,604.6729457997717,None,605.3063559997827,605.9067817996256,605.8899293998256,607.8914839997888,None,1,0.6137059996835887,2.6153588998131454,decreament,0.6,11,standard,None,100,,,,,,,,m,22,225,fr,r,0,raw,2022-06-15_10h13.30.597,oddball,2022.1.2,59.96987118655631,
5,,,,,0,0,0,1,5,0,5,0,2,0,2,0,,,,,,,,,,,,,,,,,607.9092534999363,None,608.5743640000001,609.175236299634,609.1580888996832,611.1591006000526,None,1,0.607421999797225,2.6084824996069074,decreament,0.6,11,standard,None,100,,,,,,,,m,22,225,fr,r,0,raw,2022-06-15_10h13.30.597,oddball,2022.1.2,59.96987118655631,
5,,,,,0,0,0,1,5,0,5,0,3,0,3,0,,,,,,,,,,,,,,,,,611.1754763000645,None,611.8092012996785,612.4090141998604,612.3923820997588,614.3932077996433,None,1,0.609311600215733,2.610153500456363,decreament,0.6,11,standard,None,100,,,,,,,,m,22,225,fr,r,0,raw,2022-06-15_10h13.30.597,oddball,2022.1.2,59.96987118655631,
5,,,,,0,0,0,1,5,0,5,0,4,0,4,0,,,,,,,,,,,,,,,,,614.4098934000358,None,615.1434736996889,615.7435309998691,615.7271860996261,617.7278216998093,None,1,0.6132026999257505,2.6138476002961397,decreament,0.6,11,standard,None,100,,,,,,,,m,22,225,fr,r,0,raw,2022-06-15_10h13.30.597,oddball,2022.1.2,59.96987118655631,
5,,,,,0,0,0,1,5,0,5,0,5,0,5,0,,,,,,,,,,,,,,,,,617.7444977997802,None,618.2946084998548,618.6613838998601,618.628420099616,620.6291672000661,None,0,0.3637951002456248,2.364610900171101,decreament,0.36,13,oddball,j,60,,,,,,,,m,22,225,fr,r,0,raw,2022-06-15_10h13.30.597,oddball,2022.1.2,59.96987118655631,
5,,,,,0,0,0,1,5,0,5,0,6,0,6,0,,,,,,,,,,,,,,,,,620.6461717998609,None,621.3292222996242,621.929716499988,621.9135336000472,623.9140355000272,None,1,0.6126872999593616,2.613208900205791,decreament,0.6,11,standard,None,100,,,,,,,,m,22,225,fr,r,0,raw,2022-06-15_10h13.30.597,oddball,2022.1.2,59.96987118655631,
5,,,,,0,0,0,1,5,0,5,0,7,0,7,0,,,,,,,,,,,,,,,,,623.9301376999356,None,624.5308039998636,625.1308100000024,625.1142429998145,627.1145949000493,None,1,0.6121278000064194,2.612486899830401,decreament,0.6,11,standard,None,100,,,,,,,,m,22,225,fr,r,0,raw,2022-06-15_10h13.30.597,oddball,2022.1.2,59.96987118655631,
5,,,,,0,0,0,1,5,0,5,0,8,0,8,0,,,,,,,,,,,,,,,,,627.1311915996484,None,627.7651094999164,628.365296300035,628.3484592996538,630.3498015999794,None,1,0.6098916004411876,2.6113306004554033,decreament,0.6,11,standard,None,100,,,,,,,,m,22,225,fr,r,0,raw,2022-06-15_10h13.30.597,oddball,2022.1.2,59.96987118655631,
5,,,,,0,0,0,1,5,0,5,0,9,0,9,0,,,,,,,,,,,,,,,,,630.3661092999391,None,631.0498563000001,631.6496602999978,631.6331478999928,633.6336407996714,None,1,0.6100288000889122,2.6104701003059745,decreament,0.6,11,standard,None,100,,,,,,,,m,22,225,fr,r,0,raw,2022-06-15_10h13.30.597,oddball,2022.1.2,59.96987118655631,
5,,,,,0,0,0,1,5,0,5,0,10,0,10,0,,,,,,,,,,,,,,,,,633.6510307998396,None,634.2340048998594,634.8347124997526,634.8183569000103,636.8183479998261,None,1,0.6134485001675785,2.613241800107062,decreament,0.6,11,standard,None,100,,,,,,,,m,22,225,fr,r,0,raw,2022-06-15_10h13.30.597,oddball,2022.1.2,59.96987118655631,
5,,,,,0,0,0,1,5,0,5,0,11,0,11,0,,,,,,,,,,,,,,,,,636.8349333996885,None,637.4852948999032,638.085630599875,638.0687424000353,640.0694331997074,None,1,0.613518700003624,2.614199699833989,decreament,0.6,11,standard,None,100,,,,,,,,m,22,225,fr,r,0,raw,2022-06-15_10h13.30.597,oddball,2022.1.2,59.96987118655631,
5,,,,,0,0,0,1,5,0,5,0,12,0,12,0,,,,,,,,,,,,,,,,,640.0862475996837,None,640.7533038998954,641.3536032997072,641.3370809997432,643.3374007996172,None,1,0.612120300065726,2.612360500264913,decreament,0.6,11,standard,None,100,,,,,,,,m,22,225,fr,r,0,raw,2022-06-15_10h13.30.597,oddball,2022.1.2,59.96987118655631,
5,,,,,0,0,0,1,5,0,5,0,13,0,13,0,,,,,,,,,,,,,,,,,643.3540119999088,None,643.97140150005,644.4545251000673,644.4380339998752,646.4388252999634,None,0,0.49325549975037575,2.494073999579996,decreament,0.48,14,oddball,j,80,,,,,,,,m,22,225,fr,r,0,raw,2022-06-15_10h13.30.597,oddball,2022.1.2,59.96987118655631,
5,,,,,0,0,0,1,5,0,5,0,14,0,14,0,,,,,,,,,,,,,,,,,646.4552285997197,None,647.055922599975,647.6560827996582,647.6396631998941,649.6400506999344,None,1,0.6102699995972216,2.6106124999932945,decreament,0.6,11,standard,None,100,,,,,,,,m,22,225,fr,r,0,raw,2022-06-15_10h13.30.597,oddball,2022.1.2,59.96987118655631,
5,,,,,0,0,0,1,5,0,5,0,15,0,15,0,,,,,,,,,,,,,,,,,649.6568126999773,None,650.22393810004,650.8236364000477,650.80704579968,652.807753500063,None,1,0.610360300168395,2.611057700123638,decreament,0.6,11,standard,None,100,,,,,,,,m,22,225,fr,r,0,raw,2022-06-15_10h13.30.597,oddball,2022.1.2,59.96987118655631,
5,,,,,0,0,0,1,5,0,5,0,16,0,16,0,,,,,,,,,,,,,,,,,652.8243811996654,None,653.54164139973,654.1413447000086,654.1251972997561,656.1263623996638,None,1,0.6083586006425321,2.609572000335902,decreament,0.6,11,standard,None,100,,,,,,,,m,22,225,fr,r,0,raw,2022-06-15_10h13.30.597,oddball,2022.1.2,59.96987118655631,
5,,,,,0,0,0,1,5,0,5,0,17,0,17,0,,,,,,,,,,,,,,,,,656.1444472000003,None,656.7760131997056,657.3762635998428,657.359991400037,659.3604799997993,j,0,0.6115160002373159,2.6119502005167305,decreament,0.6,11,standard,None,100,1.2856536004692316,,,,,,,m,22,225,fr,r,0,raw,2022-06-15_10h13.30.597,oddball,2022.1.2,59.96987118655631,
5,,,,,0,0,0,1,5,0,5,0,18,0,18,0,,,,,,,,,,,,,,,,,659.3768976996653,None,660.010759699624,660.6110419998877,660.594377100002,662.5948874996975,j,0,0.6103608999401331,2.610811599995941,decreament,0.6,11,standard,None,100,1.3877961002290249,,,,,,,m,22,225,fr,r,0,raw,2022-06-15_10h13.30.597,oddball,2022.1.2,59.96987118655631,
5,,,,,0,0,0,1,5,0,5,0,19,0,19,0,,,,,,,,,,,,,,,,,662.6116182999685,None,663.1950916000642,663.7954544997774,663.7794351996854,665.7792441998608,None,1,0.6113602998666465,2.611181499902159,decreament,0.6,11,standard,None,100,,,,,,,,m,22,225,fr,r,0,raw,2022-06-15_10h13.30.597,oddball,2022.1.2,59.96987118655631,
5,,,,,0,0,0,1,5,0,5,0,20,0,20,0,,,,,,,,,,,,,,,,,665.7959511000663,None,666.3796115997247,666.9801107998937,666.9635425000452,668.9640995999798,None,1,0.6132424999959767,2.613781299907714,decreament,0.6,11,standard,None,100,,,,,,,,m,22,225,fr,r,0,raw,2022-06-15_10h13.30.597,oddball,2022.1.2,59.96987118655631,
5,,,,,0,0,0,1,5,0,5,0,21,0,21,0,,,,,,,,,,,,,,,,,668.9805618999526,None,669.614151599817,670.2144029997289,670.197708599735,672.198614299763,None,1,0.6091430997475982,2.6100591998547316,decreament,0.6,11,standard,None,100,,,,,,,,m,22,225,fr,r,0,raw,2022-06-15_10h13.30.597,oddball,2022.1.2,59.96987118655631,
5,,,,,0,0,0,1,5,0,5,0,22,0,22,0,,,,,,,,,,,,,,,,,672.2149664000608,None,673.0155797996558,673.6157245999202,673.5991850998253,675.5996082997881,None,1,0.6132784001529217,2.6136596999131143,decreament,0.6,11,standard,None,100,,,,,,,,m,22,225,fr,r,0,raw,2022-06-15_10h13.30.597,oddball,2022.1.2,59.96987118655631,
5,,,,,0,0,0,1,5,0,5,0,23,0,23,0,,,,,,,,,,,,,,,,,675.6166182998568,None,676.3500131000765,676.9504724997096,676.9338119998574,678.9345394996926,None,1,0.6136730001308024,2.6143761998973787,decreament,0.6,11,standard,None,100,,,,,,,,m,22,225,fr,r,0,raw,2022-06-15_10h13.30.597,oddball,2022.1.2,59.96987118655631,
5,,,,,0,0,0,1,5,0,5,0,24,0,24,0,,,,,,,,,,,,,,,,,678.9512994000688,None,679.6849171998911,680.2850361000746,680.2681064000353,682.2689004996791,None,1,0.6126413000747561,2.6134227998554707,decreament,0.6,11,standard,None,100,,,,,,,,m,22,225,fr,r,0,raw,2022-06-15_10h13.30.597,oddball,2022.1.2,59.96987118655631,
5,,,,,0,0,0,1,5,0,5,0,25,0,25,0,,,,,,,,,,,,,,,,,682.2855121996254,None,682.969302599784,683.5694631999359,683.5526963998564,685.5535245998763,None,1,0.6121215000748634,2.6129180998541415,decreament,0.6,11,standard,None,100,,,,,,,,m,22,225,fr,r,0,raw,2022-06-15_10h13.30.597,oddball,2022.1.2,59.96987118655631,
5,,,,,0,0,0,1,5,0,5,0,26,0,26,0,,,,,,,,,,,,,,,,,685.5701720998622,None,686.3369994000532,686.937490100041,686.9208647999913,688.9215632998385,None,1,0.6148512004874647,2.6155495001003146,decreament,0.6,11,standard,None,100,,,,,,,,m,22,225,fr,r,0,raw,2022-06-15_10h13.30.597,oddball,2022.1.2,59.96987118655631,
5,,,,,0,0,0,1,5,0,5,0,27,0,27,0,,,,,,,,,,,,,,,,,688.9381983000785,None,689.6385713997297,689.8882859000005,689.8556490996853,691.8558673998341,j,1,0.24226640025153756,2.242593100294471,decreament,0.24,12,oddball,j,40,0.8862569998018444,,,,,,,m,22,225,fr,r,0,raw,2022-06-15_10h13.30.597,oddball,2022.1.2,59.96987118655631,
5,,,,,0,0,0,1,5,0,5,0,28,0,28,0,,,,,,,,,,,,,,,,,691.8726626997814,None,692.5728881000541,693.1730529996566,693.1567503996193,695.1569520998746,None,1,0.6123076002113521,2.6124292998574674,decreament,0.6,11,standard,None,100,,,,,,,,m,22,225,fr,r,0,raw,2022-06-15_10h13.30.597,oddball,2022.1.2,59.96987118655631,
5,,,,,0,0,0,1,5,0,5,0,29,0,29,0,,,,,,,,,,,,,,,,,695.1737738000229,None,695.7740523000248,696.3741792999208,696.3577608000487,698.3584904996678,None,1,0.6127564003691077,2.6135127004235983,decreament,0.6,11,standard,None,100,,,,,,,,m,22,225,fr,r,0,raw,2022-06-15_10h13.30.597,oddball,2022.1.2,59.96987118655631,
5,,,,,0,0,0,1,6,0,6,0,0,0,0,0,,,,,,,,,,,,,,,706.0155198997818,None,712.0468202996999,None,712.7139496998861,713.3139684996568,713.2974664000794,715.2984803998843,None,1,0.6117906006984413,2.6127851004712284,increament,0.6,15,standard,None,100,,698.3753026998602,None,,,,,m,22,225,fr,r,0,raw,2022-06-15_10h13.30.597,oddball,2022.1.2,59.96987118655631,
5,,,,,0,0,0,1,6,0,6,0,1,0,1,0,,,,,,,,,,,,,,,,,715.3151883999817,None,715.8987586000003,716.4987041000277,716.4820511997677,718.4827640997246,None,1,0.6113482001237571,2.612031899858266,increament,0.6,15,standard,None,100,,,,,,,,m,22,225,fr,r,0,raw,2022-06-15_10h13.30.597,oddball,2022.1.2,59.96987118655631,
5,,,,,0,0,0,1,6,0,6,0,2,0,2,0,,,,,,,,,,,,,,,,,718.4991089999676,None,719.1497615999542,719.7496528998017,719.7332945996895,721.7338286000304,None,1,0.6120715001598,2.6125862998887897,increament,0.6,15,standard,None,100,,,,,,,,m,22,225,fr,r,0,raw,2022-06-15_10h13.30.597,oddball,2022.1.2,59.96987118655631,
5,,,,,0,0,0,1,6,0,6,0,3,0,3,0,,,,,,,,,,,,,,,,,721.7507305997424,None,722.3342724996619,722.9344673999585,722.9177311998792,724.9188055000268,None,1,0.6122933002188802,2.6134193004108965,increament,0.6,15,standard,None,100,,,,,,,,m,22,225,fr,r,0,raw,2022-06-15_10h13.30.597,oddball,2022.1.2,59.96987118655631,
5,,,,,0,0,0,1,6,0,6,0,4,0,4,0,,,,,,,,,,,,,,,,,724.9353673998266,None,725.6355743999593,726.2355354996398,726.2189263999462,728.2198385000229,None,1,0.6102693001739681,2.611165900249034,increament,0.6,15,standard,None,100,,,,,,,,m,22,225,fr,r,0,raw,2022-06-15_10h13.30.597,oddball,2022.1.2,59.96987118655631,
5,,,,,0,0,0,1,6,0,6,0,5,0,5,0,,,,,,,,,,,,,,,,,728.2362913000397,None,728.8867934998125,729.4868437997065,729.4702329998836,731.4710480999202,None,1,0.6100000003352761,2.6109331003390253,increament,0.6,15,standard,None,100,,,,,,,,m,22,225,fr,r,0,raw,2022-06-15_10h13.30.597,oddball,2022.1.2,59.96987118655631,
5,,,,,0,0,0,1,6,0,6,0,6,0,6,0,,,,,,,,,,,,,,,,,731.4896884998307,None,732.0544929997995,732.6546351998113,732.6384109999053,734.6387288998812,None,1,0.6115189003758132,2.6117513002827764,increament,0.6,15,standard,None,100,,,,,,,,m,22,225,fr,r,0,raw,2022-06-15_10h13.30.597,oddball,2022.1.2,59.96987118655631,
5,,,,,0,0,0,1,6,0,6,0,7,0,7,0,,,,,,,,,,,,,,,,,734.6556881996803,None,735.3060761997476,735.9058974999934,735.8890738999471,737.8902171999216,None,1,0.6089739999733865,2.6102157002314925,increament,0.6,15,standard,None,100,,,,,,,,m,22,225,fr,r,0,raw,2022-06-15_10h13.30.597,oddball,2022.1.2,59.96987118655631,
5,,,,,0,0,0,1,6,0,6,0,8,0,8,0,,,,,,,,,,,,,,,,,737.906543799676,None,738.6404003999196,739.2403357997537,739.2238491000608,741.2245253999718,None,1,0.6122149000875652,2.6129116998054087,increament,0.6,15,standard,None,100,,,,,,,,m,22,225,fr,r,0,raw,2022-06-15_10h13.30.597,oddball,2022.1.2,59.96987118655631,
5,,,,,0,0,0,1,6,0,6,0,9,0,9,0,,,,,,,,,,,,,,,,,741.2413275996223,None,741.9250088999979,742.5252270000055,742.5083363000304,744.509156299755,None,1,0.6117537999525666,2.6125627998262644,increament,0.6,15,standard,None,100,,,,,,,,m,22,225,fr,r,0,raw,2022-06-15_10h13.30.597,oddball,2022.1.2,59.96987118655631,
5,,,,,0,0,0,1,6,0,6,0,10,0,10,0,,,,,,,,,,,,,,,,,744.5262703998014,None,745.1259197997861,745.7260297997855,745.7096593999304,747.7105425996706,None,1,0.6147739002481103,2.615675900131464,increament,0.6,15,standard,None,100,,,,,,,,m,22,225,fr,r,0,raw,2022-06-15_10h13.30.597,oddball,2022.1.2,59.96987118655631,
5,,,,,0,0,0,1,6,0,6,0,11,0,11,0,,,,,,,,,,,,,,,,,747.7271270998754,None,748.3273938000202,749.0608091000468,749.0275776996277,751.0285879997537,None,0,0.7291790000163019,2.730261200107634,increament,0.72,16,oddball,j,120,,,,,,,,m,22,225,fr,r,0,raw,2022-06-15_10h13.30.597,oddball,2022.1.2,59.96987118655631,
5,,,,,0,0,0,1,6,0,6,0,12,0,12,0,,,,,,,,,,,,,,,,,751.0455799996853,None,751.6452303999104,752.2455336996354,752.2289559999481,754.2294540000148,None,1,0.6126292999833822,2.6130327000282705,increament,0.6,15,standard,None,100,,,,,,,,m,22,225,fr,r,0,raw,2022-06-15_10h13.30.597,oddball,2022.1.2,59.96987118655631,
5,,,,,0,0,0,1,6,0,6,0,13,0,13,0,,,,,,,,,,,,,,,,,754.2460257997736,None,754.8631644998677,755.4633845998906,755.4470617999323,757.4470580997877,None,1,0.610820900183171,2.610673800110817,increament,0.6,15,standard,None,100,,,,,,,,m,22,225,fr,r,0,raw,2022-06-15_10h13.30.597,oddball,2022.1.2,59.96987118655631,
5,,,,,0,0,0,1,6,0,6,0,14,0,14,0,,,,,,,,,,,,,,,,,757.4636903000064,None,758.1478222999722,758.7477635997348,758.7310918997973,760.7318714000285,None,1,0.6127987001091242,2.6136003001593053,increament,0.6,15,standard,None,100,,,,,,,,m,22,225,fr,r,0,raw,2022-06-15_10h13.30.597,oddball,2022.1.2,59.96987118655631,
5,,,,,0,0,0,1,6,0,6,0,15,0,15,0,,,,,,,,,,,,,,,,,760.748721699696,None,761.3487129998393,761.9493561997078,761.9327720999718,763.9335248996504,None,1,0.6143492003902793,2.6150741004385054,increament,0.6,15,standard,None,100,,,,,,,,m,22,225,fr,r,0,raw,2022-06-15_10h13.30.597,oddball,2022.1.2,59.96987118655631,
5,,,,,0,0,0,1,6,0,6,0,16,0,16,0,,,,,,,,,,,,,,,,,763.9498727000318,None,764.4833255996928,765.083568399772,765.0669125998393,767.067548699677,None,1,0.6151628005318344,2.615793800447136,increament,0.6,15,standard,None,100,,,,,,,,m,22,225,fr,r,0,raw,2022-06-15_10h13.30.597,oddball,2022.1.2,59.96987118655631,
5,,,,,0,0,0,1,6,0,6,0,17,0,17,0,,,,,,,,,,,,,,,,,767.0845363996923,None,767.8847054997459,768.4851102996618,768.468432799913,770.4692408000119,None,1,0.6120815998874605,2.6128767002373934,increament,0.6,15,standard,None,100,,,,,,,,m,22,225,fr,r,0,raw,2022-06-15_10h13.30.597,oddball,2022.1.2,59.96987118655631,
5,,,,,0,0,0,1,6,0,6,0,18,0,18,0,,,,,,,,,,,,,,,,,770.4859776999801,None,771.1691296999343,771.7694144998677,771.7527248999104,773.7534056999721,None,1,0.6122850002720952,2.612942200154066,increament,0.6,15,standard,None,100,,,,,,,,m,22,225,fr,r,0,raw,2022-06-15_10h13.30.597,oddball,2022.1.2,59.96987118655631,
5,,,,,0,0,0,1,6,0,6,0,19,0,19,0,,,,,,,,,,,,,,,,,773.7702878997661,None,774.5707617998123,775.17126740003,775.1543299998157,777.1549586998299,None,1,0.6106779002584517,2.6112661003135145,increament,0.6,15,standard,None,100,,,,,,,,m,22,225,fr,r,0,raw,2022-06-15_10h13.30.597,oddball,2022.1.2,59.96987118655631,
5,,,,,0,0,0,1,6,0,6,0,20,0,20,0,,,,,,,,,,,,,,,,,777.1717520998791,None,777.7050272999331,778.3051772997715,778.2884764000773,780.2892592996359,None,1,0.6124877999536693,2.6132713998667896,increament,0.6,15,standard,None,100,,,,,,,,m,22,225,fr,r,0,raw,2022-06-15_10h13.30.597,oddball,2022.1.2,59.96987118655631,
5,,,,,0,0,0,1,6,0,6,0,21,0,21,0,,,,,,,,,,,,,,,,,780.3060176996514,None,780.8563014999963,781.4564589997754,781.4399616997689,783.4409508998506,None,1,0.61272899992764,2.613766299560666,increament,0.6,15,standard,None,100,,,,,,,,m,22,225,fr,r,0,raw,2022-06-15_10h13.30.597,oddball,2022.1.2,59.96987118655631,
5,,,,,0,0,0,1,6,0,6,0,22,0,22,0,,,,,,,,,,,,,,,,,783.4576044999994,None,784.0242152996361,784.6243332996964,784.6076768999919,786.6080405996181,None,1,0.6133114998228848,2.613632299937308,increament,0.6,15,standard,None,100,,,,,,,,m,22,225,fr,r,0,raw,2022-06-15_10h13.30.597,oddball,2022.1.2,59.96987118655631,
5,,,,,0,0,0,1,6,0,6,0,23,0,23,0,,,,,,,,,,,,,,,,,786.6250509000383,None,787.2086432999931,787.8090960998088,787.7922302000225,789.7930429000407,None,1,0.6126227001659572,2.6134336004033685,increament,0.6,15,standard,None,100,,,,,,,,m,22,225,fr,r,0,raw,2022-06-15_10h13.30.597,oddball,2022.1.2,59.96987118655631,
5,,,,,0,0,0,1,6,0,6,0,24,0,24,0,,,,,,,,,,,,,,,,,789.809827900026,None,790.5432301000692,791.5102025000378,791.4777603000402,793.4780085999519,j,1,0.9636320001445711,2.9638526998460293,increament,0.96,18,oddball,j,160,0.5193687006831169,,,,,,,m,22,225,fr,r,0,raw,2022-06-15_10h13.30.597,oddball,2022.1.2,59.96987118655631,
5,,,,,0,0,0,1,6,0,6,0,25,0,25,0,,,,,,,,,,,,,,,,,793.4945366997272,None,794.0612265998498,794.6615974996239,794.6448475997895,796.6453919997439,None,1,0.6134000001475215,2.6139161000028253,increament,0.6,15,standard,None,100,,,,,,,,m,22,225,fr,r,0,raw,2022-06-15_10h13.30.597,oddball,2022.1.2,59.96987118655631,
5,,,,,0,0,0,1,6,0,6,0,26,0,26,0,,,,,,,,,,,,,,,,,796.662433099933,None,797.3962666997686,797.9962752996944,797.9797282000072,799.9801169000566,None,1,0.6114108003675938,2.611738500185311,increament,0.6,15,standard,None,100,,,,,,,,m,22,225,fr,r,0,raw,2022-06-15_10h13.30.597,oddball,2022.1.2,59.96987118655631,
5,,,,,0,0,0,1,6,0,6,0,27,0,27,0,,,,,,,,,,,,,,,,,799.9969501998276,None,800.5470159999095,801.147454699967,801.1306254998781,803.1313851000741,None,1,0.6130210999399424,2.6137605998665094,increament,0.6,15,standard,None,100,,,,,,,,m,22,225,fr,r,0,raw,2022-06-15_10h13.30.597,oddball,2022.1.2,59.96987118655631,
5,,,,,0,0,0,1,6,0,6,0,28,0,28,0,,,,,,,,,,,,,,,,,803.1482257996686,None,803.7988197999075,804.648433199618,804.6154545000754,806.616107000038,None,0,0.8437923002056777,2.8443999998271465,increament,0.84,17,oddball,j,140,,,,,,,,m,22,225,fr,r,0,raw,2022-06-15_10h13.30.597,oddball,2022.1.2,59.96987118655631,
5,,,,,0,0,0,1,6,0,6,0,29,0,29,0,,,,,,,,,,,,,,,,,806.632448699791,None,807.4331645998172,808.0334455999546,808.016657799948,810.0173599999398,None,1,0.6125185000710189,2.613182100467384,increament,0.6,15,standard,None,100,,,,,,,,m,22,225,fr,r,0,raw,2022-06-15_10h13.30.597,oddball,2022.1.2,59.96987118655631,
5,,,,,0,0,0,1,7,0,7,0,0,0,0,0,,,,,,,,,,,,,,,815.1101512997411,None,817.370255399961,None,818.0872844997793,818.6871402999386,818.6706947996281,820.6714053996839,None,1,0.6119237998500466,2.612630099989474,decreament,0.6,11,standard,None,100,,810.0341165000573,None,,,,,m,22,225,fr,r,0,raw,2022-06-15_10h13.30.597,oddball,2022.1.2,59.96987118655631,
5,,,,,0,0,0,1,7,0,7,0,1,0,1,0,,,,,,,,,,,,,,,,,820.6879699998535,None,821.3384074997157,821.9384614997543,821.9220944000408,823.9225715999492,None,1,0.6135170999914408,2.6139560001902282,decreament,0.6,11,standard,None,100,,,,,,,,m,22,225,fr,r,0,raw,2022-06-15_10h13.30.597,oddball,2022.1.2,59.96987118655631,
5,,,,,0,0,0,1,7,0,7,0,2,0,2,0,,,,,,,,,,,,,,,,,823.9393620998599,None,824.689680499956,825.2896125996485,825.2730934000574,827.2740715998225,None,1,0.6127836005762219,2.6138212005607784,decreament,0.6,11,standard,None,100,,,,,,,,m,22,225,fr,r,0,raw,2022-06-15_10h13.30.597,oddball,2022.1.2,59.96987118655631,
5,,,,,0,0,0,1,7,0,7,0,3,0,3,0,,,,,,,,,,,,,,,,,827.2903755996376,None,827.9740968998522,828.5741629996337,828.5580314998515,830.5584219000302,None,1,0.6137545998208225,2.6140732001513243,decreament,0.6,11,standard,None,100,,,,,,,,m,22,225,fr,r,0,raw,2022-06-15_10h13.30.597,oddball,2022.1.2,59.96987118655631,
5,,,,,0,0,0,1,7,0,7,0,4,0,4,0,,,,,,,,,,,,,,,,,830.5751013997942,None,831.2254172000103,831.8257224997506,831.8090492999181,833.8100721999072,None,1,0.6126162000000477,2.613722200039774,decreament,0.6,11,standard,None,100,,,,,,,,m,22,225,fr,r,0,raw,2022-06-15_10h13.30.597,oddball,2022.1.2,59.96987118655631,
5,,,,,0,0,0,1,7,0,7,0,5,0,5,0,,,,,,,,,,,,,,,,,833.8263932997361,None,834.409886599984,835.010319699999,834.9937340999022,836.9943331000395,None,1,0.6138145001605153,2.6144116003997624,decreament,0.6,11,standard,None,100,,,,,,,,m,22,225,fr,r,0,raw,2022-06-15_10h13.30.597,oddball,2022.1.2,59.96987118655631,
5,,,,,0,0,0,1,7,0,7,0,6,0,6,0,,,,,,,,,,,,,,,,,837.0107921999879,None,837.6946231997572,838.2945042997599,838.2781223999336,840.2790263998322,None,1,0.6120531000196934,2.612929899711162,decreament,0.6,11,standard,None,100,,,,,,,,m,22,225,fr,r,0,raw,2022-06-15_10h13.30.597,oddball,2022.1.2,59.96987118655631,
5,,,,,0,0,0,1,7,0,7,0,7,0,7,0,,,,,,,,,,,,,,,,,840.296175299678,None,840.8292598999105,841.429306099657,841.4130150000565,843.4136577998288,None,1,0.6097409003414214,2.610296600032598,decreament,0.6,11,standard,None,100,,,,,,,,m,22,225,fr,r,0,raw,2022-06-15_10h13.30.597,oddball,2022.1.2,59.96987118655631,
5,,,,,0,0,0,1,7,0,7,0,8,0,8,0,,,,,,,,,,,,,,,,,843.4297904996201,None,843.9468517000787,844.5471653998829,844.5304268999025,846.5310380998999,None,1,0.6117791002616286,2.612383700441569,decreament,0.6,11,standard,None,100,,,,,,,,m,22,225,fr,r,0,raw,2022-06-15_10h13.30.597,oddball,2022.1.2,59.96987118655631,
5,,,,,0,0,0,1,7,0,7,0,9,0,9,0,,,,,,,,,,,,,,,,,846.5476104998961,None,847.1980665996671,847.7981791999191,847.7817386998795,849.7824725997634,None,1,0.6121698999777436,2.6129564000293612,decreament,0.6,11,standard,None,100,,,,,,,,m,22,225,fr,r,0,raw,2022-06-15_10h13.30.597,oddball,2022.1.2,59.96987118655631,
5,,,,,0,0,0,1,7,0,7,0,10,0,10,0,,,,,,,,,,,,,,,,,849.799290899653,None,850.5325893997215,851.1328928996809,851.1161277997307,853.1170529997908,None,1,0.613982499577105,2.61489599943161,decreament,0.6,11,standard,None,100,,,,,,,,m,22,225,fr,r,0,raw,2022-06-15_10h13.30.597,oddball,2022.1.2,59.96987118655631,
5,,,,,0,0,0,1,7,0,7,0,11,0,11,0,,,,,,,,,,,,,,,,,853.1336681996472,None,853.7340241000056,854.3340555997565,854.3177412999794,856.3184938998893,None,1,0.6130056004039943,2.6138015002943575,decreament,0.6,11,standard,None,100,,,,,,,,m,22,225,fr,r,0,raw,2022-06-15_10h13.30.597,oddball,2022.1.2,59.96987118655631,
5,,,,,0,0,0,1,7,0,7,0,12,0,12,0,,,,,,,,,,,,,,,,,856.3349559996277,None,856.9184652999975,857.4022979000583,857.3686318998225,859.3697307999246,None,0,0.47946410020813346,2.480598400346935,decreament,0.48,14,oddball,j,80,,,,,,,,m,22,225,fr,r,0,raw,2022-06-15_10h13.30.597,oddball,2022.1.2,59.96987118655631,
5,,,,,0,0,0,1,7,0,7,0,13,0,13,0,,,,,,,,,,,,,,,,,859.3859778996557,None,860.1029973998666,860.7031410997733,860.6864787000231,862.6876188996248,None,1,0.6113395998254418,2.6125399000011384,decreament,0.6,11,standard,None,100,,,,,,,,m,22,225,fr,r,0,raw,2022-06-15_10h13.30.597,oddball,2022.1.2,59.96987118655631,
5,,,,,0,0,0,1,7,0,7,0,14,0,14,0,,,,,,,,,,,,,,,,,862.7041898998432,None,863.3873350997455,863.9882579999976,863.9714051997289,865.9717355999164,None,1,0.6139277997426689,2.6141948997974396,decreament,0.6,11,standard,None,100,,,,,,,,m,22,225,fr,r,0,raw,2022-06-15_10h13.30.597,oddball,2022.1.2,59.96987118655631,
5,,,,,0,0,0,1,7,0,7,0,15,0,15,0,,,,,,,,,,,,,,,,,865.9884575000033,None,866.6890193000436,867.2889713998884,867.2726020999253,869.2729674000293,None,1,0.6091411001980305,2.609456500504166,decreament,0.6,11,standard,None,100,,,,,,,,m,22,225,fr,r,0,raw,2022-06-15_10h13.30.597,oddball,2022.1.2,59.96987118655631,
5,,,,,0,0,0,1,7,0,7,0,16,0,16,0,,,,,,,,,,,,,,,,,869.2897357996553,None,869.9067767998204,870.5067329998128,870.4904801999219,872.4907550998032,None,1,0.61311319982633,2.613367899786681,decreament,0.6,11,standard,None,100,,,,,,,,m,22,225,fr,r,0,raw,2022-06-15_10h13.30.597,oddball,2022.1.2,59.96987118655631,
5,,,,,0,0,0,1,7,0,7,0,17,0,17,0,,,,,,,,,,,,,,,,,872.5075312000699,None,873.1248916997574,873.724836899899,873.7081442000344,875.7091009998694,None,1,0.6124029005877674,2.6134050004184246,decreament,0.6,11,standard,None,100,,,,,,,,m,22,225,fr,r,0,raw,2022-06-15_10h13.30.597,oddball,2022.1.2,59.96987118655631,
5,,,,,0,0,0,1,7,0,7,0,18,0,18,0,,,,,,,,,,,,,,,,,875.725500300061,None,876.3091686996631,876.9095406997949,876.8928525000811,878.8932917998172,None,1,0.6099895997904241,2.6103860000148416,decreament,0.6,11,standard,None,100,,,,,,,,m,22,225,fr,r,0,raw,2022-06-15_10h13.30.597,oddball,2022.1.2,59.96987118655631,
5,,,,,0,0,0,1,7,0,7,0,19,0,19,0,,,,,,,,,,,,,,,,,878.9100321996957,None,879.4439606000669,880.044320399873,880.0279326997697,882.02817819966,None,1,0.610918499995023,2.611133099999279,decreament,0.6,11,standard,None,100,,,,,,,,m,22,225,fr,r,0,raw,2022-06-15_10h13.30.597,oddball,2022.1.2,59.96987118655631,
5,,,,,0,0,0,1,7,0,7,0,20,0,20,0,,,,,,,,,,,,,,,,,882.0445558000356,None,882.8448707996868,883.4450151999481,883.4284295998514,885.4291532998905,None,1,0.6106455996632576,2.6113853994756937,decreament,0.6,11,standard,None,100,,,,,,,,m,22,225,fr,r,0,raw,2022-06-15_10h13.30.597,oddball,2022.1.2,59.96987118655631,
5,,,,,0,0,0,1,7,0,7,0,21,0,21,0,,,,,,,,,,,,,,,,,885.4459160999395,None,886.0795042999089,886.6799868000671,886.6628580000252,888.6638726997189,None,1,0.6120365997776389,2.6130718998610973,decreament,0.6,11,standard,None,100,,,,,,,,m,22,225,fr,r,0,raw,2022-06-15_10h13.30.597,oddball,2022.1.2,59.96987118655631,
5,,,,,0,0,0,1,7,0,7,0,22,0,22,0,,,,,,,,,,,,,,,,,888.6806357996538,None,889.2976132999174,889.8977758996189,889.8808500999585,891.8818937996402,None,1,0.6107169999741018,2.61182550014928,decreament,0.6,11,standard,None,100,,,,,,,,m,22,225,fr,r,0,raw,2022-06-15_10h13.30.597,oddball,2022.1.2,59.96987118655631,
5,,,,,0,0,0,1,7,0,7,0,23,0,23,0,,,,,,,,,,,,,,,,,891.8983608996496,None,892.4650302999653,892.7155068996362,892.6819796999916,894.6829057000577,j,1,0.24603300029411912,2.246944300364703,decreament,0.24,12,oddball,j,40,0.48276450065895915,,,,,,,m,22,225,fr,r,0,raw,2022-06-15_10h13.30.597,oddball,2022.1.2,59.96987118655631,
5,,,,,0,0,0,1,7,0,7,0,24,0,24,0,,,,,,,,,,,,,,,,,894.6994766998105,None,895.3331528999843,895.9330658996478,895.9165598996915,897.9176229997538,None,1,0.6121968002989888,2.6133722001686692,decreament,0.6,11,standard,None,100,,,,,,,,m,22,225,fr,r,0,raw,2022-06-15_10h13.30.597,oddball,2022.1.2,59.96987118655631,
5,,,,,0,0,0,1,7,0,7,0,25,0,25,0,,,,,,,,,,,,,,,,,897.9341102000326,None,898.4841478997841,899.0844974997453,899.0679831998423,901.0688312998973,None,1,0.608766199555248,2.6096370997838676,decreament,0.6,11,standard,None,100,,,,,,,,m,22,225,fr,r,0,raw,2022-06-15_10h13.30.597,oddball,2022.1.2,59.96987118655631,
5,,,,,0,0,0,1,7,0,7,0,26,0,26,0,,,,,,,,,,,,,,,,,901.0851787999272,None,901.8022700999863,902.4023584998213,902.3856395999901,904.3863103999756,None,1,0.6126532000489533,2.613347800448537,decreament,0.6,11,standard,None,100,,,,,,,,m,22,225,fr,r,0,raw,2022-06-15_10h13.30.597,oddball,2022.1.2,59.96987118655631,
5,,,,,0,0,0,1,7,0,7,0,27,0,27,0,,,,,,,,,,,,,,,,,904.4033369999379,None,905.2036083997227,905.570275799837,905.5371310999617,907.5383301996626,j,1,0.36259409971535206,2.3646148000843823,decreament,0.36,13,oddball,j,60,0.9239863003604114,,,,,,,m,22,225,fr,r,0,raw,2022-06-15_10h13.30.597,oddball,2022.1.2,59.96987118655631,
5,,,,,0,0,0,1,7,0,7,0,28,0,28,0,,,,,,,,,,,,,,,,,907.5544102997519,None,908.3546316996217,908.9549988997169,908.9383618999273,910.9391095000319,None,1,0.6129214004613459,2.613858500495553,decreament,0.6,11,standard,None,100,,,,,,,,m,22,225,fr,r,0,raw,2022-06-15_10h13.30.597,oddball,2022.1.2,59.96987118655631,
5,,,,,0,0,0,1,7,0,7,0,29,0,29,0,,,,,,,,,,,,,,,,,910.9554893998429,None,911.5223413999192,912.1224699998274,912.1060007000342,914.1066193999723,None,1,0.6124506997875869,2.613090300001204,decreament,0.6,11,standard,None,100,,,,,,,,m,22,225,fr,r,0,raw,2022-06-15_10h13.30.597,oddball,2022.1.2,59.96987118655631,
5,,,,,0,0,0,1,8,0,8,0,0,0,0,0,,,,,,,,,,,,,,,922.4152067997493,None,927.4286288996227,None,928.0954185998999,928.6958272000775,928.6794092999771,930.6795689999126,None,1,0.6118409000337124,2.6119328001514077,increament,0.6,15,standard,None,100,,914.1238462999463,None,,,,,m,22,225,fr,r,0,raw,2022-06-15_10h13.30.597,oddball,2022.1.2,59.96987118655631,
5,,,,,0,0,0,1,8,0,8,0,1,0,1,0,,,,,,,,,,,,,,,,,930.6963308998384,None,931.4638462997973,932.0636543999426,932.0472109997645,934.0480335997418,None,1,0.6127396002411842,2.613505700137466,increament,0.6,15,standard,None,100,,,,,,,,m,22,225,fr,r,0,raw,2022-06-15_10h13.30.597,oddball,2022.1.2,59.96987118655631,
5,,,,,0,0,0,1,8,0,8,0,2,0,2,0,,,,,,,,,,,,,,,,,934.0641626999713,None,934.6646428997628,935.2646176996641,935.248013400007,937.2493741996586,None,1,0.611168300267309,2.612666199915111,increament,0.6,15,standard,None,100,,,,,,,,m,22,225,fr,r,0,raw,2022-06-15_10h13.30.597,oddball,2022.1.2,59.96987118655631,
5,,,,,0,0,0,1,8,0,8,0,3,0,3,0,,,,,,,,,,,,,,,,,937.2662756000645,None,938.0659341998398,938.665653700009,938.649040099699,940.6500328998081,None,1,0.6124676996842027,2.613497699610889,increament,0.6,15,standard,None,100,,,,,,,,m,22,225,fr,r,0,raw,2022-06-15_10h13.30.597,oddball,2022.1.2,59.96987118655631,
5,,,,,0,0,0,1,8,0,8,0,4,0,4,0,,,,,,,,,,,,,,,,,940.66694059968,None,941.2502194996923,941.8505321000703,941.8338596997783,943.8345367996953,None,1,0.6119116004556417,2.6125591001473367,increament,0.6,15,standard,None,100,,,,,,,,m,22,225,fr,r,0,raw,2022-06-15_10h13.30.597,oddball,2022.1.2,59.96987118655631,
5,,,,,0,0,0,1,8,0,8,0,5,0,5,0,,,,,,,,,,,,,,,,,943.8514153999276,None,944.5019147000276,945.1020426996984,945.0851328000426,947.0859396997839,None,1,0.6106329998001456,2.6114329998381436,increament,0.6,15,standard,None,100,,,,,,,,m,22,225,fr,r,0,raw,2022-06-15_10h13.30.597,oddball,2022.1.2,59.96987118655631,
5,,,,,0,0,0,1,8,0,8,0,6,0,6,0,,,,,,,,,,,,,,,,,947.1027187998407,None,948.0195482000709,948.6204987997189,948.6034976998344,950.6039121998474,None,1,0.6131760007701814,2.6135193007066846,increament,0.6,15,standard,None,100,,,,,,,,m,22,225,fr,r,0,raw,2022-06-15_10h13.30.597,oddball,2022.1.2,59.96987118655631,
5,,,,,0,0,0,1,8,0,8,0,7,0,7,0,,,,,,,,,,,,,,,,,950.6205710000359,None,951.32073580008,951.9213050999679,951.9047691999003,953.9050382999703,None,1,0.6146972002461553,2.614834100473672,increament,0.6,15,standard,None,100,,,,,,,,m,22,225,fr,r,0,raw,2022-06-15_10h13.30.597,oddball,2022.1.2,59.96987118655631,
5,,,,,0,0,0,1,8,0,8,0,8,0,8,0,,,,,,,,,,,,,,,,,953.9215893000364,None,954.655932799913,955.2555098999292,955.2389361998066,957.240085199941,j,0,0.6120882001705468,2.613275400362909,increament,0.6,15,standard,None,100,0.7740738005377352,,,,,,,m,22,225,fr,r,0,raw,2022-06-15_10h13.30.597,oddball,2022.1.2,59.96987118655631,
5,,,,,0,0,0,1,8,0,8,0,9,0,9,0,,,,,,,,,,,,,,,,,957.2563825999387,None,957.9066351996735,958.8735738997348,958.8403515997343,960.8409956996329,None,0,0.9632934001274407,2.963935200124979,increament,0.96,18,oddball,j,160,,,,,,,,m,22,225,fr,r,0,raw,2022-06-15_10h13.30.597,oddball,2022.1.2,59.96987118655631,
5,,,,,0,0,0,1,8,0,8,0,10,0,10,0,,,,,,,,,,,,,,,,,960.8580609997734,None,961.5414155996405,962.1414449000731,962.1249370998703,964.1261077998206,None,1,0.6129234000109136,2.6141798002645373,increament,0.6,15,standard,None,100,,,,,,,,m,22,225,fr,r,0,raw,2022-06-15_10h13.30.597,oddball,2022.1.2,59.96987118655631,
5,,,,,0,0,0,1,8,0,8,0,11,0,11,0,,,,,,,,,,,,,,,,,964.1422557998449,None,964.6758729000576,965.2762551996857,965.2599404999055,967.2603251999244,None,1,0.6131634004414082,2.613477000501007,increament,0.6,15,standard,None,100,,,,,,,,m,22,225,fr,r,0,raw,2022-06-15_10h13.30.597,oddball,2022.1.2,59.96987118655631,
5,,,,,0,0,0,1,8,0,8,0,12,0,12,0,,,,,,,,,,,,,,,,,967.276987799909,None,967.8772751996294,968.4770900998265,968.4607580997981,970.4611978996545,None,1,0.6126761003397405,2.613122200127691,increament,0.6,15,standard,None,100,,,,,,,,m,22,225,fr,r,0,raw,2022-06-15_10h13.30.597,oddball,2022.1.2,59.96987118655631,
5,,,,,0,0,0,1,8,0,8,0,13,0,13,0,,,,,,,,,,,,,,,,,970.4780121999793,None,971.0616862997413,971.6622989000753,971.6454918999225,973.6464016996324,None,1,0.6098413998261094,2.610775999724865,increament,0.6,15,standard,None,100,,,,,,,,m,22,225,fr,r,0,raw,2022-06-15_10h13.30.597,oddball,2022.1.2,59.96987118655631,
5,,,,,0,0,0,1,8,0,8,0,14,0,14,0,,,,,,,,,,,,,,,,,973.6634161998518,None,974.3129614000209,974.9129822999239,974.8965699998662,976.8974816999398,None,1,0.6114343996159732,2.612356099765748,increament,0.6,15,standard,None,100,,,,,,,,m,22,225,fr,r,0,raw,2022-06-15_10h13.30.597,oddball,2022.1.2,59.96987118655631,
5,,,,,0,0,0,1,8,0,8,0,15,0,15,0,,,,,,,,,,,,,,,,,976.9142916998826,None,977.4639041000046,978.1983149000444,978.1642768997699,980.165056400001,None,0,0.7296331003308296,2.730412000324577,increament,0.72,16,oddball,j,120,,,,,,,,m,22,225,fr,r,0,raw,2022-06-15_10h13.30.597,oddball,2022.1.2,59.96987118655631,
5,,,,,0,0,0,1,8,0,8,0,16,0,16,0,,,,,,,,,,,,,,,,,980.1820074999705,None,980.8990726997145,981.4987297998741,981.4823100999929,983.4829061999917,None,1,0.6112543004564941,2.611863400321454,increament,0.6,15,standard,None,100,,,,,,,,m,22,225,fr,r,0,raw,2022-06-15_10h13.30.597,oddball,2022.1.2,59.96987118655631,
5,,,,,0,0,0,1,8,0,8,0,17,0,17,0,,,,,,,,,,,,,,,,,983.4999206997454,None,984.1666895998642,984.7667628997006,984.7500924998894,986.7506844997406,None,1,0.6121890996582806,2.612733999732882,increament,0.6,15,standard,None,100,,,,,,,,m,22,225,fr,r,0,raw,2022-06-15_10h13.30.597,oddball,2022.1.2,59.96987118655631,
5,,,,,0,0,0,1,8,0,8,0,18,0,18,0,,,,,,,,,,,,,,,,,986.7677205996588,None,987.3181357998401,987.9180604997091,987.9018933996558,989.9025359000079,None,1,0.6100424001924694,2.610738500021398,increament,0.6,15,standard,None,100,,,,,,,,m,22,225,fr,r,0,raw,2022-06-15_10h13.30.597,oddball,2022.1.2,59.96987118655631,
5,,,,,0,0,0,1,8,0,8,0,19,0,19,0,,,,,,,,,,,,,,,,,989.9188288999721,None,990.5192283997312,991.1192534998991,991.1028807996772,993.1032026000321,None,1,0.6075487001799047,2.6077772001735866,increament,0.6,15,standard,None,100,,,,,,,,m,22,225,fr,r,0,raw,2022-06-15_10h13.30.597,oddball,2022.1.2,59.96987118655631,
5,,,,,0,0,0,1,8,0,8,0,20,0,20,0,,,,,,,,,,,,,,,,,993.1198054999113,None,993.8201897996478,994.4205886996351,994.4042115998454,996.4047912997194,None,1,0.6137418998405337,2.6142732999287546,increament,0.6,15,standard,None,100,,,,,,,,m,22,225,fr,r,0,raw,2022-06-15_10h13.30.597,oddball,2022.1.2,59.96987118655631,
5,,,,,0,0,0,1,8,0,8,0,21,0,21,0,,,,,,,,,,,,,,,,,996.4212356000207,None,996.9381863996387,997.5382205997594,997.5217140000314,999.5227242000401,None,1,0.6103763002902269,2.611443200148642,increament,0.6,15,standard,None,100,,,,,,,,m,22,225,fr,r,0,raw,2022-06-15_10h13.30.597,oddball,2022.1.2,59.96987118655631,
5,,,,,0,0,0,1,8,0,8,0,22,0,22,0,,,,,,,,,,,,,,,,,999.5389811000787,None,1000.1725620999932,1000.7727251998149,1000.7561814999208,1002.7568898000754,None,1,0.6131319999694824,2.6138736000284553,increament,0.6,15,standard,None,100,,,,,,,,m,22,225,fr,r,0,raw,2022-06-15_10h13.30.597,oddball,2022.1.2,59.96987118655631,
5,,,,,0,0,0,1,8,0,8,0,23,0,23,0,,,,,,,,,,,,,,,,,1002.7739813998342,None,1003.5073535996489,1004.1072883997113,1004.0908154998906,1006.0914530996233,None,1,0.6109963003546,2.6116450005210936,increament,0.6,15,standard,None,100,,,,,,,,m,22,225,fr,r,0,raw,2022-06-15_10h13.30.597,oddball,2022.1.2,59.96987118655631,
5,,,,,0,0,0,1,8,0,8,0,24,0,24,0,,,,,,,,,,,,,,,,,1006.1082319999114,None,1006.7087289998308,1007.5587186999619,1007.5257170996629,1009.5264832000248,j,1,0.8457051999866962,2.8464511004276574,increament,0.84,17,oddball,j,140,0.390881999861449,,,,,,,m,22,225,fr,r,0,raw,2022-06-15_10h13.30.597,oddball,2022.1.2,59.96987118655631,
5,,,,,0,0,0,1,8,0,8,0,25,0,25,0,,,,,,,,,,,,,,,,,1009.5429467996582,None,1010.2765182000585,1010.8767015999183,1010.8604353996925,1012.8607344999909,None,1,0.6102327997796237,2.610509099904448,increament,0.6,15,standard,None,100,,,,,,,,m,22,225,fr,r,0,raw,2022-06-15_10h13.30.597,oddball,2022.1.2,59.96987118655631,
5,,,,,0,0,0,1,8,0,8,0,26,0,26,0,,,,,,,,,,,,,,,,,1012.8774459999986,None,1013.7109416997992,1014.3112321998924,1014.2946437997743,1016.2953462000005,None,1,0.6130548999644816,2.61379100009799,increament,0.6,15,standard,None,100,,,,,,,,m,22,225,fr,r,0,raw,2022-06-15_10h13.30.597,oddball,2022.1.2,59.96987118655631,
5,,,,,0,0,0,1,8,0,8,0,27,0,27,0,,,,,,,,,,,,,,,,,1016.3120695999824,None,1017.079546299763,1017.6795051996596,1017.6627678996883,1019.6637412998825,None,1,0.612164800055325,2.6131759001873434,increament,0.6,15,standard,None,100,,,,,,,,m,22,225,fr,r,0,raw,2022-06-15_10h13.30.597,oddball,2022.1.2,59.96987118655631,
5,,,,,0,0,0,1,8,0,8,0,28,0,28,0,,,,,,,,,,,,,,,,,1019.6805042000487,None,1020.3138436996378,1020.9137968998402,1020.8977842996828,1022.8982106000185,None,1,0.6126875001937151,2.613060600589961,increament,0.6,15,standard,None,100,,,,,,,,m,22,225,fr,r,0,raw,2022-06-15_10h13.30.597,oddball,2022.1.2,59.96987118655631,
5,,,,,0,0,0,1,8,0,8,0,29,0,29,0,,,,,,,,,,,,,,,,,1022.914964299649,None,1023.6153971999884,1024.215263299644,1024.1985067999922,1026.1990986000746,None,1,0.610531400423497,2.6110983001999557,increament,0.6,15,standard,None,100,,,,,,,,m,22,225,fr,r,0,raw,2022-06-15_10h13.30.597,oddball,2022.1.2,59.96987118655631,
5,,,,,0,0,0,1,9,0,9,0,0,0,0,0,,,,,,,,,,,,,,,1030.5451283999719,None,1032.7018235996366,None,1033.318549099844,1033.918789099902,1033.9019919997081,1035.9026686996222,None,1,0.6126581002026796,2.6133191999979317,decreament,0.6,11,standard,None,100,,1026.2162943999283,None,,,,,m,22,225,fr,r,0,raw,2022-06-15_10h13.30.597,oddball,2022.1.2,59.96987118655631,
5,,,,,0,0,0,1,9,0,9,0,1,0,1,0,,,,,,,,,,,,,,,,,1035.919376899954,None,1036.6201061997563,1037.220132299699,1037.203577999957,1039.2041944996454,None,1,0.608531600330025,2.609244600404054,decreament,0.6,11,standard,None,100,,,,,,,,m,22,225,fr,r,0,raw,2022-06-15_10h13.30.597,oddball,2022.1.2,59.96987118655631,
5,,,,,0,0,0,1,9,0,9,0,2,0,2,0,,,,,,,,,,,,,,,,,1039.2214537998661,None,1039.804504999891,1040.4046876998618,1040.387917399872,1042.3891262998804,None,1,0.6102120000869036,2.6115001998841763,decreament,0.6,11,standard,None,100,,,,,,,,m,22,225,fr,r,0,raw,2022-06-15_10h13.30.597,oddball,2022.1.2,59.96987118655631,
5,,,,,0,0,0,1,9,0,9,0,3,0,3,0,,,,,,,,,,,,,,,,,1042.4066877998412,None,1043.0227941996418,1043.6227843998931,1043.6059787999839,1045.6068992996588,None,1,0.6123893996700644,2.6133282999508083,decreament,0.6,11,standard,None,100,,,,,,,,m,22,225,fr,r,0,raw,2022-06-15_10h13.30.597,oddball,2022.1.2,59.96987118655631,
5,,,,,0,0,0,1,9,0,9,0,4,0,4,0,,,,,,,,,,,,,,,,,1045.6236013998277,None,1046.4403625996783,1047.0404078997672,1047.024238999933,1049.0249871998094,None,1,0.611128999851644,2.6118716998025775,decreament,0.6,11,standard,None,100,,,,,,,,m,22,225,fr,r,0,raw,2022-06-15_10h13.30.597,oddball,2022.1.2,59.96987118655631,
5,,,,,0,0,0,1,9,0,9,0,5,0,5,0,,,,,,,,,,,,,,,,,1049.0411628000438,None,1049.7084372998215,1050.3086276999675,1050.291862799786,1052.292374999728,None,1,0.6109056998975575,2.611385699827224,decreament,0.6,11,standard,None,100,,,,,,,,m,22,225,fr,r,0,raw,2022-06-15_10h13.30.597,oddball,2022.1.2,59.96987118655631,
5,,,,,0,0,0,1,9,0,9,0,6,0,6,0,,,,,,,,,,,,,,,,,1052.3090531998314,None,1053.1263293996453,1053.726126600057,1053.710132499691,1055.7103876997717,None,1,0.6099923001602292,2.6101489001885056,decreament,0.6,11,standard,None,100,,,,,,,,m,22,225,fr,r,0,raw,2022-06-15_10h13.30.597,oddball,2022.1.2,59.96987118655631,
5,,,,,0,0,0,1,9,0,9,0,7,0,7,0,,,,,,,,,,,,,,,,,1055.7271271999925,None,1056.3605295000598,1056.9608310996555,1056.9444192000665,1058.945268099662,None,1,0.6136383996345103,2.6145315999165177,decreament,0.6,11,standard,None,100,,,,,,,,m,22,225,fr,r,0,raw,2022-06-15_10h13.30.597,oddball,2022.1.2,59.96987118655631,
5,,,,,0,0,0,1,9,0,9,0,8,0,8,0,,,,,,,,,,,,,,,,,1058.9614961999469,None,1059.5281435996294,1060.1284873997793,1060.1123873996548,1062.113157699816,None,1,0.614779899828136,2.615618699695915,decreament,0.6,11,standard,None,100,,,,,,,,m,22,225,fr,r,0,raw,2022-06-15_10h13.30.597,oddball,2022.1.2,59.96987118655631,
5,,,,,0,0,0,1,9,0,9,0,9,0,9,0,,,,,,,,,,,,,,,,,1062.1292931996286,None,1062.713020999916,1063.3136114999652,1063.2964364998043,1065.2976075997576,None,1,0.6118440004065633,2.6130825001746416,decreament,0.6,11,standard,None,100,,,,,,,,m,22,225,fr,r,0,raw,2022-06-15_10h13.30.597,oddball,2022.1.2,59.96987118655631,
5,,,,,0,0,0,1,9,0,9,0,10,0,10,0,,,,,,,,,,,,,,,,,1065.3148121996783,None,1065.8808095999993,1066.481364700012,1066.4647291,1068.4652759996243,None,1,0.6135806003585458,2.6140858004800975,decreament,0.6,11,standard,None,100,,,,,,,,m,22,225,fr,r,0,raw,2022-06-15_10h13.30.597,oddball,2022.1.2,59.96987118655631,
5,,,,,0,0,0,1,9,0,9,0,11,0,11,0,,,,,,,,,,,,,,,,,1068.4818948996253,None,1069.0320191998035,1069.632243799977,1069.6158777996898,1071.6161837996915,None,1,0.612947600428015,2.613161400426179,decreament,0.6,11,standard,None,100,,,,,,,,m,22,225,fr,r,0,raw,2022-06-15_10h13.30.597,oddball,2022.1.2,59.96987118655631,
5,,,,,0,0,0,1,9,0,9,0,12,0,12,0,,,,,,,,,,,,,,,,,1071.6327411998063,None,1072.2001719996333,1072.8001814000309,1072.7837219000794,1074.7842541998252,None,1,0.6124688000418246,2.6130250999704003,decreament,0.6,11,standard,None,100,,,,,,,,m,22,225,fr,r,0,raw,2022-06-15_10h13.30.597,oddball,2022.1.2,59.96987118655631,
5,,,,,0,0,0,1,9,0,9,0,13,0,13,0,,,,,,,,,,,,,,,,,1074.801046599634,None,1075.4511187998578,1075.7012601997703,1075.6678577000275,1077.6688242997043,j,1,0.2452944004908204,2.246341200079769,decreament,0.24,12,oddball,j,40,0.7761228000745177,,,,,,,m,22,225,fr,r,0,raw,2022-06-15_10h13.30.597,oddball,2022.1.2,59.96987118655631,
5,,,,,0,0,0,1,9,0,9,0,14,0,14,0,,,,,,,,,,,,,,,,,1077.6860234998167,None,1078.3197649996728,1078.919079899788,1078.9024914000183,1080.9032871997915,None,1,0.610941200517118,2.611728900577873,decreament,0.6,11,standard,None,100,,,,,,,,m,22,225,fr,r,0,raw,2022-06-15_10h13.30.597,oddball,2022.1.2,59.96987118655631,
5,,,,,0,0,0,1,9,0,9,0,15,0,15,0,,,,,,,,,,,,,,,,,1080.920063499827,None,1081.6035899999551,1082.2035804996267,1082.1871491996571,1084.1877764998935,None,1,0.6119324001483619,2.6125422003678977,decreament,0.6,11,standard,None,100,,,,,,,,m,22,225,fr,r,0,raw,2022-06-15_10h13.30.597,oddball,2022.1.2,59.96987118655631,
5,,,,,0,0,0,1,9,0,9,0,16,0,16,0,,,,,,,,,,,,,,,,,1084.2046459000558,None,1084.8883672999218,1085.4884317000397,1085.4717641999014,1087.4726577997208,None,1,0.6128579997457564,2.613818199839443,decreament,0.6,11,standard,None,100,,,,,,,,m,22,225,fr,r,0,raw,2022-06-15_10h13.30.597,oddball,2022.1.2,59.96987118655631,
5,,,,,0,0,0,1,9,0,9,0,17,0,17,0,,,,,,,,,,,,,,,,,1087.490244299639,None,1088.0391441998072,1088.639745600056,1088.6231211996637,1090.6236759000458,j,0,0.6123211001977324,2.6129158004187047,decreament,0.6,11,standard,None,100,0.9821735001169145,,,,,,,m,22,225,fr,r,0,raw,2022-06-15_10h13.30.597,oddball,2022.1.2,59.96987118655631,
5,,,,,0,0,0,1,9,0,9,0,18,0,18,0,,,,,,,,,,,,,,,,,1090.6402344000526,None,1091.2905297996476,1091.8906892999075,1091.8739990997128,1093.8750950996764,None,1,0.612659600097686,2.6138627002947032,decreament,0.6,11,standard,None,100,,,,,,,,m,22,225,fr,r,0,raw,2022-06-15_10h13.30.597,oddball,2022.1.2,59.96987118655631,
5,,,,,0,0,0,1,9,0,9,0,19,0,19,0,,,,,,,,,,,,,,,,,1093.8913670997135,None,1094.49175499985,1094.8584125996567,1094.825265399646,1096.8264433997683,j,1,0.3637658003717661,2.3650557002983987,decreament,0.36,13,oddball,j,60,0.6684799999929965,,,,,,,m,22,225,fr,r,0,raw,2022-06-15_10h13.30.597,oddball,2022.1.2,59.96987118655631,
5,,,,,0,0,0,1,9,0,9,0,20,0,20,0,,,,,,,,,,,,,,,,,1096.8448135000654,None,1097.476267399732,1098.0764064998366,1098.0598386996426,1100.0605305996723,None,1,0.6125351004302502,2.6132666002959013,decreament,0.6,11,standard,None,100,,,,,,,,m,22,225,fr,r,0,raw,2022-06-15_10h13.30.597,oddball,2022.1.2,59.96987118655631,
5,,,,,0,0,0,1,9,0,9,0,21,0,21,0,,,,,,,,,,,,,,,,,1100.0775138996542,None,1100.794524999801,1101.3945818999782,1101.377712899819,1103.3784499997273,None,1,0.6095430003479123,2.610259400215,decreament,0.6,11,standard,None,100,,,,,,,,m,22,225,fr,r,0,raw,2022-06-15_10h13.30.597,oddball,2022.1.2,59.96987118655631,
5,,,,,0,0,0,1,9,0,9,0,22,0,22,0,,,,,,,,,,,,,,,,,1103.3950598998927,None,1104.028867899906,1104.6287175999023,1104.6124426000752,1106.6129907998256,None,1,0.6125386008061469,2.6129909004084766,decreament,0.6,11,standard,None,100,,,,,,,,m,22,225,fr,r,0,raw,2022-06-15_10h13.30.597,oddball,2022.1.2,59.96987118655631,
5,,,,,0,0,0,1,9,0,9,0,23,0,23,0,,,,,,,,,,,,,,,,,1106.6294812997803,None,1107.3635339997709,1107.963603799697,1107.9468713998795,1109.947475399822,None,1,0.6103837001137435,2.6109649003483355,decreament,0.6,11,standard,None,100,,,,,,,,m,22,225,fr,r,0,raw,2022-06-15_10h13.30.597,oddball,2022.1.2,59.96987118655631,
5,,,,,0,0,0,1,9,0,9,0,24,0,24,0,,,,,,,,,,,,,,,,,1109.9644834999926,None,1110.6648897998966,1111.1479329997674,1111.1313986000605,1113.1321996999905,None,0,0.4914020001888275,2.4921705001033843,decreament,0.48,14,oddball,j,80,,,,,,,,m,22,225,fr,r,0,raw,2022-06-15_10h13.30.597,oddball,2022.1.2,59.96987118655631,
5,,,,,0,0,0,1,9,0,9,0,25,0,25,0,,,,,,,,,,,,,,,,,1113.1487651998177,None,1113.9158472996205,1114.5160221997648,1114.4994627996348,1116.5001471000724,None,1,0.610033200122416,2.610724200028926,decreament,0.6,11,standard,None,100,,,,,,,,m,22,225,fr,r,0,raw,2022-06-15_10h13.30.597,oddball,2022.1.2,59.96987118655631,
5,,,,,0,0,0,1,9,0,9,0,26,0,26,0,,,,,,,,,,,,,,,,,1116.5167598999105,None,1117.1336095998995,1117.7339373999275,1117.7172236996703,1119.7175236996263,None,1,0.6098012002184987,2.6100432998500764,decreament,0.6,11,standard,None,100,,,,,,,,m,22,225,fr,r,0,raw,2022-06-15_10h13.30.597,oddball,2022.1.2,59.96987118655631,
5,,,,,0,0,0,1,9,0,9,0,27,0,27,0,,,,,,,,,,,,,,,,,1119.7342628999613,None,1120.6183497998863,1121.2187898997217,1121.2023594998755,1123.2025094996206,None,1,0.6140182004310191,2.6140701002441347,decreament,0.6,11,standard,None,100,,,,,,,,m,22,225,fr,r,0,raw,2022-06-15_10h13.30.597,oddball,2022.1.2,59.96987118655631,
5,,,,,0,0,0,1,9,0,9,0,28,0,28,0,,,,,,,,,,,,,,,,,1123.2192470999435,None,1123.75322279986,1124.3529384997673,1124.3363196998835,1126.337378599681,j,0,0.6100339000113308,2.6111436001956463,decreament,0.6,11,standard,None,100,0.4920369004830718,,,,,,,m,22,225,fr,r,0,raw,2022-06-15_10h13.30.597,oddball,2022.1.2,59.96987118655631,
5,,,,,0,0,0,1,9,0,9,0,29,0,29,0,,,,,,,,,,,,,,,,,1126.3547610999085,None,1127.0210066,1127.6208620998077,1127.6041997000575,1129.6053557000123,None,1,0.6079313000664115,2.6091805999167264,decreament,0.6,11,standard,None,100,,,,,,,,m,22,225,fr,r,0,raw,2022-06-15_10h13.30.597,oddball,2022.1.2,59.96987118655631,
10,,,,,0,1,1,2,0,0,0,0,0,0,0,0,,,,,,,,,,,,,,,1311.982238299679,None,1314.441612099763,None,1315.0420198999345,1315.6421475997195,1315.625454899855,1317.6262304997072,None,1,0.6115260999649763,2.61230649985373,increament,0.6,25,standard,None,100,,1309.6570423999801,None,1129.649313800037,None,,,m,22,225,fr,r,0,raw,2022-06-15_10h13.30.597,oddball,2022.1.2,59.96987118655631,
10,,,,,0,1,1,2,0,0,0,0,1,0,1,0,,,,,,,,,,,,,,,,,1317.642939500045,None,1318.326757399831,1318.9266237998381,1318.9100909000263,1320.9109927997924,None,1,0.6116458000615239,2.6125935004092753,increament,0.6,25,standard,None,100,,,,,,,,m,22,225,fr,r,0,raw,2022-06-15_10h13.30.597,oddball,2022.1.2,59.96987118655631,
10,,,,,0,1,1,2,0,0,0,0,2,0,2,0,,,,,,,,,,,,,,,,,1320.927460399922,None,1321.7444143998437,1322.3445250000805,1322.3282395997085,1324.3287094999105,None,1,0.6095948996953666,2.6100396998226643,increament,0.6,25,standard,None,100,,,,,,,,m,22,225,fr,r,0,raw,2022-06-15_10h13.30.597,oddball,2022.1.2,59.96987118655631,
10,,,,,0,1,1,2,0,0,0,0,3,0,3,0,,,,,,,,,,,,,,,,,1324.3454275997356,None,1325.0125357997604,1325.6126206000336,1325.5961070000194,1327.596680100076,None,1,0.6107705999165773,2.6111945998854935,increament,0.6,25,standard,None,100,,,,,,,,m,22,225,fr,r,0,raw,2022-06-15_10h13.30.597,oddball,2022.1.2,59.96987118655631,
10,,,,,0,1,1,2,0,0,0,0,4,0,4,0,,,,,,,,,,,,,,,,,1327.6134922998026,None,1328.297077999916,1328.8972253999673,1328.8805211000144,1330.8816159996204,None,1,0.6123395999893546,2.613435700070113,increament,0.6,25,standard,None,100,,,,,,,,m,22,225,fr,r,0,raw,2022-06-15_10h13.30.597,oddball,2022.1.2,59.96987118655631,
10,,,,,0,1,1,2,0,0,0,0,5,0,5,0,,,,,,,,,,,,,,,,,1330.8982237000018,None,1331.581424499862,1332.181781299878,1332.1652408000082,1334.1659868997522,None,1,0.6128298998810351,2.6136209997348487,increament,0.6,25,standard,None,100,,,,,,,,m,22,225,fr,r,0,raw,2022-06-15_10h13.30.597,oddball,2022.1.2,59.96987118655631,
10,,,,,0,1,1,2,0,0,0,0,6,0,6,0,,,,,,,,,,,,,,,,,1334.182730899658,None,1334.7493702997454,1335.3495862996206,1335.333646199666,1337.3338717999868,None,1,0.6144300000742078,2.614574700128287,increament,0.6,25,standard,None,100,,,,,,,,m,22,225,fr,r,0,raw,2022-06-15_10h13.30.597,oddball,2022.1.2,59.96987118655631,
10,,,,,0,1,1,2,0,0,0,0,7,0,7,0,,,,,,,,,,,,,,,,,1337.3504172996618,None,1337.9340885998681,1338.5339946998283,1338.5175354997627,1340.51822800003,None,1,0.6125413002446294,2.6132722003385425,increament,0.6,25,standard,None,100,,,,,,,,m,22,225,fr,r,0,raw,2022-06-15_10h13.30.597,oddball,2022.1.2,59.96987118655631,
10,,,,,0,1,1,2,0,0,0,0,8,0,8,0,,,,,,,,,,,,,,,,,1340.5350202997215,None,1341.285787599627,1341.8855880000629,1341.868887799792,1343.869502699934,None,1,0.6094414000399411,2.6100137000903487,increament,0.6,25,standard,None,100,,,,,,,,m,22,225,fr,r,0,raw,2022-06-15_10h13.30.597,oddball,2022.1.2,59.96987118655631,
10,,,,,0,1,1,2,0,0,0,0,9,0,9,0,,,,,,,,,,,,,,,,,1343.8861467000097,None,1344.7365890997462,1345.3366242996417,1345.320033899974,1347.3209151998162,None,1,0.612465400248766,2.6133578000590205,increament,0.6,25,standard,None,100,,,,,,,,m,22,225,fr,r,0,raw,2022-06-15_10h13.30.597,oddball,2022.1.2,59.96987118655631,
10,,,,,0,1,1,2,0,0,0,0,10,0,10,0,,,,,,,,,,,,,,,,,1347.3376086996868,None,1348.1213239999488,1348.8548554000445,1348.8213122999296,1350.8222409998998,None,0,0.7247544000856578,2.7256942996755242,increament,0.72,26,oddball,j,120,,,,,,,,m,22,225,fr,r,0,raw,2022-06-15_10h13.30.597,oddball,2022.1.2,59.96987118655631,
10,,,,,0,1,1,2,0,0,0,0,11,0,11,0,,,,,,,,,,,,,,,,,1350.8392008999363,None,1351.5893402998336,1352.189545399975,1352.1727196997963,1354.1737391999923,None,1,0.6079577002674341,2.60922670038417,increament,0.6,25,standard,None,100,,,,,,,,m,22,225,fr,r,0,raw,2022-06-15_10h13.30.597,oddball,2022.1.2,59.96987118655631,
10,,,,,0,1,1,2,0,0,0,0,12,0,12,0,,,,,,,,,,,,,,,,,1354.1902494998649,None,1354.8735624998808,1355.474050599616,1355.4574616998434,1357.458356899675,None,1,0.6119996001943946,2.6129637002013624,increament,0.6,25,standard,None,100,,,,,,,,m,22,225,fr,r,0,raw,2022-06-15_10h13.30.597,oddball,2022.1.2,59.96987118655631,
10,,,,,0,1,1,2,0,0,0,0,13,0,13,0,,,,,,,,,,,,,,,,,1357.474637999665,None,1358.1747249998152,1358.7751078996807,1358.7589651998132,1360.7593517000787,None,1,0.6131315003149211,2.613475800026208,increament,0.6,25,standard,None,100,,,,,,,,m,22,225,fr,r,0,raw,2022-06-15_10h13.30.597,oddball,2022.1.2,59.96987118655631,
10,,,,,0,1,1,2,0,0,0,0,14,0,14,0,,,,,,,,,,,,,,,,,1360.776061099954,None,1361.359377299901,1362.2097835000604,1362.1768640996888,1364.1772616999224,None,0,0.8481469000689685,2.848342299927026,increament,0.84,27,oddball,j,140,,,,,,,,m,22,225,fr,r,0,raw,2022-06-15_10h13.30.597,oddball,2022.1.2,59.96987118655631,
