grating_freq,blocks_prac.thisRepN,blocks_prac.thisTrialN,blocks_prac.thisN,blocks_prac.thisIndex,blocks.thisRepN,blocks.thisTrialN,blocks.thisN,blocks.thisIndex,repeat_freq.thisRepN,repeat_freq.thisTrialN,repeat_freq.thisN,repeat_freq.thisIndex,trials.thisRepN,trials.thisTrialN,trials.thisN,trials.thisIndex,break_loop.thisRepN,break_loop.thisTrialN,break_loop.thisN,break_loop.thisIndex,rest_loop.thisRepN,rest_loop.thisTrialN,rest_loop.thisN,rest_loop.thisIndex,instruct_prac_text.started,instruct_prac_text.stopped,b_instruct_text_2_.started,b_instruct_text_2_.stopped,prac_done_text.started,prac_done_text.stopped,instruct_text.started,instruct_text.stopped,fixation.started,fixation.stopped,grating.started,grating.stopped,blank.started,blank.stopped,resp.keys,resp.corr,resp.started,resp.stopped,direction,duration,trigger,stim_type,corr_ans,scaling,resp.rt,rest_text.started,rest_text.stopped,text_2.started,text_2.stopped,thx_txt.started,thx_txt.stopped,gender,age,participant,language,main_hand,nBlock_prac,file_suffix,date,expName,psychopyVersion,frameRate,
5,,,,,0,0,0,1,0,0,0,0,0,0,0,0,,,,,,,,,22.07517130021006,None,28.213010700419545,None,31.30105770006776,None,40.174117400310934,None,42.75168670061976,None,43.35816280078143,43.968493800610304,43.91875550057739,45.91996460035443,None,1,0.6095976401120424,2.61086434032768,increament,0.6,15,standard,None,100,,,,,,,,m,21,228,fr,r,0,raw,2022-07-06_10h44.25.935,oddball,2022.1.2,59.88282151800157,
5,,,,,0,0,0,1,0,0,0,0,1,0,1,0,,,,,,,,,,,,,,,,,45.93592800013721,None,46.569409999996424,47.17007340025157,47.15361279994249,49.15386270079762,None,1,0.6123926397413015,2.61257843952626,increament,0.6,15,standard,None,100,,,,,,,,m,21,228,fr,r,0,raw,2022-07-06_10h44.25.935,oddball,2022.1.2,59.88282151800157,
5,,,,,0,0,0,1,0,0,0,0,2,0,2,0,,,,,,,,,,,,,,,,,49.17087010014802,None,49.80421440023929,50.40437410026789,50.38778500072658,52.38831890001893,None,1,0.6109973397105932,2.611521139740944,increament,0.6,15,standard,None,100,,,,,,,,m,21,228,fr,r,0,raw,2022-07-06_10h44.25.935,oddball,2022.1.2,59.88282151800157,
5,,,,,0,0,0,1,0,0,0,0,3,0,3,0,,,,,,,,,,,,,,,,,52.4050678005442,None,52.971794799901545,53.57210660073906,53.55546970013529,55.556218000128865,None,1,0.6142455404624343,2.614968840032816,increament,0.6,15,standard,None,100,,,,,,,,m,21,228,fr,r,0,raw,2022-07-06_10h44.25.935,oddball,2022.1.2,59.88282151800157,
5,,,,,0,0,0,1,0,0,0,0,4,0,4,0,,,,,,,,,,,,,,,,,55.572939100675285,None,56.23997940029949,56.840098100714386,56.823764100670815,58.82415580004454,None,1,0.6129920408129692,2.6133395405486226,increament,0.6,15,standard,None,100,,,,,,,,m,21,228,fr,r,0,raw,2022-07-06_10h44.25.935,oddball,2022.1.2,59.88282151800157,
5,,,,,0,0,0,1,0,0,0,0,5,0,5,0,,,,,,,,,,,,,,,,,58.840995100326836,None,59.50816680025309,60.10819290019572,60.09139660000801,62.09245530050248,None,1,0.6124759400263429,2.613618940114975,increament,0.6,15,standard,None,100,,,,,,,,m,21,228,fr,r,0,raw,2022-07-06_10h44.25.935,oddball,2022.1.2,59.88282151800157,
5,,,,,0,0,0,1,0,0,0,0,6,0,6,0,,,,,,,,,,,,,,,,,62.10881320014596,None,62.72552530001849,63.57605370040983,63.543120900169015,65.5436093006283,j,1,0.8472320400178432,2.8476978400722146,increament,0.84,17,oddball,j,140,1.4230169001966715,,,,,,,m,21,228,fr,r,0,raw,2022-07-06_10h44.25.935,oddball,2022.1.2,59.88282151800157,
5,,,,,0,0,0,1,0,0,0,0,7,0,7,0,,,,,,,,,,,,,,,,,65.56005620025098,None,66.22699350025505,66.8276690999046,66.81125300005078,68.81131340004504,None,1,0.6136301402002573,2.6136374408379197,increament,0.6,15,standard,None,100,,,,,,,,m,21,228,fr,r,0,raw,2022-07-06_10h44.25.935,oddball,2022.1.2,59.88282151800157,
5,,,,,0,0,0,1,0,0,0,0,8,0,8,0,,,,,,,,,,,,,,,,,68.82814060058445,None,69.44512430019677,70.04525940027088,70.02844030037522,72.02908070012927,None,1,0.6126453401520848,2.6132634403184056,increament,0.6,15,standard,None,100,,,,,,,,m,21,228,fr,r,0,raw,2022-07-06_10h44.25.935,oddball,2022.1.2,59.88282151800157,
5,,,,,0,0,0,1,0,0,0,0,9,0,9,0,,,,,,,,,,,,,,,,,72.04579040035605,None,72.64617830049247,73.24663300067186,73.22963280044496,75.23037980031222,None,1,0.6115418402478099,2.61225454043597,increament,0.6,15,standard,None,100,,,,,,,,m,21,228,fr,r,0,raw,2022-07-06_10h44.25.935,oddball,2022.1.2,59.88282151800157,
5,,,,,0,0,0,1,0,0,0,0,10,0,10,0,,,,,,,,,,,,,,,,,75.24698649998754,None,75.93069360032678,76.53078300040215,76.51446420047432,78.5150508005172,None,1,0.607967839576304,2.6085611395537853,increament,0.6,15,standard,None,100,,,,,,,,m,21,228,fr,r,0,raw,2022-07-06_10h44.25.935,oddball,2022.1.2,59.88282151800157,
5,,,,,0,0,0,1,0,0,0,0,11,0,11,0,,,,,,,,,,,,,,,,,78.53167720045894,None,79.18193260021508,79.78265970014036,79.76575020048767,81.76606740057468,None,1,0.6106080403551459,2.6108542401343584,increament,0.6,15,standard,None,100,,,,,,,,m,21,228,fr,r,0,raw,2022-07-06_10h44.25.935,oddball,2022.1.2,59.88282151800157,
5,,,,,0,0,0,1,0,0,0,0,12,0,12,0,,,,,,,,,,,,,,,,,81.78300900012255,None,82.43304360006005,83.03338620066643,83.01693030074239,85.0176854999736,None,1,0.6121476404368877,2.6129276398569345,increament,0.6,15,standard,None,100,,,,,,,,m,21,228,fr,r,0,raw,2022-07-06_10h44.25.935,oddball,2022.1.2,59.88282151800157,
5,,,,,0,0,0,1,0,0,0,0,13,0,13,0,,,,,,,,,,,,,,,,,85.03413340076804,None,85.63491770066321,86.60132860019803,86.584751999937,88.58531400002539,j,1,0.9747787397354841,2.9753351397812366,increament,0.96,18,oddball,j,160,0.4854218000546098,,,,,,,m,21,228,fr,r,0,raw,2022-07-06_10h44.25.935,oddball,2022.1.2,59.88282151800157,
5,,,,,0,0,0,1,0,0,0,0,14,0,14,0,,,,,,,,,,,,,,,,,88.60190670005977,None,89.20252920035273,89.80264370050281,89.78583500068635,91.78692030068487,None,1,0.6107676392421126,2.6118890400975943,increament,0.6,15,standard,None,100,,,,,,,,m,21,228,fr,r,0,raw,2022-07-06_10h44.25.935,oddball,2022.1.2,59.88282151800157,
5,,,,,0,0,0,1,0,0,0,0,15,0,15,0,,,,,,,,,,,,,,,,,91.80360920075327,None,92.5868254005909,93.18724110070616,93.17067280039191,95.171427000314,None,1,0.6145646404474974,2.615357641130686,increament,0.6,15,standard,None,100,,,,,,,,m,21,228,fr,r,0,raw,2022-07-06_10h44.25.935,oddball,2022.1.2,59.88282151800157,
5,,,,,0,0,0,1,0,0,0,0,16,0,16,0,,,,,,,,,,,,,,,,,95.18810820020735,None,96.00483760051429,96.60506070032716,96.58857440017164,98.58892490062863,None,1,0.6139114396646619,2.6142070405185223,increament,0.6,15,standard,None,100,,,,,,,,m,21,228,fr,r,0,raw,2022-07-06_10h44.25.935,oddball,2022.1.2,59.88282151800157,
5,,,,,0,0,0,1,0,0,0,0,17,0,17,0,,,,,,,,,,,,,,,,,98.60556310042739,None,99.23965319991112,99.83960710000247,99.82318660058081,101.82433580048382,None,1,0.6125720394775271,2.6137735387310386,increament,0.6,15,standard,None,100,,,,,,,,m,21,228,fr,r,0,raw,2022-07-06_10h44.25.935,oddball,2022.1.2,59.88282151800157,
5,,,,,0,0,0,1,0,0,0,0,18,0,18,0,,,,,,,,,,,,,,,,,101.84150260034949,None,102.67400419991463,103.2743321005255,103.25835929997265,105.25854320079088,None,1,0.6133403396233916,2.6134006390348077,increament,0.6,15,standard,None,100,,,,,,,,m,21,228,fr,r,0,raw,2022-07-06_10h44.25.935,oddball,2022.1.2,59.88282151800157,
5,,,,,0,0,0,1,0,0,0,0,19,0,19,0,,,,,,,,,,,,,,,,,105.27511769998819,None,105.99248970020562,106.59232760034502,106.57591059990227,108.5762964002788,None,1,0.612574640661478,2.6129412408918142,increament,0.6,15,standard,None,100,,,,,,,,m,21,228,fr,r,0,raw,2022-07-06_10h44.25.935,oddball,2022.1.2,59.88282151800157,
5,,,,,0,0,0,1,0,0,0,0,20,0,20,0,,,,,,,,,,,,,,,,,108.5929974000901,None,109.2768255006522,109.87688980065286,109.86018190067261,111.86086640041322,None,1,0.6127073392271996,2.6133865397423506,increament,0.6,15,standard,None,100,,,,,,,,m,21,228,fr,r,0,raw,2022-07-06_10h44.25.935,oddball,2022.1.2,59.88282151800157,
5,,,,,0,0,0,1,0,0,0,0,21,0,21,0,,,,,,,,,,,,,,,,,111.87762620020658,None,112.44467360060662,113.04459080006927,113.02815300039947,115.02946030069143,None,1,0.6118696397170424,2.61324723996222,increament,0.6,15,standard,None,100,,,,,,,,m,21,228,fr,r,0,raw,2022-07-06_10h44.25.935,oddball,2022.1.2,59.88282151800157,
5,,,,,0,0,0,1,0,0,0,0,22,0,22,0,,,,,,,,,,,,,,,,,115.04544400051236,None,115.57936570048332,116.17928280029446,116.16302350070328,118.16324310004711,None,1,0.6101384405046701,2.610229739919305,increament,0.6,15,standard,None,100,,,,,,,,m,21,228,fr,r,0,raw,2022-07-06_10h44.25.935,oddball,2022.1.2,59.88282151800157,
5,,,,,0,0,0,1,0,0,0,0,23,0,23,0,,,,,,,,,,,,,,,,,118.17984620016068,None,118.93038470018655,119.6638013003394,119.63124340027571,121.63144739996642,None,0,0.7304893406108022,2.7305831406265497,increament,0.72,16,oddball,j,120,,,,,,,,m,21,228,fr,r,0,raw,2022-07-06_10h44.25.935,oddball,2022.1.2,59.88282151800157,
5,,,,,0,0,0,1,0,0,0,0,24,0,24,0,,,,,,,,,,,,,,,,,121.64805330056697,None,122.44835090078413,123.04863770026714,123.0319674005732,125.03248870000243,None,1,0.6117822397500277,2.6122391391545534,increament,0.6,15,standard,None,100,,,,,,,,m,21,228,fr,r,0,raw,2022-07-06_10h44.25.935,oddball,2022.1.2,59.88282151800157,
5,,,,,0,0,0,1,0,0,0,0,25,0,25,0,,,,,,,,,,,,,,,,,125.04927489999682,None,125.8328256001696,126.43306120019406,126.41639940068126,128.41748910024762,None,1,0.6135282395407557,2.6147132394835353,increament,0.6,15,standard,None,100,,,,,,,,m,21,228,fr,r,0,raw,2022-07-06_10h44.25.935,oddball,2022.1.2,59.88282151800157,
5,,,,,0,0,0,1,0,0,0,0,26,0,26,0,,,,,,,,,,,,,,,,,128.43386000022292,None,129.0678010005504,129.66784409992397,129.65153199993074,131.6517462003976,None,1,0.6128875408321619,2.613020840100944,increament,0.6,15,standard,None,100,,,,,,,,m,21,228,fr,r,0,raw,2022-07-06_10h44.25.935,oddball,2022.1.2,59.88282151800157,
5,,,,,0,0,0,1,0,0,0,0,27,0,27,0,,,,,,,,,,,,,,,,,131.6684250002727,None,132.25218350067735,132.85230039991438,132.83563140034676,134.83624859992415,None,1,0.6121565401554108,2.612747239880264,increament,0.6,15,standard,None,100,,,,,,,,m,21,228,fr,r,0,raw,2022-07-06_10h44.25.935,oddball,2022.1.2,59.88282151800157,
5,,,,,0,0,0,1,0,0,0,0,28,0,28,0,,,,,,,,,,,,,,,,,134.85290860012174,None,135.536490900442,136.13685390073806,136.12049360014498,138.12123070005327,None,1,0.6120479395613074,2.6128336396068335,increament,0.6,15,standard,None,100,,,,,,,,m,21,228,fr,r,0,raw,2022-07-06_10h44.25.935,oddball,2022.1.2,59.88282151800157,
5,,,,,0,0,0,1,0,0,0,0,29,0,29,0,,,,,,,,,,,,,,,,,138.13752750027925,None,138.70453099999577,139.30468530021608,139.28800120018423,141.28857700061053,None,1,0.6133509399369359,2.613923139870167,increament,0.6,15,standard,None,100,,,,,,,,m,21,228,fr,r,0,raw,2022-07-06_10h44.25.935,oddball,2022.1.2,59.88282151800157,
5,,,,,0,0,0,1,1,0,1,0,0,0,0,0,,,,,,,,,,,,,,,149.47941120062023,None,152.62627410050482,None,153.2604396007955,153.86032920051366,153.8435824001208,155.84418150037527,None,1,0.608561840839684,2.6091238409280777,decreament,0.6,11,standard,None,100,,141.30595970060676,None,,,,,m,21,228,fr,r,0,raw,2022-07-06_10h44.25.935,oddball,2022.1.2,59.88282151800157,
5,,,,,0,0,0,1,1,0,1,0,1,0,1,0,,,,,,,,,,,,,,,,,155.86099030077457,None,156.544524400495,157.14480500016361,157.1281077004969,159.12873760052025,None,1,0.6145689394325018,2.615166340023279,decreament,0.6,11,standard,None,100,,,,,,,,m,21,228,fr,r,0,raw,2022-07-06_10h44.25.935,oddball,2022.1.2,59.88282151800157,
5,,,,,0,0,0,1,1,0,1,0,2,0,2,0,,,,,,,,,,,,,,,,,159.14527489989996,None,159.67918320000172,160.27922460064292,160.26297060027719,162.26350030023605,None,1,0.6129668401554227,2.613490140065551,decreament,0.6,11,standard,None,100,,,,,,,,m,21,228,fr,r,0,raw,2022-07-06_10h44.25.935,oddball,2022.1.2,59.88282151800157,
5,,,,,0,0,0,1,1,0,1,0,3,0,3,0,,,,,,,,,,,,,,,,,162.28025449998677,None,163.0136551000178,163.61375740077347,163.597143500112,165.59825590066612,None,1,0.6123708393424749,2.613588538952172,decreament,0.6,11,standard,None,100,,,,,,,,m,21,228,fr,r,0,raw,2022-07-06_10h44.25.935,oddball,2022.1.2,59.88282151800157,
5,,,,,0,0,0,1,1,0,1,0,4,0,4,0,,,,,,,,,,,,,,,,,165.6148077007383,None,166.3317709006369,166.93221910018474,166.91545040067285,168.9161798004061,None,1,0.6133530400693417,2.6140820402652025,decreament,0.6,11,standard,None,100,,,,,,,,m,21,228,fr,r,0,raw,2022-07-06_10h44.25.935,oddball,2022.1.2,59.88282151800157,
5,,,,,0,0,0,1,1,0,1,0,5,0,5,0,,,,,,,,,,,,,,,,,168.933072200045,None,169.49929780047387,170.09965680073947,170.0833876999095,172.08423660043627,None,1,0.6137858396396041,2.6142522394657135,decreament,0.6,11,standard,None,100,,,,,,,,m,21,228,fr,r,0,raw,2022-07-06_10h44.25.935,oddball,2022.1.2,59.88282151800157,
5,,,,,0,0,0,1,1,0,1,0,6,0,6,0,,,,,,,,,,,,,,,,,172.1004308005795,None,172.71788890007883,173.08407100010663,173.05096710007638,175.05146290082484,j,1,0.3594015408307314,2.3598465407267213,decreament,0.36,13,oddball,j,60,0.6819653995335102,,,,,,,m,21,228,fr,r,0,raw,2022-07-06_10h44.25.935,oddball,2022.1.2,59.88282151800157,
5,,,,,0,0,0,1,1,0,1,0,7,0,7,0,,,,,,,,,,,,,,,,,175.06859100051224,None,175.7016110001132,176.3020628001541,176.2853037007153,178.28679060004652,None,1,0.6125503405928612,2.6141514405608177,decreament,0.6,11,standard,None,100,,,,,,,,m,21,228,fr,r,0,raw,2022-07-06_10h44.25.935,oddball,2022.1.2,59.88282151800157,
5,,,,,0,0,0,1,1,0,1,0,8,0,8,0,,,,,,,,,,,,,,,,,178.3033340005204,None,178.95299160014838,179.55322120059282,179.53666840028018,181.53776400070637,None,1,0.6130733396857977,2.614261639304459,decreament,0.6,11,standard,None,100,,,,,,,,m,21,228,fr,r,0,raw,2022-07-06_10h44.25.935,oddball,2022.1.2,59.88282151800157,
5,,,,,0,0,0,1,1,0,1,0,9,0,9,0,,,,,,,,,,,,,,,,,181.5554981008172,None,182.15455029997975,182.7547344006598,182.7378500001505,184.73847960028797,None,1,0.6093682395294309,2.6099601397290826,decreament,0.6,11,standard,None,100,,,,,,,,m,21,228,fr,r,0,raw,2022-07-06_10h44.25.935,oddball,2022.1.2,59.88282151800157,
5,,,,,0,0,0,1,1,0,1,0,10,0,10,0,,,,,,,,,,,,,,,,,184.75523569993675,None,185.32202730048448,185.92240869998932,185.9061568006873,187.90663340035826,None,1,0.6128018395975232,2.6133544389158487,decreament,0.6,11,standard,None,100,,,,,,,,m,21,228,fr,r,0,raw,2022-07-06_10h44.25.935,oddball,2022.1.2,59.88282151800157,
5,,,,,0,0,0,1,1,0,1,0,11,0,11,0,,,,,,,,,,,,,,,,,187.92322540003806,None,188.50654320046306,189.10687889996916,189.09053370077163,191.09104120079428,None,1,0.6135829398408532,2.614089240320027,decreament,0.6,11,standard,None,100,,,,,,,,m,21,228,fr,r,0,raw,2022-07-06_10h44.25.935,oddball,2022.1.2,59.88282151800157,
5,,,,,0,0,0,1,1,0,1,0,12,0,12,0,,,,,,,,,,,,,,,,,191.107926200144,None,191.84117950033396,192.4418575000018,192.42484980076551,194.42557290010154,j,0,0.6129555404186249,2.6136333402246237,decreament,0.6,11,standard,None,100,0.8207473997026682,,,,,,,m,21,228,fr,r,0,raw,2022-07-06_10h44.25.935,oddball,2022.1.2,59.88282151800157,
5,,,,,0,0,0,1,1,0,1,0,13,0,13,0,,,,,,,,,,,,,,,,,194.44243360031396,None,195.09248939994723,195.6927827000618,195.67642710078508,197.67694019991904,None,1,0.6139136394485831,2.6138842394575477,decreament,0.6,11,standard,None,100,,,,,,,,m,21,228,fr,r,0,raw,2022-07-06_10h44.25.935,oddball,2022.1.2,59.88282151800157,
5,,,,,0,0,0,1,1,0,1,0,14,0,14,0,,,,,,,,,,,,,,,,,197.69394760020077,None,198.44385599996895,198.69379960000515,198.66059900075197,200.6614395007491,j,1,0.24492354039102793,2.245834340341389,decreament,0.24,12,oddball,j,40,0.6256173001602292,,,,,,,m,21,228,fr,r,0,raw,2022-07-06_10h44.25.935,oddball,2022.1.2,59.88282151800157,
5,,,,,0,0,0,1,1,0,1,0,15,0,15,0,,,,,,,,,,,,,,,,,200.67790990043432,None,201.3280505007133,201.92844740021974,201.91195870004594,203.91247780062258,None,1,0.6133837392553687,2.614031839184463,decreament,0.6,11,standard,None,100,,,,,,,,m,21,228,fr,r,0,raw,2022-07-06_10h44.25.935,oddball,2022.1.2,59.88282151800157,
5,,,,,0,0,0,1,1,0,1,0,16,0,16,0,,,,,,,,,,,,,,,,,203.92927760072052,None,204.64661040063947,205.24646080005914,205.23021400067955,207.23072300013155,None,1,0.611245240084827,2.611717540770769,decreament,0.6,11,standard,None,100,,,,,,,,m,21,228,fr,r,0,raw,2022-07-06_10h44.25.935,oddball,2022.1.2,59.88282151800157,
5,,,,,0,0,0,1,1,0,1,0,17,0,17,0,,,,,,,,,,,,,,,,,207.24721099995077,None,207.93080840073526,208.53088070079684,208.51442210003734,210.515409800224,None,1,0.6129192411899567,2.6140319406986237,decreament,0.6,11,standard,None,100,,,,,,,,m,21,228,fr,r,0,raw,2022-07-06_10h44.25.935,oddball,2022.1.2,59.88282151800157,
5,,,,,0,0,0,1,1,0,1,0,18,0,18,0,,,,,,,,,,,,,,,,,210.53384019993246,None,211.1653478005901,211.7652823003009,211.74873310048133,213.74952380079776,None,1,0.6119829397648573,2.6128158401697874,decreament,0.6,11,standard,None,100,,,,,,,,m,21,228,fr,r,0,raw,2022-07-06_10h44.25.935,oddball,2022.1.2,59.88282151800157,
5,,,,,0,0,0,1,1,0,1,0,19,0,19,0,,,,,,,,,,,,,,,,,213.76640830002725,None,214.3829132001847,214.98337300028652,214.96660770010203,216.96773000061512,j,0,0.6137283397838473,2.6148738395422697,decreament,0.6,11,standard,None,100,0.5348383001983166,,,,,,,m,21,228,fr,r,0,raw,2022-07-06_10h44.25.935,oddball,2022.1.2,59.88282151800157,
5,,,,,0,0,0,1,1,0,1,0,20,0,20,0,,,,,,,,,,,,,,,,,216.9842345006764,None,217.68430470023304,218.2846539001912,218.26798100024462,220.26851250045002,None,1,0.6125051407143474,2.61301904078573,decreament,0.6,11,standard,None,100,,,,,,,,m,21,228,fr,r,0,raw,2022-07-06_10h44.25.935,oddball,2022.1.2,59.88282151800157,
5,,,,,0,0,0,1,1,0,1,0,21,0,21,0,,,,,,,,,,,,,,,,,220.28536750003695,None,220.9354081004858,221.53575289994478,221.51912240032107,223.51994730066508,j,0,0.6134519400075078,2.6142877405509353,decreament,0.6,11,standard,None,100,0.5184794003143907,,,,,,,m,21,228,fr,r,0,raw,2022-07-06_10h44.25.935,oddball,2022.1.2,59.88282151800157,
5,,,,,0,0,0,1,1,0,1,0,22,0,22,0,,,,,,,,,,,,,,,,,223.53639070037752,None,224.0869909003377,224.68713980074972,224.67027339991182,226.67118860036135,None,1,0.6126053398475051,2.6135189393535256,decreament,0.6,11,standard,None,100,,,,,,,,m,21,228,fr,r,0,raw,2022-07-06_10h44.25.935,oddball,2022.1.2,59.88282151800157,
5,,,,,0,0,0,1,1,0,1,0,23,0,23,0,,,,,,,,,,,,,,,,,226.68779470026493,None,227.2712628999725,227.8716335007921,227.85516769997776,229.85603230074048,j,0,0.613262640312314,2.6141269402578473,decreament,0.6,11,standard,None,100,0.7023878004401922,,,,,,,m,21,228,fr,r,0,raw,2022-07-06_10h44.25.935,oddball,2022.1.2,59.88282151800157,
5,,,,,0,0,0,1,1,0,1,0,24,0,24,0,,,,,,,,,,,,,,,,,229.8723289007321,None,230.4560229005292,231.05612750072032,231.03936030063778,233.040347000584,None,1,0.6104107396677136,2.6114134397357702,decreament,0.6,11,standard,None,100,,,,,,,,m,21,228,fr,r,0,raw,2022-07-06_10h44.25.935,oddball,2022.1.2,59.88282151800157,
5,,,,,0,0,0,1,1,0,1,0,25,0,25,0,,,,,,,,,,,,,,,,,233.05677910055965,None,233.6904163006693,234.29082990065217,234.27399460040033,236.27539990004152,None,1,0.6119964402168989,2.6134463399648666,decreament,0.6,11,standard,None,100,,,,,,,,m,21,228,fr,r,0,raw,2022-07-06_10h44.25.935,oddball,2022.1.2,59.88282151800157,
5,,,,,0,0,0,1,1,0,1,0,26,0,26,0,,,,,,,,,,,,,,,,,236.29167700000107,None,236.84168930072337,237.44188040029258,237.4252426000312,239.42576989997178,None,1,0.6133325397968292,2.6138195395469666,decreament,0.6,11,standard,None,100,,,,,,,,m,21,228,fr,r,0,raw,2022-07-06_10h44.25.935,oddball,2022.1.2,59.88282151800157,
5,,,,,0,0,0,1,1,0,1,0,27,0,27,0,,,,,,,,,,,,,,,,,239.44235120061785,None,240.0932476008311,240.57643160037696,240.55978769995272,242.56036400049925,j,1,0.49067264050245285,2.491283740848303,decreament,0.48,14,oddball,j,80,0.9261119998991489,,,,,,,m,21,228,fr,r,0,raw,2022-07-06_10h44.25.935,oddball,2022.1.2,59.88282151800157,
5,,,,,0,0,0,1,1,0,1,0,28,0,28,0,,,,,,,,,,,,,,,,,242.577175100334,None,243.2277166005224,243.82749180030078,243.81078940071166,245.81188020016998,None,1,0.6103290403261781,2.6115405401214957,decreament,0.6,11,standard,None,100,,,,,,,,m,21,228,fr,r,0,raw,2022-07-06_10h44.25.935,oddball,2022.1.2,59.88282151800157,
5,,,,,0,0,0,1,1,0,1,0,29,0,29,0,,,,,,,,,,,,,,,,,245.82847810070962,None,246.44560070056468,247.0456364005804,247.02875330019742,249.03000530041754,None,1,0.6128280404955149,2.6141438400372863,decreament,0.6,11,standard,None,100,,,,,,,,m,21,228,fr,r,0,raw,2022-07-06_10h44.25.935,oddball,2022.1.2,59.88282151800157,
5,,,,,0,0,0,1,2,0,2,0,0,0,0,0,,,,,,,,,,,,,,,254.7361806007102,None,257.2493263008073,None,257.94980690069497,258.54971920046955,258.5332569004968,260.5336587000638,None,1,0.6106886398047209,2.6110590398311615,increament,0.6,15,standard,None,100,,249.05013320036232,None,,,,,m,21,228,fr,r,0,raw,2022-07-06_10h44.25.935,oddball,2022.1.2,59.88282151800157,
5,,,,,0,0,0,1,2,0,2,0,1,0,1,0,,,,,,,,,,,,,,,,,260.5504829008132,None,261.1508950004354,261.75095590017736,261.734404200688,263.7350123003125,None,1,0.6123852394521236,2.612981839105487,increament,0.6,15,standard,None,100,,,,,,,,m,21,228,fr,r,0,raw,2022-07-06_10h44.25.935,oddball,2022.1.2,59.88282151800157,
5,,,,,0,0,0,1,2,0,2,0,2,0,2,0,,,,,,,,,,,,,,,,,263.75181200075895,None,264.45208560023457,265.052454800345,265.03597090020776,267.0367734003812,None,1,0.6095147393643856,2.610307939350605,increament,0.6,15,standard,None,100,,,,,,,,m,21,228,fr,r,0,raw,2022-07-06_10h44.25.935,oddball,2022.1.2,59.88282151800157,
5,,,,,0,0,0,1,2,0,2,0,3,0,3,0,,,,,,,,,,,,,,,,,267.05297350045294,None,267.6865845005959,268.28675440046936,268.27021550014615,270.27106200065464,None,1,0.61210654117167,2.6130146412178874,increament,0.6,15,standard,None,100,,,,,,,,m,21,228,fr,r,0,raw,2022-07-06_10h44.25.935,oddball,2022.1.2,59.88282151800157,
5,,,,,0,0,0,1,2,0,2,0,4,0,4,0,,,,,,,,,,,,,,,,,270.28762850072235,None,270.97150820028037,271.5713413003832,271.5553063005209,273.5556101007387,None,1,0.6132947402074933,2.613568540662527,increament,0.6,15,standard,None,100,,,,,,,,m,21,228,fr,r,0,raw,2022-07-06_10h44.25.935,oddball,2022.1.2,59.88282151800157,
5,,,,,0,0,0,1,2,0,2,0,5,0,5,0,,,,,,,,,,,,,,,,,273.57229580078274,None,274.2393463002518,274.8392449999228,274.8225906006992,276.82350540068,None,1,0.6132643399760127,2.614236139692366,increament,0.6,15,standard,None,100,,,,,,,,m,21,228,fr,r,0,raw,2022-07-06_10h44.25.935,oddball,2022.1.2,59.88282151800157,
5,,,,,0,0,0,1,2,0,2,0,6,0,6,0,,,,,,,,,,,,,,,,,276.8403564002365,None,277.39041709993035,277.99054710008204,277.97404289990664,279.97479930054396,None,1,0.6122416406869888,2.6130364406853914,increament,0.6,15,standard,None,100,,,,,,,,m,21,228,fr,r,0,raw,2022-07-06_10h44.25.935,oddball,2022.1.2,59.88282151800157,
5,,,,,0,0,0,1,2,0,2,0,7,0,7,0,,,,,,,,,,,,,,,,,279.99131060019135,None,280.7254208000377,281.32496690005064,281.3087562005967,283.3091507004574,None,1,0.6095495391637087,2.609948239289224,increament,0.6,15,standard,None,100,,,,,,,,m,21,228,fr,r,0,raw,2022-07-06_10h44.25.935,oddball,2022.1.2,59.88282151800157,
5,,,,,0,0,0,1,2,0,2,0,8,0,8,0,,,,,,,,,,,,,,,,,283.3260503001511,None,283.92566780000925,284.5261462004855,284.49304600059986,286.49402630049735,None,1,0.5993664404377341,2.6003948403522372,increament,0.6,15,standard,None,100,,,,,,,,m,21,228,fr,r,0,raw,2022-07-06_10h44.25.935,oddball,2022.1.2,59.88282151800157,
5,,,,,0,0,0,1,2,0,2,0,9,0,9,0,,,,,,,,,,,,,,,,,286.51079460047185,None,287.16081160027534,287.76092070061713,287.74450150039047,289.7450729999691,None,1,0.6081734402105212,2.6086964402347803,increament,0.6,15,standard,None,100,,,,,,,,m,21,228,fr,r,0,raw,2022-07-06_10h44.25.935,oddball,2022.1.2,59.88282151800157,
5,,,,,0,0,0,1,2,0,2,0,10,0,10,0,,,,,,,,,,,,,,,,,289.7617087000981,None,290.31205850001425,290.91206110082567,290.8953817002475,292.8965887008235,None,1,0.6105251414701343,2.611767541617155,increament,0.6,15,standard,None,100,,,,,,,,m,21,228,fr,r,0,raw,2022-07-06_10h44.25.935,oddball,2022.1.2,59.88282151800157,
5,,,,,0,0,0,1,2,0,2,0,11,0,11,0,,,,,,,,,,,,,,,,,292.9129634005949,None,293.51359730027616,294.3632607003674,294.3302143001929,296.33075150009245,j,1,0.8461565403267741,2.8466777401044965,increament,0.84,17,oddball,j,140,0.38828730024397373,,,,,,,m,21,228,fr,r,0,raw,2022-07-06_10h44.25.935,oddball,2022.1.2,59.88282151800157,
5,,,,,0,0,0,1,2,0,2,0,12,0,12,0,,,,,,,,,,,,,,,,,296.3475977005437,None,297.1479159006849,297.74791160039604,297.73134430032223,299.7319187000394,None,1,0.6077527394518256,2.608314340002835,increament,0.6,15,standard,None,100,,,,,,,,m,21,228,fr,r,0,raw,2022-07-06_10h44.25.935,oddball,2022.1.2,59.88282151800157,
5,,,,,0,0,0,1,2,0,2,0,13,0,13,0,,,,,,,,,,,,,,,,,299.74871900025755,None,300.3159440001473,300.91621710080653,300.89960610028356,302.900447900407,None,1,0.6122836396098137,2.613127339631319,increament,0.6,15,standard,None,100,,,,,,,,m,21,228,fr,r,0,raw,2022-07-06_10h44.25.935,oddball,2022.1.2,59.88282151800157,
5,,,,,0,0,0,1,2,0,2,0,14,0,14,0,,,,,,,,,,,,,,,,,302.91799110081047,None,303.46715559996665,304.06722540035844,304.05083910003304,306.0512709999457,None,1,0.6130410404875875,2.613380240276456,increament,0.6,15,standard,None,100,,,,,,,,m,21,228,fr,r,0,raw,2022-07-06_10h44.25.935,oddball,2022.1.2,59.88282151800157,
5,,,,,0,0,0,1,2,0,2,0,15,0,15,0,,,,,,,,,,,,,,,,,306.06799730006605,None,306.7180516999215,307.31811880040914,307.3014190001413,309.30231040064245,None,1,0.614179840311408,2.6151104401797056,increament,0.6,15,standard,None,100,,,,,,,,m,21,228,fr,r,0,raw,2022-07-06_10h44.25.935,oddball,2022.1.2,59.88282151800157,
5,,,,,0,0,0,1,2,0,2,0,16,0,16,0,,,,,,,,,,,,,,,,,309.3193305004388,None,310.06922620069236,311.0364983007312,311.0030630007386,313.0037612002343,j,1,0.9634656403213739,2.964174940250814,increament,0.96,18,oddball,j,160,0.4426252003759146,,,,,,,m,21,228,fr,r,0,raw,2022-07-06_10h44.25.935,oddball,2022.1.2,59.88282151800157,
5,,,,,0,0,0,1,2,0,2,0,17,0,17,0,,,,,,,,,,,,,,,,,313.0207923008129,None,313.5708332005888,314.17091160081327,314.15445710066706,316.15502119995654,None,1,0.6098431404680014,2.6103728404268622,increament,0.6,15,standard,None,100,,,,,,,,m,21,228,fr,r,0,raw,2022-07-06_10h44.25.935,oddball,2022.1.2,59.88282151800157,
5,,,,,0,0,0,1,2,0,2,0,18,0,18,0,,,,,,,,,,,,,,,,,316.17164960037917,None,316.7886271001771,317.3888556007296,317.37219370063394,319.3727267002687,None,1,0.6136511405929923,2.614166640676558,increament,0.6,15,standard,None,100,,,,,,,,m,21,228,fr,r,0,raw,2022-07-06_10h44.25.935,oddball,2022.1.2,59.88282151800157,
5,,,,,0,0,0,1,2,0,2,0,19,0,19,0,,,,,,,,,,,,,,,,,319.38964410033077,None,319.98994780052453,320.5902155004442,320.57390100043267,322.5740423006937,None,1,0.6114840405061841,2.6115266401320696,increament,0.6,15,standard,None,100,,,,,,,,m,21,228,fr,r,0,raw,2022-07-06_10h44.25.935,oddball,2022.1.2,59.88282151800157,
5,,,,,0,0,0,1,2,0,2,0,20,0,20,0,,,,,,,,,,,,,,,,,322.5909390999004,None,323.24114000052214,323.8414162006229,323.8250031005591,325.825371700339,None,1,0.6119580399245024,2.6123350402340293,increament,0.6,15,standard,None,100,,,,,,,,m,21,228,fr,r,0,raw,2022-07-06_10h44.25.935,oddball,2022.1.2,59.88282151800157,
5,,,,,0,0,0,1,2,0,2,0,21,0,21,0,,,,,,,,,,,,,,,,,325.8423776002601,None,326.50916330050677,327.1092320000753,327.092506300658,329.0935620004311,None,1,0.6097098393365741,2.6107968389987946,increament,0.6,15,standard,None,100,,,,,,,,m,21,228,fr,r,0,raw,2022-07-06_10h44.25.935,oddball,2022.1.2,59.88282151800157,
5,,,,,0,0,0,1,2,0,2,0,22,0,22,0,,,,,,,,,,,,,,,,,329.1098619000986,None,329.7934250999242,330.3936350001022,330.37720909994096,332.3777022007853,None,1,0.6134182401001453,2.613907439634204,increament,0.6,15,standard,None,100,,,,,,,,m,21,228,fr,r,0,raw,2022-07-06_10h44.25.935,oddball,2022.1.2,59.88282151800157,
5,,,,,0,0,0,1,2,0,2,0,23,0,23,0,,,,,,,,,,,,,,,,,332.3946887999773,None,333.1117756003514,333.711727200076,333.6950587006286,335.69566110055894,None,1,0.6092835403978825,2.609847240149975,increament,0.6,15,standard,None,100,,,,,,,,m,21,228,fr,r,0,raw,2022-07-06_10h44.25.935,oddball,2022.1.2,59.88282151800157,
5,,,,,0,0,0,1,2,0,2,0,24,0,24,0,,,,,,,,,,,,,,,,,335.7121735000983,None,336.379372600466,337.1131804008037,337.0798463001847,339.0800463007763,j,1,0.7268914394080639,2.726994039490819,increament,0.72,16,oddball,j,120,0.3084335997700691,,,,,,,m,21,228,fr,r,0,raw,2022-07-06_10h44.25.935,oddball,2022.1.2,59.88282151800157,
5,,,,,0,0,0,1,2,0,2,0,25,0,25,0,,,,,,,,,,,,,,,,,339.09668900072575,None,339.7143908003345,340.3140435004607,340.29749120026827,342.2981523005292,None,1,0.6096207406371832,2.6102748410776258,increament,0.6,15,standard,None,100,,,,,,,,m,21,228,fr,r,0,raw,2022-07-06_10h44.25.935,oddball,2022.1.2,59.88282151800157,
5,,,,,0,0,0,1,2,0,2,0,26,0,26,0,,,,,,,,,,,,,,,,,342.3147990005091,None,342.96558640059084,343.5653236005455,343.5488344002515,345.549381300807,None,1,0.6079850401729345,2.608532840386033,increament,0.6,15,standard,None,100,,,,,,,,m,21,228,fr,r,0,raw,2022-07-06_10h44.25.935,oddball,2022.1.2,59.88282151800157,
5,,,,,0,0,0,1,2,0,2,0,27,0,27,0,,,,,,,,,,,,,,,,,345.5664614001289,None,346.25025720056146,346.8503335006535,346.83362819999456,348.8341038003564,None,1,0.6120287394151092,2.6124902395531535,increament,0.6,15,standard,None,100,,,,,,,,m,21,228,fr,r,0,raw,2022-07-06_10h44.25.935,oddball,2022.1.2,59.88282151800157,
5,,,,,0,0,0,1,2,0,2,0,28,0,28,0,,,,,,,,,,,,,,,,,348.85104240011424,None,349.5344484001398,350.1344739003107,350.11777900066227,352.1186993001029,None,1,0.612256440334022,2.6131907403469086,increament,0.6,15,standard,None,100,,,,,,,,m,21,228,fr,r,0,raw,2022-07-06_10h44.25.935,oddball,2022.1.2,59.88282151800157,
5,,,,,0,0,0,1,2,0,2,0,29,0,29,0,,,,,,,,,,,,,,,,,352.1351898005232,None,352.73541110008955,353.3364214999601,353.3195211002603,355.31974680069834,None,1,0.6140917399898171,2.614213040098548,increament,0.6,15,standard,None,100,,,,,,,,m,21,228,fr,r,0,raw,2022-07-06_10h44.25.935,oddball,2022.1.2,59.88282151800157,
5,,,,,0,0,0,1,3,0,3,0,0,0,0,0,,,,,,,,,,,,,,,361.1654502004385,None,362.73921540006995,None,363.3562175007537,363.9567229002714,363.94002620037645,365.94061870034784,None,1,0.6134227402508259,2.6140143405646086,decreament,0.6,11,standard,None,100,,355.3370365006849,None,,,,,m,21,228,fr,r,0,raw,2022-07-06_10h44.25.935,oddball,2022.1.2,59.88282151800157,
5,,,,,0,0,0,1,3,0,3,0,1,0,1,0,,,,,,,,,,,,,,,,,365.9572887001559,None,366.6243381006643,367.2242053002119,367.20768660027534,369.20865100063384,None,1,0.6097812401130795,2.6107721403241158,decreament,0.6,11,standard,None,100,,,,,,,,m,21,228,fr,r,0,raw,2022-07-06_10h44.25.935,oddball,2022.1.2,59.88282151800157,
5,,,,,0,0,0,1,3,0,3,0,2,0,2,0,,,,,,,,,,,,,,,,,369.22526940051466,None,369.8422327004373,370.4425399005413,370.4257896002382,372.42619090061635,None,1,0.6107734395191073,2.6111274398863316,decreament,0.6,11,standard,None,100,,,,,,,,m,21,228,fr,r,0,raw,2022-07-06_10h44.25.935,oddball,2022.1.2,59.88282151800157,
5,,,,,0,0,0,1,3,0,3,0,3,0,3,0,,,,,,,,,,,,,,,,,372.4432172002271,None,373.1101247007027,373.71006560046226,373.6933627007529,375.6943994006142,None,1,0.6116035394370556,2.6126537397503853,decreament,0.6,11,standard,None,100,,,,,,,,m,21,228,fr,r,0,raw,2022-07-06_10h44.25.935,oddball,2022.1.2,59.88282151800157,
5,,,,,0,0,0,1,3,0,3,0,4,0,4,0,,,,,,,,,,,,,,,,,375.7110226005316,None,376.26136910077184,376.861437600106,376.8449125001207,378.84538580011576,None,1,0.6126717403531075,2.613097540102899,decreament,0.6,11,standard,None,100,,,,,,,,m,21,228,fr,r,0,raw,2022-07-06_10h44.25.935,oddball,2022.1.2,59.88282151800157,
5,,,,,0,0,0,1,3,0,3,0,5,0,5,0,,,,,,,,,,,,,,,,,378.86238430067897,None,379.5790773006156,380.1791451005265,380.16245090030134,382.16394610051066,None,1,0.6114175403490663,2.6130289398133755,decreament,0.6,11,standard,None,100,,,,,,,,m,21,228,fr,r,0,raw,2022-07-06_10h44.25.935,oddball,2022.1.2,59.88282151800157,
5,,,,,0,0,0,1,3,0,3,0,6,0,6,0,,,,,,,,,,,,,,,,,382.1799645004794,None,382.93020870070904,383.5306278001517,383.5142139000818,385.5145665006712,None,1,0.6136965397745371,2.6139905396848917,decreament,0.6,11,standard,None,100,,,,,,,,m,21,228,fr,r,0,raw,2022-07-06_10h44.25.935,oddball,2022.1.2,59.88282151800157,
5,,,,,0,0,0,1,3,0,3,0,7,0,7,0,,,,,,,,,,,,,,,,,385.5313217006624,None,386.29816720075905,386.54824990034103,386.5149262007326,388.5163646005094,j,1,0.24524613935500383,2.2468285392969847,decreament,0.24,12,oddball,j,40,0.5372165003791451,,,,,,,m,21,228,fr,r,0,raw,2022-07-06_10h44.25.935,oddball,2022.1.2,59.88282151800157,
5,,,,,0,0,0,1,3,0,3,0,8,0,8,0,,,,,,,,,,,,,,,,,388.5323691004887,None,389.28307580016553,389.8831192003563,389.866627400741,391.8669806001708,None,1,0.6114976396784186,2.6117510395124555,decreament,0.6,11,standard,None,100,,,,,,,,m,21,228,fr,r,0,raw,2022-07-06_10h44.25.935,oddball,2022.1.2,59.88282151800157,
5,,,,,0,0,0,1,3,0,3,0,9,0,9,0,,,,,,,,,,,,,,,,,391.8835400007665,None,392.45045450050384,393.051012000069,393.0340539999306,395.0348207000643,None,1,0.6127738393843174,2.613517539575696,decreament,0.6,11,standard,None,100,,,,,,,,m,21,228,fr,r,0,raw,2022-07-06_10h44.25.935,oddball,2022.1.2,59.88282151800157,
5,,,,,0,0,0,1,3,0,3,0,10,0,10,0,,,,,,,,,,,,,,,,,395.0517092999071,None,395.651713100262,396.2521600006148,396.2356740999967,398.23620750010014,None,1,0.6144080394878983,2.6148878391832113,decreament,0.6,11,standard,None,100,,,,,,,,m,21,228,fr,r,0,raw,2022-07-06_10h44.25.935,oddball,2022.1.2,59.88282151800157,
5,,,,,0,0,0,1,3,0,3,0,11,0,11,0,,,,,,,,,,,,,,,,,398.2527278000489,None,398.90364600066096,399.2697219001129,399.253121400252,401.2539977002889,j,1,0.3747813403606415,2.3757467409595847,decreament,0.36,13,oddball,j,60,0.5353529993444681,,,,,,,m,21,228,fr,r,0,raw,2022-07-06_10h44.25.935,oddball,2022.1.2,59.88282151800157,
5,,,,,0,0,0,1,3,0,3,0,12,0,12,0,,,,,,,,,,,,,,,,,401.2706879004836,None,401.9712313003838,402.57112880051136,402.5543348006904,404.55478300061077,None,1,0.611246439628303,2.611642239615321,decreament,0.6,11,standard,None,100,,,,,,,,m,21,228,fr,r,0,raw,2022-07-06_10h44.25.935,oddball,2022.1.2,59.88282151800157,
5,,,,,0,0,0,1,3,0,3,0,13,0,13,0,,,,,,,,,,,,,,,,,404.57142920047045,None,405.40597230009735,406.005853000097,405.98910470027477,407.98988489992917,None,1,0.6110449405387044,2.6118629407137632,decreament,0.6,11,standard,None,100,,,,,,,,m,21,228,fr,r,0,raw,2022-07-06_10h44.25.935,oddball,2022.1.2,59.88282151800157,
5,,,,,0,0,0,1,3,0,3,0,14,0,14,0,,,,,,,,,,,,,,,,,408.00628839991987,None,408.6398636000231,409.2401507003233,409.223827900365,411.2243502000347,None,1,0.6146078407764435,2.6151418406516314,decreament,0.6,11,standard,None,100,,,,,,,,m,21,228,fr,r,0,raw,2022-07-06_10h44.25.935,oddball,2022.1.2,59.88282151800157,
5,,,,,0,0,0,1,3,0,3,0,15,0,15,0,,,,,,,,,,,,,,,,,411.2411314006895,None,411.95822410006076,412.55820900015533,412.54144120030105,414.54227600060403,None,1,0.6110369404777884,2.611884940415621,decreament,0.6,11,standard,None,100,,,,,,,,m,21,228,fr,r,0,raw,2022-07-06_10h44.25.935,oddball,2022.1.2,59.88282151800157,
5,,,,,0,0,0,1,3,0,3,0,16,0,16,0,,,,,,,,,,,,,,,,,414.55891450028867,None,415.15932899992913,415.75922130048275,415.7430941006169,417.74380980059505,None,1,0.6128307394683361,2.6135887391865253,decreament,0.6,11,standard,None,100,,,,,,,,m,21,228,fr,r,0,raw,2022-07-06_10h44.25.935,oddball,2022.1.2,59.88282151800157,
5,,,,,0,0,0,1,3,0,3,0,17,0,17,0,,,,,,,,,,,,,,,,,417.7600129004568,None,418.4602815005928,419.06059890054166,419.0440298002213,421.04481100011617,None,1,0.6121368398889899,2.612978340126574,decreament,0.6,11,standard,None,100,,,,,,,,m,21,228,fr,r,0,raw,2022-07-06_10h44.25.935,oddball,2022.1.2,59.88282151800157,
5,,,,,0,0,0,1,3,0,3,0,18,0,18,0,,,,,,,,,,,,,,,,,421.0612924005836,None,421.59504429996014,422.1951796002686,422.17847450077534,424.1796456007287,None,1,0.6132402401417494,2.6145505402237177,decreament,0.6,11,standard,None,100,,,,,,,,m,21,228,fr,r,0,raw,2022-07-06_10h44.25.935,oddball,2022.1.2,59.88282151800157,
5,,,,,0,0,0,1,3,0,3,0,19,0,19,0,,,,,,,,,,,,,,,,,424.19682280067354,None,424.9795758007094,425.579912500456,425.5637811999768,427.56384120043367,None,1,0.6136689400300384,2.613617639988661,decreament,0.6,11,standard,None,100,,,,,,,,m,21,228,fr,r,0,raw,2022-07-06_10h44.25.935,oddball,2022.1.2,59.88282151800157,
5,,,,,0,0,0,1,3,0,3,0,20,0,20,0,,,,,,,,,,,,,,,,,427.580520500429,None,428.19758290052414,428.79791700001806,428.78122710064054,430.78170560020953,None,1,0.6130274403840303,2.6134698409587145,decreament,0.6,11,standard,None,100,,,,,,,,m,21,228,fr,r,0,raw,2022-07-06_10h44.25.935,oddball,2022.1.2,59.88282151800157,
5,,,,,0,0,0,1,3,0,3,0,21,0,21,0,,,,,,,,,,,,,,,,,430.79844100028276,None,431.3987746005878,431.8822570005432,431.8488384000957,433.8499774001539,j,1,0.4790339395403862,2.4802048401907086,decreament,0.48,14,oddball,j,80,1.0441461000591516,,,,,,,m,21,228,fr,r,0,raw,2022-07-06_10h44.25.935,oddball,2022.1.2,59.88282151800157,
5,,,,,0,0,0,1,3,0,3,0,22,0,22,0,,,,,,,,,,,,,,,,,433.86610200069845,None,434.68358720000833,435.2833823002875,435.2669141003862,437.2678175000474,None,1,0.6108778398483992,2.6118576396256685,decreament,0.6,11,standard,None,100,,,,,,,,m,21,228,fr,r,0,raw,2022-07-06_10h44.25.935,oddball,2022.1.2,59.88282151800157,
5,,,,,0,0,0,1,3,0,3,0,23,0,23,0,,,,,,,,,,,,,,,,,437.284969500266,None,437.96776150073856,438.5679210005328,438.5516550000757,440.5521932002157,None,1,0.6131853396072984,2.6136917397379875,decreament,0.6,11,standard,None,100,,,,,,,,m,21,228,fr,r,0,raw,2022-07-06_10h44.25.935,oddball,2022.1.2,59.88282151800157,
5,,,,,0,0,0,1,3,0,3,0,24,0,24,0,,,,,,,,,,,,,,,,,440.56886260025203,None,441.1689569000155,441.76925980020314,441.75265320017934,443.75339040067047,None,1,0.6119270408526063,2.6127081410959363,decreament,0.6,11,standard,None,100,,,,,,,,m,21,228,fr,r,0,raw,2022-07-06_10h44.25.935,oddball,2022.1.2,59.88282151800157,
5,,,,,0,0,0,1,3,0,3,0,25,0,25,0,,,,,,,,,,,,,,,,,443.77033160068095,None,444.3873158004135,444.9870966002345,444.9703570008278,446.9716429999098,None,1,0.6127006402239203,2.614058740437031,decreament,0.6,11,standard,None,100,,,,,,,,m,21,228,fr,r,0,raw,2022-07-06_10h44.25.935,oddball,2022.1.2,59.88282151800157,
5,,,,,0,0,0,1,3,0,3,0,26,0,26,0,,,,,,,,,,,,,,,,,446.9886436006054,None,447.58838640060276,448.18862299993634,448.1720229005441,450.172352200374,None,1,0.6126839406788349,2.6129288403317332,decreament,0.6,11,standard,None,100,,,,,,,,m,21,228,fr,r,0,raw,2022-07-06_10h44.25.935,oddball,2022.1.2,59.88282151800157,
5,,,,,0,0,0,1,3,0,3,0,27,0,27,0,,,,,,,,,,,,,,,,,450.18909180071205,None,450.78967110067606,451.38975720014423,451.3731025001034,453.3733422001824,None,1,0.6101446403190494,2.6102999402210116,decreament,0.6,11,standard,None,100,,,,,,,,m,21,228,fr,r,0,raw,2022-07-06_10h44.25.935,oddball,2022.1.2,59.88282151800157,
5,,,,,0,0,0,1,3,0,3,0,28,0,28,0,,,,,,,,,,,,,,,,,453.39019560068846,None,454.0572771001607,454.65734919998795,454.6406451007351,456.6414649002254,None,1,0.6126745399087667,2.6134789399802685,decreament,0.6,11,standard,None,100,,,,,,,,m,21,228,fr,r,0,raw,2022-07-06_10h44.25.935,oddball,2022.1.2,59.88282151800157,
5,,,,,0,0,0,1,3,0,3,0,29,0,29,0,,,,,,,,,,,,,,,,,456.6580718001351,None,457.3918568007648,457.99171010032296,457.9752387003973,459.97634030040354,None,1,0.6133233401924372,2.614450940862298,decreament,0.6,11,standard,None,100,,,,,,,,m,21,228,fr,r,0,raw,2022-07-06_10h44.25.935,oddball,2022.1.2,59.88282151800157,
5,,,,,0,0,0,1,4,0,4,0,0,0,0,0,,,,,,,,,,,,,,,467.5327542005107,None,468.9796242006123,None,469.5967940008268,470.1966750007123,470.18054980039597,472.1809553001076,None,1,0.6090125404298306,2.6093833399936557,increament,0.6,15,standard,None,100,,459.9930805005133,None,,,,,m,21,228,fr,r,0,raw,2022-07-06_10h44.25.935,oddball,2022.1.2,59.88282151800157,
5,,,,,0,0,0,1,4,0,4,0,1,0,1,0,,,,,,,,,,,,,,,,,472.197414400056,None,472.84772700071335,473.4480407005176,473.4316958999261,475.4326747003943,None,1,0.6120715402066708,2.613064340315759,increament,0.6,15,standard,None,100,,,,,,,,m,21,228,fr,r,0,raw,2022-07-06_10h44.25.935,oddball,2022.1.2,59.88282151800157,
5,,,,,0,0,0,1,4,0,4,0,2,0,2,0,,,,,,,,,,,,,,,,,475.45119170006365,None,476.0993624003604,476.6992626003921,476.68260770011693,478.68313020002097,None,1,0.6115445401519537,2.6120271403342485,increament,0.6,15,standard,None,100,,,,,,,,m,21,228,fr,r,0,raw,2022-07-06_10h44.25.935,oddball,2022.1.2,59.88282151800157,
5,,,,,0,0,0,1,4,0,4,0,3,0,3,0,,,,,,,,,,,,,,,,,478.7000389005989,None,479.25004200078547,479.85020280070603,479.83391149993986,481.83481360040605,None,1,0.6127464398741722,2.613691139034927,increament,0.6,15,standard,None,100,,,,,,,,m,21,228,fr,r,0,raw,2022-07-06_10h44.25.935,oddball,2022.1.2,59.88282151800157,
5,,,,,0,0,0,1,4,0,4,0,4,0,4,0,,,,,,,,,,,,,,,,,481.85126840043813,None,482.60127730015665,483.20179710071534,483.1853692000732,485.1854669004679,None,1,0.6122186398133636,2.6122004399076104,increament,0.6,15,standard,None,100,,,,,,,,m,21,228,fr,r,0,raw,2022-07-06_10h44.25.935,oddball,2022.1.2,59.88282151800157,
5,,,,,0,0,0,1,4,0,4,0,5,0,5,0,,,,,,,,,,,,,,,,,485.202229199931,None,485.96940080076456,486.56944140046835,486.5528668006882,488.5539775006473,None,1,0.6127524403855205,2.613970340229571,increament,0.6,15,standard,None,100,,,,,,,,m,21,228,fr,r,0,raw,2022-07-06_10h44.25.935,oddball,2022.1.2,59.88282151800157,
5,,,,,0,0,0,1,4,0,4,0,6,0,6,0,,,,,,,,,,,,,,,,,488.57024670019746,None,489.2546049002558,490.10408820025623,490.0709450999275,492.0718100005761,None,0,0.8444617390632629,2.8453656397759914,increament,0.84,17,oddball,j,140,,,,,,,,m,21,228,fr,r,0,raw,2022-07-06_10h44.25.935,oddball,2022.1.2,59.88282151800157,
5,,,,,0,0,0,1,4,0,4,0,7,0,7,0,,,,,,,,,,,,,,,,,492.08836010005325,None,492.6051836004481,493.20523750036955,493.18920799996704,495.189427100122,None,1,0.6096986392512918,2.609891839325428,increament,0.6,15,standard,None,100,,,,,,,,m,21,228,fr,r,0,raw,2022-07-06_10h44.25.935,oddball,2022.1.2,59.88282151800157,
5,,,,,0,0,0,1,4,0,4,0,8,0,8,0,,,,,,,,,,,,,,,,,495.2060890002176,None,495.79010400082916,496.3897803006694,496.37310430034995,498.37416990008205,None,1,0.6105306409299374,2.6116277407854795,increament,0.6,15,standard,None,100,,,,,,,,m,21,228,fr,r,0,raw,2022-07-06_10h44.25.935,oddball,2022.1.2,59.88282151800157,
5,,,,,0,0,0,1,4,0,4,0,9,0,9,0,,,,,,,,,,,,,,,,,498.3906513005495,None,499.0409112004563,499.6411200007424,499.62440390046686,501.6252770004794,None,1,0.6141758393496275,2.6150595396757126,increament,0.6,15,standard,None,100,,,,,,,,m,21,228,fr,r,0,raw,2022-07-06_10h44.25.935,oddball,2022.1.2,59.88282151800157,
5,,,,,0,0,0,1,4,0,4,0,10,0,10,0,,,,,,,,,,,,,,,,,501.6419128999114,None,502.29284520074725,502.8923024004325,502.8758331006393,504.87662070058286,None,1,0.6111456397920847,2.611977939493954,increament,0.6,15,standard,None,100,,,,,,,,m,21,228,fr,r,0,raw,2022-07-06_10h44.25.935,oddball,2022.1.2,59.88282151800157,
5,,,,,0,0,0,1,4,0,4,0,11,0,11,0,,,,,,,,,,,,,,,,,504.89318290073425,None,505.52705890033394,506.12684420030564,506.11033290065825,508.11105920001864,None,1,0.6109945401549339,2.61177094001323,increament,0.6,15,standard,None,100,,,,,,,,m,21,228,fr,r,0,raw,2022-07-06_10h44.25.935,oddball,2022.1.2,59.88282151800157,
5,,,,,0,0,0,1,4,0,4,0,12,0,12,0,,,,,,,,,,,,,,,,,508.1279778005555,None,508.7113920999691,509.31159970071167,509.2951891999692,511.2957953000441,None,1,0.612596140243113,2.6132202399894595,increament,0.6,15,standard,None,100,,,,,,,,m,21,228,fr,r,0,raw,2022-07-06_10h44.25.935,oddball,2022.1.2,59.88282151800157,
5,,,,,0,0,0,1,4,0,4,0,13,0,13,0,,,,,,,,,,,,,,,,,511.3121664999053,None,511.8459513001144,512.445967300795,512.4298062007874,514.4303351007402,None,1,0.6124279405921698,2.6129536405205727,increament,0.6,15,standard,None,100,,,,,,,,m,21,228,fr,r,0,raw,2022-07-06_10h44.25.935,oddball,2022.1.2,59.88282151800157,
5,,,,,0,0,0,1,4,0,4,0,14,0,14,0,,,,,,,,,,,,,,,,,514.446611800231,None,515.0302039999515,515.6304516000673,515.6138854008168,517.6145335007459,None,1,0.6138508403673768,2.6145158410072327,increament,0.6,15,standard,None,100,,,,,,,,m,21,228,fr,r,0,raw,2022-07-06_10h44.25.935,oddball,2022.1.2,59.88282151800157,
5,,,,,0,0,0,1,4,0,4,0,15,0,15,0,,,,,,,,,,,,,,,,,517.6314358999953,None,518.1814860999584,518.7817224003375,518.7650658003986,520.7660979004577,None,1,0.6133779399096966,2.614497940056026,increament,0.6,15,standard,None,100,,,,,,,,m,21,228,fr,r,0,raw,2022-07-06_10h44.25.935,oddball,2022.1.2,59.88282151800157,
5,,,,,0,0,0,1,4,0,4,0,16,0,16,0,,,,,,,,,,,,,,,,,520.7831669999287,None,521.5494547002017,522.1496800007299,522.133028300479,524.1342033008114,None,1,0.6135709397494793,2.6147982394322753,increament,0.6,15,standard,None,100,,,,,,,,m,21,228,fr,r,0,raw,2022-07-06_10h44.25.935,oddball,2022.1.2,59.88282151800157,
5,,,,,0,0,0,1,4,0,4,0,17,0,17,0,,,,,,,,,,,,,,,,,524.1503745000809,None,524.7675729999319,525.3674900000915,525.3508603004739,527.3520563999191,None,1,0.6118135396391153,2.6130909398198128,increament,0.6,15,standard,None,100,,,,,,,,m,21,228,fr,r,0,raw,2022-07-06_10h44.25.935,oddball,2022.1.2,59.88282151800157,
5,,,,,0,0,0,1,4,0,4,0,18,0,18,0,,,,,,,,,,,,,,,,,527.3681854000315,None,528.0354444999248,528.6353934006765,528.6191025003791,530.6195149002597,None,1,0.6123539404943585,2.612766140140593,increament,0.6,15,standard,None,100,,,,,,,,m,21,228,fr,r,0,raw,2022-07-06_10h44.25.935,oddball,2022.1.2,59.88282151800157,
5,,,,,0,0,0,1,4,0,4,0,19,0,19,0,,,,,,,,,,,,,,,,,530.6363799003884,None,531.5032900003716,532.1036931006238,532.0873018000275,534.0876678004861,None,1,0.6109818397089839,2.611331139691174,increament,0.6,15,standard,None,100,,,,,,,,m,21,228,fr,r,0,raw,2022-07-06_10h44.25.935,oddball,2022.1.2,59.88282151800157,
5,,,,,0,0,0,1,4,0,4,0,20,0,20,0,,,,,,,,,,,,,,,,,534.1041529001668,None,534.7378671001643,535.3378516007215,535.3210990000516,537.3219257006422,None,1,0.6117961397394538,2.61265224032104,increament,0.6,15,standard,None,100,,,,,,,,m,21,228,fr,r,0,raw,2022-07-06_10h44.25.935,oddball,2022.1.2,59.88282151800157,
5,,,,,0,0,0,1,4,0,4,0,21,0,21,0,,,,,,,,,,,,,,,,,537.3387118000537,None,537.939211900346,538.6725892005488,538.6393763003871,540.6399535005912,j,1,0.7293754396960139,2.7299284394830465,increament,0.72,16,oddball,j,120,0.7178713995963335,,,,,,,m,21,228,fr,r,0,raw,2022-07-06_10h44.25.935,oddball,2022.1.2,59.88282151800157,
5,,,,,0,0,0,1,4,0,4,0,22,0,22,0,,,,,,,,,,,,,,,,,540.6568485004827,None,541.4071154007688,542.0071054007858,541.9905646005645,543.9912362005562,None,1,0.6129396399483085,2.6135977394878864,increament,0.6,15,standard,None,100,,,,,,,,m,21,228,fr,r,0,raw,2022-07-06_10h44.25.935,oddball,2022.1.2,59.88282151800157,
5,,,,,0,0,0,1,4,0,4,0,23,0,23,0,,,,,,,,,,,,,,,,,544.0079836007208,None,544.7085367999971,545.3084444999695,545.2920032003894,547.2925906004384,None,1,0.6125033404678106,2.6130475401878357,increament,0.6,15,standard,None,100,,,,,,,,m,21,228,fr,r,0,raw,2022-07-06_10h44.25.935,oddball,2022.1.2,59.88282151800157,
5,,,,,0,0,0,1,4,0,4,0,24,0,24,0,,,,,,,,,,,,,,,,,547.309462800622,None,547.9929764000699,548.5929284002632,548.5763016007841,550.5773256001994,None,1,0.6091361399739981,2.6101947398856282,increament,0.6,15,standard,None,100,,,,,,,,m,21,228,fr,r,0,raw,2022-07-06_10h44.25.935,oddball,2022.1.2,59.88282151800157,
5,,,,,0,0,0,1,4,0,4,0,25,0,25,0,,,,,,,,,,,,,,,,,550.5941193001345,None,551.2941751005128,551.8944565001875,551.8777430001646,553.8785076001659,None,1,0.6132867410778999,2.6140719410032034,increament,0.6,15,standard,None,100,,,,,,,,m,21,228,fr,r,0,raw,2022-07-06_10h44.25.935,oddball,2022.1.2,59.88282151800157,
5,,,,,0,0,0,1,4,0,4,0,26,0,26,0,,,,,,,,,,,,,,,,,553.8949490003288,None,554.428778800182,555.0287243006751,555.0122075006366,557.0129094999284,None,1,0.612540340051055,2.613252140581608,increament,0.6,15,standard,None,100,,,,,,,,m,21,228,fr,r,0,raw,2022-07-06_10h44.25.935,oddball,2022.1.2,59.88282151800157,
5,,,,,0,0,0,1,4,0,4,0,27,0,27,0,,,,,,,,,,,,,,,,,557.0294979000464,None,557.6133062001318,558.213815100491,558.1969278007746,560.1978651005775,None,1,0.6116180401295424,2.612624440342188,increament,0.6,15,standard,None,100,,,,,,,,m,21,228,fr,r,0,raw,2022-07-06_10h44.25.935,oddball,2022.1.2,59.88282151800157,
5,,,,,0,0,0,1,4,0,4,0,28,0,28,0,,,,,,,,,,,,,,,,,560.216176500544,None,560.7975147999823,561.3978321002796,561.3818067004904,563.3820464005694,None,1,0.6140785394236445,2.6142868399620056,increament,0.6,15,standard,None,100,,,,,,,,m,21,228,fr,r,0,raw,2022-07-06_10h44.25.935,oddball,2022.1.2,59.88282151800157,
5,,,,,0,0,0,1,4,0,4,0,29,0,29,0,,,,,,,,,,,,,,,,,563.3986423006281,None,563.9487457005307,564.915586899966,564.8826526999474,566.8833754006773,j,1,0.9625519393011928,2.963282539509237,increament,0.96,18,oddball,j,160,0.6580775994807482,,,,,,,m,21,228,fr,r,0,raw,2022-07-06_10h44.25.935,oddball,2022.1.2,59.88282151800157,
5,,,,,0,0,0,1,5,0,5,0,0,0,0,0,,,,,,,,,,,,,,,570.0766286002472,None,572.1352136004716,None,572.7188287004828,573.3193460004404,573.3024840001017,575.3032264001667,None,1,0.6118777394294739,2.612580140121281,decreament,0.6,11,standard,None,100,,566.9002261003479,None,,,,,m,21,228,fr,r,0,raw,2022-07-06_10h44.25.935,oddball,2022.1.2,59.88282151800157,
5,,,,,0,0,0,1,5,0,5,0,1,0,1,0,,,,,,,,,,,,,,,,,575.3199128005654,None,575.8702180003747,576.4702077005059,576.4534948999062,578.4542826004326,None,1,0.6119347400963306,2.612720139324665,decreament,0.6,11,standard,None,100,,,,,,,,m,21,228,fr,r,0,raw,2022-07-06_10h44.25.935,oddball,2022.1.2,59.88282151800157,
5,,,,,0,0,0,1,5,0,5,0,2,0,2,0,,,,,,,,,,,,,,,,,578.4708804003894,None,579.0545776002109,579.6547225005925,579.6381820002571,581.638661400415,None,1,0.6079820394515991,2.6083810394629836,decreament,0.6,11,standard,None,100,,,,,,,,m,21,228,fr,r,0,raw,2022-07-06_10h44.25.935,oddball,2022.1.2,59.88282151800157,
5,,,,,0,0,0,1,5,0,5,0,3,0,3,0,,,,,,,,,,,,,,,,,581.6554144006222,None,582.3061816999689,582.9061179002747,582.8893996002153,584.8898924002424,None,1,0.607891540043056,2.608338139951229,decreament,0.6,11,standard,None,100,,,,,,,,m,21,228,fr,r,0,raw,2022-07-06_10h44.25.935,oddball,2022.1.2,59.88282151800157,
5,,,,,0,0,0,1,5,0,5,0,4,0,4,0,,,,,,,,,,,,,,,,,584.9068074999377,None,585.6401075003669,586.2404388003051,586.2239920999855,588.2246061004698,None,1,0.6145454393699765,2.6151808397844434,decreament,0.6,11,standard,None,100,,,,,,,,m,21,228,fr,r,0,raw,2022-07-06_10h44.25.935,oddball,2022.1.2,59.88282151800157,
5,,,,,0,0,0,1,5,0,5,0,5,0,5,0,,,,,,,,,,,,,,,,,588.2413378003985,None,589.0417033005506,589.6419728007168,589.6252367999405,591.6259895004332,None,1,0.6131475400179625,2.6138997403904796,decreament,0.6,11,standard,None,100,,,,,,,,m,21,228,fr,r,0,raw,2022-07-06_10h44.25.935,oddball,2022.1.2,59.88282151800157,
5,,,,,0,0,0,1,5,0,5,0,6,0,6,0,,,,,,,,,,,,,,,,,591.6426528999582,None,592.2766249999404,592.8766179000959,592.8598207002506,594.8608707999811,None,1,0.6114145396277308,2.6124924402683973,decreament,0.6,11,standard,None,100,,,,,,,,m,21,228,fr,r,0,raw,2022-07-06_10h44.25.935,oddball,2022.1.2,59.88282151800157,
5,,,,,0,0,0,1,5,0,5,0,7,0,7,0,,,,,,,,,,,,,,,,,594.8772603999823,None,595.7443267004564,596.110798000358,596.0780613999814,598.0783104002476,j,1,0.36271884106099606,2.3628843408077955,decreament,0.36,13,oddball,j,60,0.8300417000427842,,,,,,,m,21,228,fr,r,0,raw,2022-07-06_10h44.25.935,oddball,2022.1.2,59.88282151800157,
5,,,,,0,0,0,1,5,0,5,0,8,0,8,0,,,,,,,,,,,,,,,,,598.0953758005053,None,598.7119305003434,599.3122578002512,599.2956131007522,601.2962449006736,None,1,0.6139323394745588,2.61456813942641,decreament,0.6,11,standard,None,100,,,,,,,,m,21,228,fr,r,0,raw,2022-07-06_10h44.25.935,oddball,2022.1.2,59.88282151800157,
5,,,,,0,0,0,1,5,0,5,0,9,0,9,0,,,,,,,,,,,,,,,,,601.3130812002346,None,602.046881900169,602.6472719004378,602.6306214006618,604.6310442006215,None,1,0.6099200407043099,2.6102353408932686,decreament,0.6,11,standard,None,100,,,,,,,,m,21,228,fr,r,0,raw,2022-07-06_10h44.25.935,oddball,2022.1.2,59.88282151800157,
5,,,,,0,0,0,1,5,0,5,0,10,0,10,0,,,,,,,,,,,,,,,,,604.647604400292,None,605.3144594002515,605.9148822007701,605.89858570043,607.8990645008162,None,1,0.6135384403169155,2.613953740336001,decreament,0.6,11,standard,None,100,,,,,,,,m,21,228,fr,r,0,raw,2022-07-06_10h44.25.935,oddball,2022.1.2,59.88282151800157,
5,,,,,0,0,0,1,5,0,5,0,11,0,11,0,,,,,,,,,,,,,,,,,607.9154804004356,None,608.5993547001854,609.1996331000701,609.1827023001388,611.1835472006351,None,1,0.6125549403950572,2.613392540253699,decreament,0.6,11,standard,None,100,,,,,,,,m,21,228,fr,r,0,raw,2022-07-06_10h44.25.935,oddball,2022.1.2,59.88282151800157,
5,,,,,0,0,0,1,5,0,5,0,12,0,12,0,,,,,,,,,,,,,,,,,611.2002976005897,None,611.7504062000662,612.3505926001817,612.3342826003209,614.3349339999259,None,1,0.6132924407720566,2.6139096403494477,decreament,0.6,11,standard,None,100,,,,,,,,m,21,228,fr,r,0,raw,2022-07-06_10h44.25.935,oddball,2022.1.2,59.88282151800157,
5,,,,,0,0,0,1,5,0,5,0,13,0,13,0,,,,,,,,,,,,,,,,,614.3519000001252,None,615.0682186000049,615.6684073004872,615.6517257001251,617.6524163000286,None,1,0.6122148400172591,2.6128648407757282,decreament,0.6,11,standard,None,100,,,,,,,,m,21,228,fr,r,0,raw,2022-07-06_10h44.25.935,oddball,2022.1.2,59.88282151800157,
5,,,,,0,0,0,1,5,0,5,0,14,0,14,0,,,,,,,,,,,,,,,,,617.6690712003037,None,618.2858841000125,618.8866448001936,618.8698075003922,620.8708519004285,None,1,0.612841340713203,2.6139184404164553,decreament,0.6,11,standard,None,100,,,,,,,,m,21,228,fr,r,0,raw,2022-07-06_10h44.25.935,oddball,2022.1.2,59.88282151800157,
5,,,,,0,0,0,1,5,0,5,0,15,0,15,0,,,,,,,,,,,,,,,,,620.8877809001133,None,621.5039273006842,622.1044888999313,622.0877563003451,624.0883029000834,j,0,0.6138694398105145,2.6143663404509425,decreament,0.6,11,standard,None,100,1.00430510006845,,,,,,,m,21,228,fr,r,0,raw,2022-07-06_10h44.25.935,oddball,2022.1.2,59.88282151800157,
5,,,,,0,0,0,1,5,0,5,0,16,0,16,0,,,,,,,,,,,,,,,,,624.1048822002485,None,624.6884521003813,625.2887690002099,625.2727252999321,627.27297190018,None,1,0.6130458395928144,2.6132354391738772,decreament,0.6,11,standard,None,100,,,,,,,,m,21,228,fr,r,0,raw,2022-07-06_10h44.25.935,oddball,2022.1.2,59.88282151800157,
5,,,,,0,0,0,1,5,0,5,0,17,0,17,0,,,,,,,,,,,,,,,,,627.2894986001775,None,627.8897663000971,628.1402767999098,628.106664000079,630.1075857002288,j,1,0.2462639408186078,2.2471674410626292,decreament,0.24,12,oddball,j,40,0.7455014996230602,,,,,,,m,21,228,fr,r,0,raw,2022-07-06_10h44.25.935,oddball,2022.1.2,59.88282151800157,
5,,,,,0,0,0,1,5,0,5,0,18,0,18,0,,,,,,,,,,,,,,,,,630.1240117000416,None,630.6908015999943,631.2912691999227,631.27451390028,633.2753197001293,None,1,0.6126378402113914,2.6133295400068164,decreament,0.6,11,standard,None,100,,,,,,,,m,21,228,fr,r,0,raw,2022-07-06_10h44.25.935,oddball,2022.1.2,59.88282151800157,
5,,,,,0,0,0,1,5,0,5,0,19,0,19,0,,,,,,,,,,,,,,,,,633.2917315000668,None,633.9756472008303,634.5755198001862,634.5588315008208,636.5594498002902,None,1,0.6093230405822396,2.609941940754652,decreament,0.6,11,standard,None,100,,,,,,,,m,21,228,fr,r,0,raw,2022-07-06_10h44.25.935,oddball,2022.1.2,59.88282151800157,
5,,,,,0,0,0,1,5,0,5,0,20,0,20,0,,,,,,,,,,,,,,,,,636.5764260999858,None,637.160155300051,637.7602455001324,637.7435598000884,639.7438457999378,None,1,0.6101738400757313,2.6103858398273587,decreament,0.6,11,standard,None,100,,,,,,,,m,21,228,fr,r,0,raw,2022-07-06_10h44.25.935,oddball,2022.1.2,59.88282151800157,
5,,,,,0,0,0,1,5,0,5,0,21,0,21,0,,,,,,,,,,,,,,,,,639.760507600382,None,640.3777652001008,640.9778069006279,640.9614955000579,642.9621208002791,None,1,0.6127203404903412,2.6133585404604673,decreament,0.6,11,standard,None,100,,,,,,,,m,21,228,fr,r,0,raw,2022-07-06_10h44.25.935,oddball,2022.1.2,59.88282151800157,
5,,,,,0,0,0,1,5,0,5,0,22,0,22,0,,,,,,,,,,,,,,,,,642.979017900303,None,643.612254800275,644.2124145003036,644.1960123004392,646.1963792005554,None,1,0.6127423411235213,2.613065641373396,decreament,0.6,11,standard,None,100,,,,,,,,m,21,228,fr,r,0,raw,2022-07-06_10h44.25.935,oddball,2022.1.2,59.88282151800157,
5,,,,,0,0,0,1,5,0,5,0,23,0,23,0,,,,,,,,,,,,,,,,,646.2134115006775,None,646.9136163005605,647.5137080000713,647.4972242005169,649.4984068004414,None,1,0.6116959406062961,2.612931640818715,decreament,0.6,11,standard,None,100,,,,,,,,m,21,228,fr,r,0,raw,2022-07-06_10h44.25.935,oddball,2022.1.2,59.88282151800157,
5,,,,,0,0,0,1,5,0,5,0,24,0,24,0,,,,,,,,,,,,,,,,,649.5143752004951,None,650.2814183002338,650.7651361003518,650.732002099976,652.732310000807,j,1,0.4791149413213134,2.4793432410806417,decreament,0.48,14,oddball,j,80,0.6083726994693279,,,,,,,m,21,228,fr,r,0,raw,2022-07-06_10h44.25.935,oddball,2022.1.2,59.88282151800157,
5,,,,,0,0,0,1,5,0,5,0,25,0,25,0,,,,,,,,,,,,,,,,,652.749246400781,None,653.5328213004395,654.133055000566,654.1167123001069,656.1171103008091,None,1,0.6125543406233191,2.612897740676999,decreament,0.6,11,standard,None,100,,,,,,,,m,21,228,fr,r,0,raw,2022-07-06_10h44.25.935,oddball,2022.1.2,59.88282151800157,
5,,,,,0,0,0,1,5,0,5,0,26,0,26,0,,,,,,,,,,,,,,,,,656.1339683001861,None,656.8674372006208,657.4677868001163,657.451234200038,659.4515534006059,None,1,0.6132946405559778,2.613560240715742,decreament,0.6,11,standard,None,100,,,,,,,,m,21,228,fr,r,0,raw,2022-07-06_10h44.25.935,oddball,2022.1.2,59.88282151800157,
5,,,,,0,0,0,1,5,0,5,0,27,0,27,0,,,,,,,,,,,,,,,,,659.4683330999687,None,660.2186444001272,660.8191891005263,660.8025146005675,662.8029684005305,None,1,0.6129849404096603,2.6134291402995586,decreament,0.6,11,standard,None,100,,,,,,,,m,21,228,fr,r,0,raw,2022-07-06_10h44.25.935,oddball,2022.1.2,59.88282151800157,
5,,,,,0,0,0,1,5,0,5,0,28,0,28,0,,,,,,,,,,,,,,,,,662.8198374006897,None,663.5201627006754,664.1201253999025,664.1039075003937,666.1040900005028,None,1,0.6086545400321484,2.608698439784348,decreament,0.6,11,standard,None,100,,,,,,,,m,21,228,fr,r,0,raw,2022-07-06_10h44.25.935,oddball,2022.1.2,59.88282151800157,
5,,,,,0,0,0,1,5,0,5,0,29,0,29,0,,,,,,,,,,,,,,,,,666.121010100469,None,666.6377926999703,667.2379401000217,667.221655100584,669.2217387007549,None,1,0.6137675400823355,2.613798139616847,decreament,0.6,11,standard,None,100,,,,,,,,m,21,228,fr,r,0,raw,2022-07-06_10h44.25.935,oddball,2022.1.2,59.88282151800157,
5,,,,,0,0,0,1,6,0,6,0,0,0,0,0,,,,,,,,,,,,,,,675.4690739000216,None,680.3428292004392,None,681.0097626000643,681.610321700573,681.5936293005943,683.5938928006217,None,1,0.6137097403407097,2.6139153400436044,increament,0.6,15,standard,None,100,,669.2386445999146,None,,,,,m,21,228,fr,r,0,raw,2022-07-06_10h44.25.935,oddball,2022.1.2,59.88282151800157,
5,,,,,0,0,0,1,6,0,6,0,1,0,1,0,,,,,,,,,,,,,,,,,683.6107892999426,None,684.3445351999253,684.9446750003844,684.9281688006595,686.9286327008158,None,1,0.6121940398588777,2.612638640217483,increament,0.6,15,standard,None,100,,,,,,,,m,21,228,fr,r,0,raw,2022-07-06_10h44.25.935,oddball,2022.1.2,59.88282151800157,
5,,,,,0,0,0,1,6,0,6,0,2,0,2,0,,,,,,,,,,,,,,,,,686.9454206004739,None,687.5290534002706,688.1292162006721,688.1127222003415,690.113753600046,None,1,0.6136209405958652,2.6147292405366898,increament,0.6,15,standard,None,100,,,,,,,,m,21,228,fr,r,0,raw,2022-07-06_10h44.25.935,oddball,2022.1.2,59.88282151800157,
5,,,,,0,0,0,1,6,0,6,0,3,0,3,0,,,,,,,,,,,,,,,,,690.1302482001483,None,690.7303708000109,691.3307219007984,691.3137389002368,693.3146649999544,None,1,0.6112513402476907,2.6122104404494166,increament,0.6,15,standard,None,100,,,,,,,,m,21,228,fr,r,0,raw,2022-07-06_10h44.25.935,oddball,2022.1.2,59.88282151800157,
5,,,,,0,0,0,1,6,0,6,0,4,0,4,0,,,,,,,,,,,,,,,,,693.3311806004494,None,693.9815383004025,694.5817740000784,694.5653317999095,696.5664274999872,None,1,0.6123535400256515,2.6134846406057477,increament,0.6,15,standard,None,100,,,,,,,,m,21,228,fr,r,0,raw,2022-07-06_10h44.25.935,oddball,2022.1.2,59.88282151800157,
5,,,,,0,0,0,1,6,0,6,0,5,0,5,0,,,,,,,,,,,,,,,,,696.58224910032,None,697.2663280004635,697.8662983002141,697.8497032001615,699.8503523999825,None,1,0.6100730402395129,2.610674539580941,increament,0.6,15,standard,None,100,,,,,,,,m,21,228,fr,r,0,raw,2022-07-06_10h44.25.935,oddball,2022.1.2,59.88282151800157,
5,,,,,0,0,0,1,6,0,6,0,6,0,6,0,,,,,,,,,,,,,,,,,699.8673147000372,None,700.5170811004937,701.1180296000093,701.1010760003701,703.1015915004537,None,1,0.6139040403068066,2.6143844397738576,increament,0.6,15,standard,None,100,,,,,,,,m,21,228,fr,r,0,raw,2022-07-06_10h44.25.935,oddball,2022.1.2,59.88282151800157,
5,,,,,0,0,0,1,6,0,6,0,7,0,7,0,,,,,,,,,,,,,,,,,703.1183352004737,None,703.7183151002973,704.3187500005588,704.3022062005475,706.3023741999641,None,1,0.6147221401333809,2.6147537399083376,increament,0.6,15,standard,None,100,,,,,,,,m,21,228,fr,r,0,raw,2022-07-06_10h44.25.935,oddball,2022.1.2,59.88282151800157,
5,,,,,0,0,0,1,6,0,6,0,8,0,8,0,,,,,,,,,,,,,,,,,706.3190594008192,None,706.903017600067,707.5030312007293,707.4866285007447,709.4873483004048,None,1,0.6122886398807168,2.6130279395729303,increament,0.6,15,standard,None,100,,,,,,,,m,21,228,fr,r,0,raw,2022-07-06_10h44.25.935,oddball,2022.1.2,59.88282151800157,
5,,,,,0,0,0,1,6,0,6,0,9,0,9,0,,,,,,,,,,,,,,,,,709.5038684001192,None,710.0706274006516,710.6709430003539,710.6544676003978,712.6553770005703,None,1,0.6121407402679324,2.6131380405277014,increament,0.6,15,standard,None,100,,,,,,,,m,21,228,fr,r,0,raw,2022-07-06_10h44.25.935,oddball,2022.1.2,59.88282151800157,
5,,,,,0,0,0,1,6,0,6,0,10,0,10,0,,,,,,,,,,,,,,,,,712.6726761003956,None,713.2388682002202,713.8389679007232,713.8223786000162,715.8229465000331,None,1,0.6123351398855448,2.6129011400043964,increament,0.6,15,standard,None,100,,,,,,,,m,21,228,fr,r,0,raw,2022-07-06_10h44.25.935,oddball,2022.1.2,59.88282151800157,
5,,,,,0,0,0,1,6,0,6,0,11,0,11,0,,,,,,,,,,,,,,,,,715.8396749999374,None,716.5566394999623,717.1566298007965,717.1404194002971,719.1409631008282,None,1,0.6097923396155238,2.6101733399555087,increament,0.6,15,standard,None,100,,,,,,,,m,21,228,fr,r,0,raw,2022-07-06_10h44.25.935,oddball,2022.1.2,59.88282151800157,
5,,,,,0,0,0,1,6,0,6,0,12,0,12,0,,,,,,,,,,,,,,,,,719.1578347999603,None,719.8249203003943,720.4247120004147,720.4085111003369,722.4092860007659,None,1,0.6097123408690095,2.610455040819943,increament,0.6,15,standard,None,100,,,,,,,,m,21,228,fr,r,0,raw,2022-07-06_10h44.25.935,oddball,2022.1.2,59.88282151800157,
5,,,,,0,0,0,1,6,0,6,0,13,0,13,0,,,,,,,,,,,,,,,,,722.4265181999654,None,722.9423408005387,723.6763399001211,723.6427757004276,725.6436939006671,None,0,0.7267361395061016,2.7276789397001266,increament,0.72,16,oddball,j,120,,,,,,,,m,21,228,fr,r,0,raw,2022-07-06_10h44.25.935,oddball,2022.1.2,59.88282151800157,
5,,,,,0,0,0,1,6,0,6,0,14,0,14,0,,,,,,,,,,,,,,,,,725.660636600107,None,726.3270788006485,726.9272306002676,726.9104155004025,728.9112339001149,None,1,0.6079230401664972,2.6087651401758194,increament,0.6,15,standard,None,100,,,,,,,,m,21,228,fr,r,0,raw,2022-07-06_10h44.25.935,oddball,2022.1.2,59.88282151800157,
5,,,,,0,0,0,1,6,0,6,0,15,0,15,0,,,,,,,,,,,,,,,,,728.9281486002728,None,729.5112949004397,730.1119373003021,730.0951167000458,732.0960156004876,None,1,0.6142138410359621,2.615141141228378,increament,0.6,15,standard,None,100,,,,,,,,m,21,228,fr,r,0,raw,2022-07-06_10h44.25.935,oddball,2022.1.2,59.88282151800157,
5,,,,,0,0,0,1,6,0,6,0,16,0,16,0,,,,,,,,,,,,,,,,,732.1128831002861,None,732.7962055001408,733.3964452007785,733.3799656005576,735.380269500427,None,1,0.6114348396658897,2.611723840236664,increament,0.6,15,standard,None,100,,,,,,,,m,21,228,fr,r,0,raw,2022-07-06_10h44.25.935,oddball,2022.1.2,59.88282151800157,
5,,,,,0,0,0,1,6,0,6,0,17,0,17,0,,,,,,,,,,,,,,,,,735.3971184007823,None,736.0307881999761,736.6306090001017,736.6142612006515,738.6151670999825,None,1,0.6108810398727655,2.611876039765775,increament,0.6,15,standard,None,100,,,,,,,,m,21,228,fr,r,0,raw,2022-07-06_10h44.25.935,oddball,2022.1.2,59.88282151800157,
5,,,,,0,0,0,1,6,0,6,0,18,0,18,0,,,,,,,,,,,,,,,,,738.6329037006944,None,739.1484949002042,739.7488847002387,739.73218630068,741.7331295004115,None,1,0.613300540484488,2.6143115404993296,increament,0.6,15,standard,None,100,,,,,,,,m,21,228,fr,r,0,raw,2022-07-06_10h44.25.935,oddball,2022.1.2,59.88282151800157,
5,,,,,0,0,0,1,6,0,6,0,19,0,19,0,,,,,,,,,,,,,,,,,741.7493783999234,None,742.3171102004126,742.9168167002499,742.8999602999538,744.9007994001731,None,1,0.6106368405744433,2.6114554405212402,increament,0.6,15,standard,None,100,,,,,,,,m,21,228,fr,r,0,raw,2022-07-06_10h44.25.935,oddball,2022.1.2,59.88282151800157,
5,,,,,0,0,0,1,6,0,6,0,20,0,20,0,,,,,,,,,,,,,,,,,744.9174362001941,None,745.5345632005483,746.1344918999821,746.118015400134,748.1185656003654,None,1,0.6115273404866457,2.6121170399710536,increament,0.6,15,standard,None,100,,,,,,,,m,21,228,fr,r,0,raw,2022-07-06_10h44.25.935,oddball,2022.1.2,59.88282151800157,
5,,,,,0,0,0,1,6,0,6,0,21,0,21,0,,,,,,,,,,,,,,,,,748.1353587005287,None,748.8692336007953,749.4691461008042,749.4523776005954,751.4531347006559,None,1,0.6118465401232243,2.6126383394002914,increament,0.6,15,standard,None,100,,,,,,,,m,21,228,fr,r,0,raw,2022-07-06_10h44.25.935,oddball,2022.1.2,59.88282151800157,
5,,,,,0,0,0,1,6,0,6,0,22,0,22,0,,,,,,,,,,,,,,,,,751.470012800768,None,752.0702568003908,752.6703520007432,752.6537289004773,754.6544596999884,None,1,0.6113672396168113,2.612097639590502,increament,0.6,15,standard,None,100,,,,,,,,m,21,228,fr,r,0,raw,2022-07-06_10h44.25.935,oddball,2022.1.2,59.88282151800157,
5,,,,,0,0,0,1,6,0,6,0,23,0,23,0,,,,,,,,,,,,,,,,,754.6710568005219,None,755.1884344005957,756.0382357006893,756.005056200549,758.0056646000594,None,0,0.8437630394473672,2.8443305399268866,increament,0.84,17,oddball,j,140,,,,,,,,m,21,228,fr,r,0,raw,2022-07-06_10h44.25.935,oddball,2022.1.2,59.88282151800157,
5,,,,,0,0,0,1,6,0,6,0,24,0,24,0,,,,,,,,,,,,,,,,,758.0223649004474,None,758.6896007005125,759.2899033008143,759.2730825003237,761.2734245005995,None,1,0.6123336395248771,2.6126115396618843,increament,0.6,15,standard,None,100,,,,,,,,m,21,228,fr,r,0,raw,2022-07-06_10h44.25.935,oddball,2022.1.2,59.88282151800157,
5,,,,,0,0,0,1,6,0,6,0,25,0,25,0,,,,,,,,,,,,,,,,,761.2904199007899,None,761.8903362005949,762.4904670007527,762.4743365002796,764.4748336002231,None,1,0.6143203405663371,2.6147595401853323,increament,0.6,15,standard,None,100,,,,,,,,m,21,228,fr,r,0,raw,2022-07-06_10h44.25.935,oddball,2022.1.2,59.88282151800157,
5,,,,,0,0,0,1,6,0,6,0,26,0,26,0,,,,,,,,,,,,,,,,,764.4913451001048,None,765.1918788999319,765.7922087004408,765.7755309008062,767.7759338999167,None,1,0.6109856404364109,2.6113520404323936,increament,0.6,15,standard,None,100,,,,,,,,m,21,228,fr,r,0,raw,2022-07-06_10h44.25.935,oddball,2022.1.2,59.88282151800157,
5,,,,,0,0,0,1,6,0,6,0,27,0,27,0,,,,,,,,,,,,,,,,,767.7930540004745,None,768.4266932001337,769.0265102004632,769.0096930004656,771.010350400582,None,1,0.6110757403075695,2.611729440279305,increament,0.6,15,standard,None,100,,,,,,,,m,21,228,fr,r,0,raw,2022-07-06_10h44.25.935,oddball,2022.1.2,59.88282151800157,
5,,,,,0,0,0,1,6,0,6,0,28,0,28,0,,,,,,,,,,,,,,,,,771.027276000008,None,771.7779262000695,772.7444959999993,772.7112945001572,774.7122857999057,j,1,0.9617144409567118,2.9627821408212185,increament,0.96,18,oddball,j,160,0.508126899600029,,,,,,,m,21,228,fr,r,0,raw,2022-07-06_10h44.25.935,oddball,2022.1.2,59.88282151800157,
5,,,,,0,0,0,1,6,0,6,0,29,0,29,0,,,,,,,,,,,,,,,,,774.729052300565,None,775.6961440006271,776.295830800198,776.279774799943,778.2803442999721,None,1,0.6108125410974026,2.6113555412739515,increament,0.6,15,standard,None,100,,,,,,,,m,21,228,fr,r,0,raw,2022-07-06_10h44.25.935,oddball,2022.1.2,59.88282151800157,
5,,,,,0,0,0,1,7,0,7,0,0,0,0,0,,,,,,,,,,,,,,,787.6907712006941,None,794.8361758003011,None,795.6701254006475,796.2700263001025,796.2536424007267,798.2542914999649,None,1,0.6118563404306769,2.612505840137601,decreament,0.6,11,standard,None,100,,778.2983751008287,None,,,,,m,21,228,fr,r,0,raw,2022-07-06_10h44.25.935,oddball,2022.1.2,59.88282151800157,
5,,,,,0,0,0,1,7,0,7,0,1,0,1,0,,,,,,,,,,,,,,,,,798.2709437999874,None,798.8044392000884,799.4046360002831,799.3881708001718,801.3893241006881,None,1,0.6128628393635154,2.6141037391498685,decreament,0.6,11,standard,None,100,,,,,,,,m,21,228,fr,r,0,raw,2022-07-06_10h44.25.935,oddball,2022.1.2,59.88282151800157,
5,,,,,0,0,0,1,7,0,7,0,2,0,2,0,,,,,,,,,,,,,,,,,801.4059883002192,None,801.9557787002996,802.5562328007072,802.5394480004907,804.5403820006177,None,1,0.6129518402740359,2.613911840133369,decreament,0.6,11,standard,None,100,,,,,,,,m,21,228,fr,r,0,raw,2022-07-06_10h44.25.935,oddball,2022.1.2,59.88282151800157,
5,,,,,0,0,0,1,7,0,7,0,3,0,3,0,,,,,,,,,,,,,,,,,804.5569102000445,None,805.0736223999411,805.6737260008231,805.6570814000443,807.657721100375,None,1,0.6128095397725701,2.6134542394429445,decreament,0.6,11,standard,None,100,,,,,,,,m,21,228,fr,r,0,raw,2022-07-06_10h44.25.935,oddball,2022.1.2,59.88282151800157,
5,,,,,0,0,0,1,7,0,7,0,4,0,4,0,,,,,,,,,,,,,,,,,807.6746420999989,None,808.3248400008306,808.924829300493,808.9086075006053,810.909172100015,None,1,0.6127775395289063,2.613277640193701,decreament,0.6,11,standard,None,100,,,,,,,,m,21,228,fr,r,0,raw,2022-07-06_10h44.25.935,oddball,2022.1.2,59.88282151800157,
5,,,,,0,0,0,1,7,0,7,0,5,0,5,0,,,,,,,,,,,,,,,,,810.9257579008117,None,811.4926726007834,812.0929638007656,812.0762967001647,814.0771943004802,None,1,0.6125165401026607,2.6134789399802685,decreament,0.6,11,standard,None,100,,,,,,,,m,21,228,fr,r,0,raw,2022-07-06_10h44.25.935,oddball,2022.1.2,59.88282151800157,
5,,,,,0,0,0,1,7,0,7,0,6,0,6,0,,,,,,,,,,,,,,,,,814.0938111003488,None,814.7104282006621,815.3109306003898,815.2942165005952,817.2947326004505,None,1,0.6139828404411674,2.6144653409719467,decreament,0.6,11,standard,None,100,,,,,,,,m,21,228,fr,r,0,raw,2022-07-06_10h44.25.935,oddball,2022.1.2,59.88282151800157,
5,,,,,0,0,0,1,7,0,7,0,7,0,7,0,,,,,,,,,,,,,,,,,817.3114134008065,None,818.0784951001406,818.6782599007711,818.6620613001287,820.6626927005127,None,1,0.6107299402356148,2.6113463398069143,decreament,0.6,11,standard,None,100,,,,,,,,m,21,228,fr,r,0,raw,2022-07-06_10h44.25.935,oddball,2022.1.2,59.88282151800157,
5,,,,,0,0,0,1,7,0,7,0,8,0,8,0,,,,,,,,,,,,,,,,,820.6794928004965,None,821.3799348007888,821.8632338000461,821.8464214000851,823.8473375001922,j,1,0.4911860404536128,2.4921447411179543,decreament,0.48,14,oddball,j,80,0.5574295995756984,,,,,,,m,21,228,fr,r,0,raw,2022-07-06_10h44.25.935,oddball,2022.1.2,59.88282151800157,
5,,,,,0,0,0,1,7,0,7,0,9,0,9,0,,,,,,,,,,,,,,,,,823.8642500005662,None,824.5976899005473,825.1977152004838,825.1812232006341,827.181754000485,None,1,0.6129522398114204,2.613441739231348,decreament,0.6,11,standard,None,100,,,,,,,,m,21,228,fr,r,0,raw,2022-07-06_10h44.25.935,oddball,2022.1.2,59.88282151800157,
5,,,,,0,0,0,1,7,0,7,0,10,0,10,0,,,,,,,,,,,,,,,,,827.1983750006184,None,827.848722900264,828.4489205004647,828.4322446007282,830.4331416003406,None,1,0.613012139685452,2.613958640024066,decreament,0.6,11,standard,None,100,,,,,,,,m,21,228,fr,r,0,raw,2022-07-06_10h44.25.935,oddball,2022.1.2,59.88282151800157,
5,,,,,0,0,0,1,7,0,7,0,11,0,11,0,,,,,,,,,,,,,,,,,830.4498369004577,None,831.1166363004595,831.7166664004326,831.7001685006544,833.7009568000212,None,1,0.6122967405244708,2.6131341410800815,decreament,0.6,11,standard,None,100,,,,,,,,m,21,228,fr,r,0,raw,2022-07-06_10h44.25.935,oddball,2022.1.2,59.88282151800157,
5,,,,,0,0,0,1,7,0,7,0,12,0,12,0,,,,,,,,,,,,,,,,,833.717839400284,None,834.2680027000606,834.8683134000748,834.8517997004092,836.8522628005594,j,0,0.6120594404637814,2.6124870404601097,decreament,0.6,11,standard,None,100,0.9991438994184136,,,,,,,m,21,228,fr,r,0,raw,2022-07-06_10h44.25.935,oddball,2022.1.2,59.88282151800157,
5,,,,,0,0,0,1,7,0,7,0,13,0,13,0,,,,,,,,,,,,,,,,,836.8689636001363,None,837.4859707001597,838.0860095005482,838.0695845000446,840.0700622005388,None,1,0.6116983406245708,2.612121240235865,decreament,0.6,11,standard,None,100,,,,,,,,m,21,228,fr,r,0,raw,2022-07-06_10h44.25.935,oddball,2022.1.2,59.88282151800157,
5,,,,,0,0,0,1,7,0,7,0,14,0,14,0,,,,,,,,,,,,,,,,,840.086777199991,None,840.937313400209,841.5374591005966,841.5206612003967,843.5215114001185,None,1,0.6116212401539087,2.6124727400019765,decreament,0.6,11,standard,None,100,,,,,,,,m,21,228,fr,r,0,raw,2022-07-06_10h44.25.935,oddball,2022.1.2,59.88282151800157,
5,,,,,0,0,0,1,7,0,7,0,15,0,15,0,,,,,,,,,,,,,,,,,843.5380127001554,None,844.2549844002351,844.8552580000833,844.8387188008055,846.8397496007383,None,1,0.6135973399505019,2.6146718403324485,decreament,0.6,11,standard,None,100,,,,,,,,m,21,228,fr,r,0,raw,2022-07-06_10h44.25.935,oddball,2022.1.2,59.88282151800157,
5,,,,,0,0,0,1,7,0,7,0,16,0,16,0,,,,,,,,,,,,,,,,,846.8559958999977,None,847.423337300308,848.0231317002326,848.0065620001405,850.0073519004509,None,1,0.6086668400093913,2.609445440582931,decreament,0.6,11,standard,None,100,,,,,,,,m,21,228,fr,r,0,raw,2022-07-06_10h44.25.935,oddball,2022.1.2,59.88282151800157,
5,,,,,0,0,0,1,7,0,7,0,17,0,17,0,,,,,,,,,,,,,,,,,850.0236114002764,None,850.5409623999149,851.1408357005566,851.1242718007416,853.1249409001321,None,1,0.6094707399606705,2.6101415399461985,decreament,0.6,11,standard,None,100,,,,,,,,m,21,228,fr,r,0,raw,2022-07-06_10h44.25.935,oddball,2022.1.2,59.88282151800157,
5,,,,,0,0,0,1,7,0,7,0,18,0,18,0,,,,,,,,,,,,,,,,,853.1418038001284,None,853.6587781002745,854.0252792006359,854.0089328000322,856.0095340004191,j,1,0.37492924090474844,2.3755837408825755,decreament,0.36,13,oddball,j,60,0.49003299977630377,,,,,,,m,21,228,fr,r,0,raw,2022-07-06_10h44.25.935,oddball,2022.1.2,59.88282151800157,
5,,,,,0,0,0,1,7,0,7,0,19,0,19,0,,,,,,,,,,,,,,,,,856.0261140000075,None,856.8265537004918,857.4266830999404,857.41002040077,859.410734500736,None,1,0.6116701401770115,2.612361140549183,decreament,0.6,11,standard,None,100,,,,,,,,m,21,228,fr,r,0,raw,2022-07-06_10h44.25.935,oddball,2022.1.2,59.88282151800157,
5,,,,,0,0,0,1,7,0,7,0,20,0,20,0,,,,,,,,,,,,,,,,,859.4273426001891,None,860.0443313000724,860.6447501005605,860.6279440000653,862.6285548005253,None,1,0.6136636398732662,2.6142396396026015,decreament,0.6,11,standard,None,100,,,,,,,,m,21,228,fr,r,0,raw,2022-07-06_10h44.25.935,oddball,2022.1.2,59.88282151800157,
5,,,,,0,0,0,1,7,0,7,0,21,0,21,0,,,,,,,,,,,,,,,,,862.6452963007614,None,863.3290466004983,863.9291261006147,863.912340500392,865.9133425001055,None,1,0.609215141274035,2.610244541428983,decreament,0.6,11,standard,None,100,,,,,,,,m,21,228,fr,r,0,raw,2022-07-06_10h44.25.935,oddball,2022.1.2,59.88282151800157,
5,,,,,0,0,0,1,7,0,7,0,22,0,22,0,,,,,,,,,,,,,,,,,865.930227600038,None,866.6471160007641,867.2471098005772,867.2305155005306,869.2316084001213,None,1,0.6118166400119662,2.6129665402695537,decreament,0.6,11,standard,None,100,,,,,,,,m,21,228,fr,r,0,raw,2022-07-06_10h44.25.935,oddball,2022.1.2,59.88282151800157,
5,,,,,0,0,0,1,7,0,7,0,23,0,23,0,,,,,,,,,,,,,,,,,869.2480672001839,None,869.9815791007131,870.5816460000351,870.5649687005207,872.5657624006271,None,1,0.6109373401850462,2.6117567401379347,decreament,0.6,11,standard,None,100,,,,,,,,m,21,228,fr,r,0,raw,2022-07-06_10h44.25.935,oddball,2022.1.2,59.88282151800157,
5,,,,,0,0,0,1,7,0,7,0,24,0,24,0,,,,,,,,,,,,,,,,,872.5824814001098,None,873.2161445003003,873.8162173004821,873.7995703006163,875.800345200114,None,1,0.6112416405230761,2.6119991401210427,decreament,0.6,11,standard,None,100,,,,,,,,m,21,228,fr,r,0,raw,2022-07-06_10h44.25.935,oddball,2022.1.2,59.88282151800157,
5,,,,,0,0,0,1,7,0,7,0,25,0,25,0,,,,,,,,,,,,,,,,,875.8169808005914,None,876.4839690001681,877.083979899995,877.0674709007144,879.0682928003371,None,1,0.6110364403575659,2.611891440115869,decreament,0.6,11,standard,None,100,,,,,,,,m,21,228,fr,r,0,raw,2022-07-06_10h44.25.935,oddball,2022.1.2,59.88282151800157,
5,,,,,0,0,0,1,7,0,7,0,26,0,26,0,,,,,,,,,,,,,,,,,879.0851311003789,None,879.73510070052,880.33508790005,880.318640800193,882.3195283003151,None,1,0.6127533400431275,2.613831240683794,decreament,0.6,11,standard,None,100,,,,,,,,m,21,228,fr,r,0,raw,2022-07-06_10h44.25.935,oddball,2022.1.2,59.88282151800157,
5,,,,,0,0,0,1,7,0,7,0,27,0,27,0,,,,,,,,,,,,,,,,,882.3362725004554,None,882.9364589005709,883.1867889007553,883.1530565004796,885.1538038002327,j,1,0.24572874046862125,2.246490539982915,decreament,0.24,12,oddball,j,40,0.6900963997468352,,,,,,,m,21,228,fr,r,0,raw,2022-07-06_10h44.25.935,oddball,2022.1.2,59.88282151800157,
5,,,,,0,0,0,1,7,0,7,0,28,0,28,0,,,,,,,,,,,,,,,,,885.1705465000123,None,885.8039011005312,886.4042523000389,886.3878308003768,888.3882795004174,None,1,0.6137136407196522,2.614182540215552,decreament,0.6,11,standard,None,100,,,,,,,,m,21,228,fr,r,0,raw,2022-07-06_10h44.25.935,oddball,2022.1.2,59.88282151800157,
5,,,,,0,0,0,1,7,0,7,0,29,0,29,0,,,,,,,,,,,,,,,,,888.4050163002685,None,889.105332300067,889.7055272003636,889.6889964006841,891.689715700224,None,1,0.6133623393252492,2.61407223995775,decreament,0.6,11,standard,None,100,,,,,,,,m,21,228,fr,r,0,raw,2022-07-06_10h44.25.935,oddball,2022.1.2,59.88282151800157,
5,,,,,0,0,0,1,8,0,8,0,0,0,0,0,,,,,,,,,,,,,,,900.7677429001778,None,907.0286052003503,None,907.8793833004311,908.4795749001205,908.4626419004053,910.4633266003802,None,1,0.6111357398331165,2.6117880400270224,increament,0.6,15,standard,None,100,,891.7064736001194,None,,,,,m,21,228,fr,r,0,raw,2022-07-06_10h44.25.935,oddball,2022.1.2,59.88282151800157,
5,,,,,0,0,0,1,8,0,8,0,1,0,1,0,,,,,,,,,,,,,,,,,910.4800828006119,None,911.1970031000674,911.7973914006725,911.7808813005686,913.7813041005284,None,1,0.6127970395609736,2.613164340145886,increament,0.6,15,standard,None,100,,,,,,,,m,21,228,fr,r,0,raw,2022-07-06_10h44.25.935,oddball,2022.1.2,59.88282151800157,
5,,,,,0,0,0,1,8,0,8,0,2,0,2,0,,,,,,,,,,,,,,,,,913.7980793006718,None,914.5148970000446,915.1152293002233,915.0984190003946,917.0993913002312,None,1,0.6129852412268519,2.613957541063428,increament,0.6,15,standard,None,100,,,,,,,,m,21,228,fr,r,0,raw,2022-07-06_10h44.25.935,oddball,2022.1.2,59.88282151800157,
5,,,,,0,0,0,1,8,0,8,0,3,0,3,0,,,,,,,,,,,,,,,,,917.1162680005655,None,917.6494657006115,918.2497303001583,918.2333655003458,920.2340478003025,None,1,0.6128457402810454,2.6135889403522015,increament,0.6,15,standard,None,100,,,,,,,,m,21,228,fr,r,0,raw,2022-07-06_10h44.25.935,oddball,2022.1.2,59.88282151800157,
5,,,,,0,0,0,1,8,0,8,0,4,0,4,0,,,,,,,,,,,,,,,,,920.2519908007234,None,920.950656500645,921.5511078005657,921.5345547003672,923.5348765999079,None,1,0.6116294404491782,2.611889540217817,increament,0.6,15,standard,None,100,,,,,,,,m,21,228,fr,r,0,raw,2022-07-06_10h44.25.935,oddball,2022.1.2,59.88282151800157,
5,,,,,0,0,0,1,8,0,8,0,5,0,5,0,,,,,,,,,,,,,,,,,923.5518947001547,None,924.2691267002374,924.8688203003258,924.8522502006963,926.853533600457,None,1,0.6114840414375067,2.6128283413127065,increament,0.6,15,standard,None,100,,,,,,,,m,21,228,fr,r,0,raw,2022-07-06_10h44.25.935,oddball,2022.1.2,59.88282151800157,
5,,,,,0,0,0,1,8,0,8,0,6,0,6,0,,,,,,,,,,,,,,,,,926.8694869000465,None,927.4864938007668,928.0869841007516,928.0702806999907,930.0708357002586,None,1,0.6132183410227299,2.6138333408162,increament,0.6,15,standard,None,100,,,,,,,,m,21,228,fr,r,0,raw,2022-07-06_10h44.25.935,oddball,2022.1.2,59.88282151800157,
5,,,,,0,0,0,1,8,0,8,0,7,0,7,0,,,,,,,,,,,,,,,,,930.0878174006939,None,930.7044218005612,931.3045169003308,931.2878261003643,933.2889389004558,None,1,0.6130410395562649,2.614178139716387,increament,0.6,15,standard,None,100,,,,,,,,m,21,228,fr,r,0,raw,2022-07-06_10h44.25.935,oddball,2022.1.2,59.88282151800157,
5,,,,,0,0,0,1,8,0,8,0,8,0,8,0,,,,,,,,,,,,,,,,,933.3054984007031,None,934.0059436000884,934.6062803007662,934.5895688999444,936.5902692005038,None,1,0.6096223397180438,2.61031914036721,increament,0.6,15,standard,None,100,,,,,,,,m,21,228,fr,r,0,raw,2022-07-06_10h44.25.935,oddball,2022.1.2,59.88282151800157,
5,,,,,0,0,0,1,8,0,8,0,9,0,9,0,,,,,,,,,,,,,,,,,936.6067765001208,None,937.3236984005198,938.2904417002574,938.2578105004504,940.2576979007572,j,1,0.9632427403703332,2.963021240197122,increament,0.96,18,oddball,j,160,0.5290232002735138,,,,,,,m,21,228,fr,r,0,raw,2022-07-06_10h44.25.935,oddball,2022.1.2,59.88282151800157,
5,,,,,0,0,0,1,8,0,8,0,10,0,10,0,,,,,,,,,,,,,,,,,940.2743372004479,None,940.9083662005141,941.5086746001616,941.4922879999503,943.4929052004591,None,1,0.6130637405440211,2.613655840046704,increament,0.6,15,standard,None,100,,,,,,,,m,21,228,fr,r,0,raw,2022-07-06_10h44.25.935,oddball,2022.1.2,59.88282151800157,
5,,,,,0,0,0,1,8,0,8,0,11,0,11,0,,,,,,,,,,,,,,,,,943.5097724003717,None,944.0432613007724,944.6430731005967,944.6263361005113,946.6271711001173,None,1,0.6090060397982597,2.6098446398973465,increament,0.6,15,standard,None,100,,,,,,,,m,21,228,fr,r,0,raw,2022-07-06_10h44.25.935,oddball,2022.1.2,59.88282151800157,
5,,,,,0,0,0,1,8,0,8,0,12,0,12,0,,,,,,,,,,,,,,,,,946.6439789002761,None,947.2275193007663,947.8272803006694,947.8106509000063,949.8117982000113,None,1,0.6135177398100495,2.614766540005803,increament,0.6,15,standard,None,100,,,,,,,,m,21,228,fr,r,0,raw,2022-07-06_10h44.25.935,oddball,2022.1.2,59.88282151800157,
5,,,,,0,0,0,1,8,0,8,0,13,0,13,0,,,,,,,,,,,,,,,,,949.8284576004371,None,950.5785127002746,951.1789424000308,951.1622285004705,953.1632771007717,None,1,0.6134035401046276,2.614457040093839,increament,0.6,15,standard,None,100,,,,,,,,m,21,228,fr,r,0,raw,2022-07-06_10h44.25.935,oddball,2022.1.2,59.88282151800157,
5,,,,,0,0,0,1,8,0,8,0,14,0,14,0,,,,,,,,,,,,,,,,,953.17944870051,None,953.8463322008029,954.4465848002583,954.4302256004885,956.4306576000527,None,1,0.6144228400662541,2.6148571399971843,increament,0.6,15,standard,None,100,,,,,,,,m,21,228,fr,r,0,raw,2022-07-06_10h44.25.935,oddball,2022.1.2,59.88282151800157,
5,,,,,0,0,0,1,8,0,8,0,15,0,15,0,,,,,,,,,,,,,,,,,956.4477562000975,None,957.1482535004616,957.7481526006013,957.7315597003326,959.7320234999061,None,1,0.6097327405586839,2.6102010402828455,increament,0.6,15,standard,None,100,,,,,,,,m,21,228,fr,r,0,raw,2022-07-06_10h44.25.935,oddball,2022.1.2,59.88282151800157,
5,,,,,0,0,0,1,8,0,8,0,16,0,16,0,,,,,,,,,,,,,,,,,959.7486091004685,None,960.3826247006655,960.9825021000579,960.9658269006759,962.9667345006019,None,1,0.6100158402696252,2.6109735406935215,increament,0.6,15,standard,None,100,,,,,,,,m,21,228,fr,r,0,raw,2022-07-06_10h44.25.935,oddball,2022.1.2,59.88282151800157,
5,,,,,0,0,0,1,8,0,8,0,17,0,17,0,,,,,,,,,,,,,,,,,962.9835903001949,None,963.667089600116,964.2673581000417,964.2504283003509,966.2518303999677,None,1,0.6120489398017526,2.613556739874184,increament,0.6,15,standard,None,100,,,,,,,,m,21,228,fr,r,0,raw,2022-07-06_10h44.25.935,oddball,2022.1.2,59.88282151800157,
5,,,,,0,0,0,1,8,0,8,0,18,0,18,0,,,,,,,,,,,,,,,,,966.2681712005287,None,966.8348318999633,967.4351180000231,967.4185023000464,969.4193329000846,None,1,0.6130501395091414,2.6139372400939465,increament,0.6,15,standard,None,100,,,,,,,,m,21,228,fr,r,0,raw,2022-07-06_10h44.25.935,oddball,2022.1.2,59.88282151800157,
5,,,,,0,0,0,1,8,0,8,0,19,0,19,0,,,,,,,,,,,,,,,,,969.4362498000264,None,970.0861027007923,970.6861861003563,970.669304500334,972.6703914003447,None,1,0.6117809396237135,2.612890539690852,increament,0.6,15,standard,None,100,,,,,,,,m,21,228,fr,r,0,raw,2022-07-06_10h44.25.935,oddball,2022.1.2,59.88282151800157,
5,,,,,0,0,0,1,8,0,8,0,20,0,20,0,,,,,,,,,,,,,,,,,972.6870226999745,None,973.2373721003532,973.8380687003955,973.8213141001761,975.8216441003606,None,1,0.6112058395519853,2.6114562395960093,increament,0.6,15,standard,None,100,,,,,,,,m,21,228,fr,r,0,raw,2022-07-06_10h44.25.935,oddball,2022.1.2,59.88282151800157,
5,,,,,0,0,0,1,8,0,8,0,21,0,21,0,,,,,,,,,,,,,,,,,975.8381511000916,None,976.4386846004054,977.0393213005736,977.0222187004983,979.0231891004369,None,1,0.6083118403330445,2.6092863399535418,increament,0.6,15,standard,None,100,,,,,,,,m,21,228,fr,r,0,raw,2022-07-06_10h44.25.935,oddball,2022.1.2,59.88282151800157,
5,,,,,0,0,0,1,8,0,8,0,22,0,22,0,,,,,,,,,,,,,,,,,979.0404497003183,None,979.8064781008288,980.406666200608,980.3901960002258,982.3905861005187,None,1,0.6129285395145416,2.6132605392485857,increament,0.6,15,standard,None,100,,,,,,,,m,21,228,fr,r,0,raw,2022-07-06_10h44.25.935,oddball,2022.1.2,59.88282151800157,
5,,,,,0,0,0,1,8,0,8,0,23,0,23,0,,,,,,,,,,,,,,,,,982.4074639007449,None,982.9909238005057,983.8414271008223,983.8078582007438,985.80849720072,None,0,0.8458984401077032,2.8465044405311346,increament,0.84,17,oddball,j,140,,,,,,,,m,21,228,fr,r,0,raw,2022-07-06_10h44.25.935,oddball,2022.1.2,59.88282151800157,
5,,,,,0,0,0,1,8,0,8,0,24,0,24,0,,,,,,,,,,,,,,,,,985.8252611001953,None,986.4760473007336,987.0760318003595,987.0592750003561,989.0599772008136,None,1,0.6122505394741893,2.612914839759469,increament,0.6,15,standard,None,100,,,,,,,,m,21,228,fr,r,0,raw,2022-07-06_10h44.25.935,oddball,2022.1.2,59.88282151800157,
5,,,,,0,0,0,1,8,0,8,0,25,0,25,0,,,,,,,,,,,,,,,,,989.0765621000901,None,989.7104323999956,990.3104753000662,990.2941602002829,992.2945993002504,None,1,0.6113261394202709,2.6117307394742966,increament,0.6,15,standard,None,100,,,,,,,,m,21,228,fr,r,0,raw,2022-07-06_10h44.25.935,oddball,2022.1.2,59.88282151800157,
5,,,,,0,0,0,1,8,0,8,0,26,0,26,0,,,,,,,,,,,,,,,,,992.3112038001418,None,993.0446054004133,993.6451063007116,993.6283121006563,995.628895400092,None,1,0.6139268418774009,2.61451484169811,increament,0.6,15,standard,None,100,,,,,,,,m,21,228,fr,r,0,raw,2022-07-06_10h44.25.935,oddball,2022.1.2,59.88282151800157,
5,,,,,0,0,0,1,8,0,8,0,27,0,27,0,,,,,,,,,,,,,,,,,995.6457966007292,None,996.2627084003761,996.9962525004521,996.9628122001886,998.9638256002218,None,0,0.7265240391716361,2.7275879392400384,increament,0.72,16,oddball,j,120,,,,,,,,m,21,228,fr,r,0,raw,2022-07-06_10h44.25.935,oddball,2022.1.2,59.88282151800157,
5,,,,,0,0,0,1,8,0,8,0,28,0,28,0,,,,,,,,,,,,,,,,,998.9812771007419,None,999.6471508005634,1000.2479220004752,1000.2313093002886,1002.2315021008253,None,1,0.6133617404848337,2.613460340537131,increament,0.6,15,standard,None,100,,,,,,,,m,21,228,fr,r,0,raw,2022-07-06_10h44.25.935,oddball,2022.1.2,59.88282151800157,
5,,,,,0,0,0,1,8,0,8,0,29,0,29,0,,,,,,,,,,,,,,,,,1002.2478988002986,None,1002.9486483000219,1003.5485646007583,1003.5320524005219,1005.5328291999176,None,1,0.6107138404622674,2.611510540358722,increament,0.6,15,standard,None,100,,,,,,,,m,21,228,fr,r,0,raw,2022-07-06_10h44.25.935,oddball,2022.1.2,59.88282151800157,
5,,,,,0,0,0,1,9,0,9,0,0,0,0,0,,,,,,,,,,,,,,,1020.6642550006509,None,1021.9221406001598,None,1022.5725261000916,1023.172560300678,1023.156078000553,1025.1570930005983,None,1,0.6130542401224375,2.614144340157509,decreament,0.6,11,standard,None,100,,1005.5496631003916,None,,,,,m,21,228,fr,r,0,raw,2022-07-06_10h44.25.935,oddball,2022.1.2,59.88282151800157,
5,,,,,0,0,0,1,9,0,9,0,1,0,1,0,,,,,,,,,,,,,,,,,1025.1759337000549,None,1025.6903277002275,1026.290760700591,1026.2741399006918,1028.2750546000898,None,1,0.6120461402460933,2.6130196396261454,decreament,0.6,11,standard,None,100,,,,,,,,m,21,228,fr,r,0,raw,2022-07-06_10h44.25.935,oddball,2022.1.2,59.88282151800157,
5,,,,,0,0,0,1,9,0,9,0,2,0,2,0,,,,,,,,,,,,,,,,,1028.2923113005236,None,1028.8254897007719,1029.4252522001043,1029.4086255002767,1031.4094269005582,None,1,0.6107390401884913,2.611534840427339,decreament,0.6,11,standard,None,100,,,,,,,,m,21,228,fr,r,0,raw,2022-07-06_10h44.25.935,oddball,2022.1.2,59.88282151800157,
5,,,,,0,0,0,1,9,0,9,0,3,0,3,0,,,,,,,,,,,,,,,,,1031.425809700042,None,1032.0761360004544,1032.676662100479,1032.6598833007738,1034.6604062002152,None,1,0.612698339857161,2.613151740282774,decreament,0.6,11,standard,None,100,,,,,,,,m,21,228,fr,r,0,raw,2022-07-06_10h44.25.935,oddball,2022.1.2,59.88282151800157,
5,,,,,0,0,0,1,9,0,9,0,4,0,4,0,,,,,,,,,,,,,,,,,1034.6772044999525,None,1035.377437000163,1035.9778957003728,1035.9612857000902,1037.9617749005556,None,1,0.6130146402865648,2.6134682400152087,decreament,0.6,11,standard,None,100,,,,,,,,m,21,228,fr,r,0,raw,2022-07-06_10h44.25.935,oddball,2022.1.2,59.88282151800157,
5,,,,,0,0,0,1,9,0,9,0,5,0,5,0,,,,,,,,,,,,,,,,,1037.9783789003268,None,1038.5284758005291,1039.1293144002557,1039.1126403007656,1041.1131039001048,None,1,0.6149521404877305,2.6154094403609633,decreament,0.6,11,standard,None,100,,,,,,,,m,21,228,fr,r,0,raw,2022-07-06_10h44.25.935,oddball,2022.1.2,59.88282151800157,
5,,,,,0,0,0,1,9,0,9,0,6,0,6,0,,,,,,,,,,,,,,,,,1041.1294785002246,None,1041.7467327006161,1042.346659200266,1042.3299307003617,1044.3311876999214,None,1,0.611321740783751,2.6126714404672384,decreament,0.6,11,standard,None,100,,,,,,,,m,21,228,fr,r,0,raw,2022-07-06_10h44.25.935,oddball,2022.1.2,59.88282151800157,
5,,,,,0,0,0,1,9,0,9,0,7,0,7,0,,,,,,,,,,,,,,,,,1044.347299899906,None,1044.9643649002537,1045.5645716004074,1045.5478245001286,1047.5487259002402,None,1,0.6091937404125929,2.6101351398974657,decreament,0.6,11,standard,None,100,,,,,,,,m,21,228,fr,r,0,raw,2022-07-06_10h44.25.935,oddball,2022.1.2,59.88282151800157,
5,,,,,0,0,0,1,9,0,9,0,8,0,8,0,,,,,,,,,,,,,,,,,1047.5654446007684,None,1048.3321970002726,1048.9325128002092,1048.916655300185,1050.9167325999588,None,1,0.6148430397734046,2.614795840345323,decreament,0.6,11,standard,None,100,,,,,,,,m,21,228,fr,r,0,raw,2022-07-06_10h44.25.935,oddball,2022.1.2,59.88282151800157,
5,,,,,0,0,0,1,9,0,9,0,9,0,9,0,,,,,,,,,,,,,,,,,1050.9332196004689,None,1051.750474200584,1052.3504140004516,1052.3339436007664,1054.3344725007191,None,1,0.6114193387329578,2.6119754388928413,decreament,0.6,11,standard,None,100,,,,,,,,m,21,228,fr,r,0,raw,2022-07-06_10h44.25.935,oddball,2022.1.2,59.88282151800157,
5,,,,,0,0,0,1,9,0,9,0,10,0,10,0,,,,,,,,,,,,,,,,,1054.351257700473,None,1054.9681379999965,1055.568508299999,1055.5521372007206,1057.5526497000828,None,1,0.6132727395743132,2.6137872403487563,decreament,0.6,11,standard,None,100,,,,,,,,m,21,228,fr,r,0,raw,2022-07-06_10h44.25.935,oddball,2022.1.2,59.88282151800157,
5,,,,,0,0,0,1,9,0,9,0,11,0,11,0,,,,,,,,,,,,,,,,,1057.569169100374,None,1058.0694957999513,1058.6696171006188,1058.6529788002372,1060.653710800223,None,1,0.6095202397555113,2.610253539867699,decreament,0.6,11,standard,None,100,,,,,,,,m,21,228,fr,r,0,raw,2022-07-06_10h44.25.935,oddball,2022.1.2,59.88282151800157,
5,,,,,0,0,0,1,9,0,9,0,12,0,12,0,,,,,,,,,,,,,,,,,1060.6705259000883,None,1061.2871425002813,1061.8876504004002,1061.871006499976,1063.8715065000579,None,1,0.6129554398357868,2.6133968392387033,decreament,0.6,11,standard,None,100,,,,,,,,m,21,228,fr,r,0,raw,2022-07-06_10h44.25.935,oddball,2022.1.2,59.88282151800157,
5,,,,,0,0,0,1,9,0,9,0,13,0,13,0,,,,,,,,,,,,,,,,,1063.888178200461,None,1064.6049031000584,1065.2055413005874,1065.188870800659,1067.1898550000042,None,1,0.615320741198957,2.6163723412901163,decreament,0.6,11,standard,None,100,,,,,,,,m,21,228,fr,r,0,raw,2022-07-06_10h44.25.935,oddball,2022.1.2,59.88282151800157,
5,,,,,0,0,0,1,9,0,9,0,14,0,14,0,,,,,,,,,,,,,,,,,1067.2075099004433,None,1067.8563043000177,1068.4562634006143,1068.4396377000958,1070.4407804002985,None,1,0.6128041408956051,2.613980741240084,decreament,0.6,11,standard,None,100,,,,,,,,m,21,228,fr,r,0,raw,2022-07-06_10h44.25.935,oddball,2022.1.2,59.88282151800157,
5,,,,,0,0,0,1,9,0,9,0,15,0,15,0,,,,,,,,,,,,,,,,,1070.4576444001868,None,1071.0409407000989,1071.5242101000622,1071.4914563000202,1073.491920400411,j,1,0.4795881398022175,2.4800234399735928,decreament,0.48,14,oddball,j,80,0.6626987997442484,,,,,,,m,21,228,fr,r,0,raw,2022-07-06_10h44.25.935,oddball,2022.1.2,59.88282151800157,
5,,,,,0,0,0,1,9,0,9,0,16,0,16,0,,,,,,,,,,,,,,,,,1073.5084958001971,None,1074.2086348002777,1074.8089038003236,1074.7921853000298,1076.7968521006405,None,1,0.6132245399057865,2.6178617402911186,decreament,0.6,11,standard,None,100,,,,,,,,m,21,228,fr,r,0,raw,2022-07-06_10h44.25.935,oddball,2022.1.2,59.88282151800157,
5,,,,,0,0,0,1,9,0,9,0,17,0,17,0,,,,,,,,,,,,,,,,,1076.809659300372,None,1077.4431453002617,1078.0436510005966,1078.0270693004131,1080.0277156000957,None,1,0.6129897413775325,2.613593840971589,decreament,0.6,11,standard,None,100,,,,,,,,m,21,228,fr,r,0,raw,2022-07-06_10h44.25.935,oddball,2022.1.2,59.88282151800157,
5,,,,,0,0,0,1,9,0,9,0,18,0,18,0,,,,,,,,,,,,,,,,,1080.0443576006219,None,1080.5948216002434,1081.1948155006394,1081.1784986006096,1083.1787943001837,None,1,0.612000540830195,2.612205640412867,decreament,0.6,11,standard,None,100,,,,,,,,m,21,228,fr,r,0,raw,2022-07-06_10h44.25.935,oddball,2022.1.2,59.88282151800157,
5,,,,,0,0,0,1,9,0,9,0,19,0,19,0,,,,,,,,,,,,,,,,,1083.1957764001563,None,1083.9290050007403,1084.5293976003304,1084.513075100258,1086.5138000007719,None,1,0.6133895413950086,2.614018240943551,decreament,0.6,11,standard,None,100,,,,,,,,m,21,228,fr,r,0,raw,2022-07-06_10h44.25.935,oddball,2022.1.2,59.88282151800157,
5,,,,,0,0,0,1,9,0,9,0,20,0,20,0,,,,,,,,,,,,,,,,,1086.530063200742,None,1087.3637148002163,1087.7307124007493,1087.6973148006946,1089.6978508001193,j,1,0.36312564089894295,2.363640840165317,decreament,0.36,13,oddball,j,60,0.6574129993095994,,,,,,,m,21,228,fr,r,0,raw,2022-07-06_10h44.25.935,oddball,2022.1.2,59.88282151800157,
5,,,,,0,0,0,1,9,0,9,0,21,0,21,0,,,,,,,,,,,,,,,,,1089.7148076007143,None,1090.5148165002465,1091.1151063004509,1091.0984147004783,1093.0995756005868,None,1,0.6140533406287432,2.61528374068439,decreament,0.6,11,standard,None,100,,,,,,,,m,21,228,fr,r,0,raw,2022-07-06_10h44.25.935,oddball,2022.1.2,59.88282151800157,
5,,,,,0,0,0,1,9,0,9,0,22,0,22,0,,,,,,,,,,,,,,,,,1093.1175108999014,None,1093.6996624004096,1094.2997590005398,1094.2830605003983,1096.2836703006178,None,1,0.6109728403389454,2.6115726409479976,decreament,0.6,11,standard,None,100,,,,,,,,m,21,228,fr,r,0,raw,2022-07-06_10h44.25.935,oddball,2022.1.2,59.88282151800157,
5,,,,,0,0,0,1,9,0,9,0,23,0,23,0,,,,,,,,,,,,,,,,,1096.3002899000421,None,1096.9511508001015,1097.551173900254,1097.5347792003304,1099.5352961001918,None,1,0.612069240771234,2.612563240341842,decreament,0.6,11,standard,None,100,,,,,,,,m,21,228,fr,r,0,raw,2022-07-06_10h44.25.935,oddball,2022.1.2,59.88282151800157,
5,,,,,0,0,0,1,9,0,9,0,24,0,24,0,,,,,,,,,,,,,,,,,1099.551758300513,None,1100.1352940006182,1100.7357975002378,1100.7191049000248,1102.7195053007454,None,1,0.6129227392375469,2.613279638811946,decreament,0.6,11,standard,None,100,,,,,,,,m,21,228,fr,r,0,raw,2022-07-06_10h44.25.935,oddball,2022.1.2,59.88282151800157,
5,,,,,0,0,0,1,9,0,9,0,25,0,25,0,,,,,,,,,,,,,,,,,1102.7361246999353,None,1103.420004799962,1104.0199636006728,1104.0032395003363,1106.0045059006661,None,1,0.6120440401136875,2.6133862398564816,decreament,0.6,11,standard,None,100,,,,,,,,m,21,228,fr,r,0,raw,2022-07-06_10h44.25.935,oddball,2022.1.2,59.88282151800157,
5,,,,,0,0,0,1,9,0,9,0,26,0,26,0,,,,,,,,,,,,,,,,,1106.0218859007582,None,1106.7211094005033,1106.971428300254,1106.9379829000682,1108.9392349002883,j,1,0.24706833995878696,2.248371140100062,decreament,0.24,12,oddball,j,40,0.7286235997453332,,,,,,,m,21,228,fr,r,0,raw,2022-07-06_10h44.25.935,oddball,2022.1.2,59.88282151800157,
5,,,,,0,0,0,1,9,0,9,0,27,0,27,0,,,,,,,,,,,,,,,,,1108.9554863004014,None,1109.5888010002673,1110.1890866002068,1110.172540800646,1112.173235100694,None,1,0.6127727394923568,2.613481239415705,decreament,0.6,11,standard,None,100,,,,,,,,m,21,228,fr,r,0,raw,2022-07-06_10h44.25.935,oddball,2022.1.2,59.88282151800157,
5,,,,,0,0,0,1,9,0,9,0,28,0,28,0,,,,,,,,,,,,,,,,,1112.1899393005297,None,1112.9237934006378,1113.5236658006907,1113.5069260001183,1115.5076833004132,None,1,0.6105984402820468,2.611338340677321,decreament,0.6,11,standard,None,100,,,,,,,,m,21,228,fr,r,0,raw,2022-07-06_10h44.25.935,oddball,2022.1.2,59.88282151800157,
5,,,,,0,0,0,1,9,0,9,0,29,0,29,0,,,,,,,,,,,,,,,,,1115.5242485003546,None,1116.1911992002279,1116.7918541999534,1116.7755333008245,1118.7757689002901,None,1,0.6139426399022341,2.614125239662826,decreament,0.6,11,standard,None,100,,,,,,,,m,21,228,fr,r,0,raw,2022-07-06_10h44.25.935,oddball,2022.1.2,59.88282151800157,
0,,,,,0,1,1,0,0,0,0,0,0,0,0,0,,,,,,,,,,,,,,,1301.6224719006568,None,1303.0287382006645,None,1303.6623460007831,1304.262518200092,1304.2460914999247,1306.2467748001218,None,1,0.6131395390257239,2.613879439420998,increament,0.6,5,standard,None,100,,1298.8107616007328,None,1118.8121591005474,None,,,m,21,228,fr,r,0,raw,2022-07-06_10h44.25.935,oddball,2022.1.2,59.88282151800157,
0,,,,,0,1,1,0,0,0,0,0,1,0,1,0,,,,,,,,,,,,,,,,,1306.263531900011,None,1306.8303631003946,1307.4305513007566,1307.414167799987,1309.4148260001093,None,1,0.6132096396759152,2.6138741401955485,increament,0.6,5,standard,None,100,,,,,,,,m,21,228,fr,r,0,raw,2022-07-06_10h44.25.935,oddball,2022.1.2,59.88282151800157,
0,,,,,0,1,1,0,0,0,0,0,2,0,2,0,,,,,,,,,,,,,,,,,1309.4334503002465,None,1310.2315517002717,1310.8317742999643,1310.8150935005397,1312.815413900651,None,1,0.6111251404508948,2.6113627403974533,increament,0.6,5,standard,None,100,,,,,,,,m,21,228,fr,r,0,raw,2022-07-06_10h44.25.935,oddball,2022.1.2,59.88282151800157,
0,,,,,0,1,1,0,0,0,0,0,3,0,3,0,,,,,,,,,,,,,,,,,1312.8322838004678,None,1313.3829492004588,1313.9829259999096,1313.9664765000343,1315.9674349008128,None,1,0.6110317409038544,2.612076140008867,increament,0.6,5,standard,None,100,,,,,,,,m,21,228,fr,r,0,raw,2022-07-06_10h44.25.935,oddball,2022.1.2,59.88282151800157,
0,,,,,0,1,1,0,0,0,0,0,4,0,4,0,,,,,,,,,,,,,,,,,1315.9838633006439,None,1316.567186000757,1317.1678063003346,1317.1512499004602,1319.1519507002085,None,1,0.6143006402999163,2.6150228399783373,increament,0.6,5,standard,None,100,,,,,,,,m,21,228,fr,r,0,raw,2022-07-06_10h44.25.935,oddball,2022.1.2,59.88282151800157,
0,,,,,0,1,1,0,0,0,0,0,5,0,5,0,,,,,,,,,,,,,,,,,1319.1692035002634,None,1319.7517595002428,1320.3519371999428,1320.3355694999918,1322.3360534003004,None,1,0.6092355400323868,2.6097297398373485,increament,0.6,5,standard,None,100,,,,,,,,m,21,228,fr,r,0,raw,2022-07-06_10h44.25.935,oddball,2022.1.2,59.88282151800157,
0,,,,,0,1,1,0,0,0,0,0,6,0,6,0,,,,,,,,,,,,,,,,,1322.3529486004263,None,1322.9698417000473,1323.5701211001724,1323.5538536999375,1325.5538611002266,None,1,0.6134516401216388,2.6133632408455014,increament,0.6,5,standard,None,100,,,,,,,,m,21,228,fr,r,0,raw,2022-07-06_10h44.25.935,oddball,2022.1.2,59.88282151800157,
0,,,,,0,1,1,0,0,0,0,0,7,0,7,0,,,,,,,,,,,,,,,,,1325.5707499003038,None,1326.2041303999722,1327.1715096002445,1327.138161700219,1329.1387799000368,j,1,0.9613335402682424,2.961969440802932,increament,0.96,8,oddball,j,160,0.5277015995234251,,,,,,,m,21,228,fr,r,0,raw,2022-07-06_10h44.25.935,oddball,2022.1.2,59.88282151800157,
0,,,,,0,1,1,0,0,0,0,0,8,0,8,0,,,,,,,,,,,,,,,,,1329.1553561007604,None,1329.7889002002776,1330.3890769006684,1330.3721943004057,1332.3732595006004,None,1,0.6114074410870671,2.6125496411696076,increament,0.6,5,standard,None,100,,,,,,,,m,21,228,fr,r,0,raw,2022-07-06_10h44.25.935,oddball,2022.1.2,59.88282151800157,
0,,,,,0,1,1,0,0,0,0,0,9,0,9,0,,,,,,,,,,,,,,,,,1332.3898489000276,None,1333.0735836001113,1333.6741703003645,1333.6568893007934,1335.6578609002754,None,1,0.6126363398507237,2.6136200400069356,increament,0.6,5,standard,None,100,,,,,,,,m,21,228,fr,r,0,raw,2022-07-06_10h44.25.935,oddball,2022.1.2,59.88282151800157,
0,,,,,0,1,1,0,0,0,0,0,10,0,10,0,,,,,,,,,,,,,,,,,1335.6744584003463,None,1336.3420013003051,1336.9418042004108,1336.9251125007868,1338.9258297001943,None,1,0.6096369391307235,2.6103350399062037,increament,0.6,5,standard,None,100,,,,,,,,m,21,228,fr,r,0,raw,2022-07-06_10h44.25.935,oddball,2022.1.2,59.88282151800157,
0,,,,,0,1,1,0,0,0,0,0,11,0,11,0,,,,,,,,,,,,,,,,,1338.9424450006336,None,1339.5428885007277,1340.142784900032,1340.1264129001647,1342.127058500424,None,1,0.6118584405630827,2.612585741095245,increament,0.6,5,standard,None,100,,,,,,,,m,21,228,fr,r,0,raw,2022-07-06_10h44.25.935,oddball,2022.1.2,59.88282151800157,
0,,,,,0,1,1,0,0,0,0,0,12,0,12,0,,,,,,,,,,,,,,,,,1342.1445321002975,None,1342.8940692003816,1343.4941953001544,1343.4776582000777,1345.478126000613,None,1,0.6113398410379887,2.611787441186607,increament,0.6,5,standard,None,100,,,,,,,,m,21,228,fr,r,0,raw,2022-07-06_10h44.25.935,oddball,2022.1.2,59.88282151800157,
0,,,,,0,1,1,0,0,0,0,0,13,0,13,0,,,,,,,,,,,,,,,,,1345.4948898004368,None,1346.1118643004447,1346.711817100644,1346.6953471004963,1348.6960160005838,None,1,0.6123782405629754,2.6130395410582423,increament,0.6,5,standard,None,100,,,,,,,,m,21,228,fr,r,0,raw,2022-07-06_10h44.25.935,oddball,2022.1.2,59.88282151800157,
0,,,,,0,1,1,0,0,0,0,0,14,0,14,0,,,,,,,,,,,,,,,,,1348.7124572005123,None,1349.3630833001807,1349.9632518999279,1349.9465793007985,1351.9475202001631,None,1,0.6107165403664112,2.6116563407704234,increament,0.6,5,standard,None,100,,,,,,,,m,21,228,fr,r,0,raw,2022-07-06_10h44.25.935,oddball,2022.1.2,59.88282151800157,
