grating_freq,blocks_prac.thisRepN,blocks_prac.thisTrialN,blocks_prac.thisN,blocks_prac.thisIndex,blocks.thisRepN,blocks.thisTrialN,blocks.thisN,blocks.thisIndex,repeat_freq.thisRepN,repeat_freq.thisTrialN,repeat_freq.thisN,repeat_freq.thisIndex,trials.thisRepN,trials.thisTrialN,trials.thisN,trials.thisIndex,break_loop.thisRepN,break_loop.thisTrialN,break_loop.thisN,break_loop.thisIndex,rest_loop.thisRepN,rest_loop.thisTrialN,rest_loop.thisN,rest_loop.thisIndex,instruct_prac_text.started,instruct_prac_text.stopped,b_instruct_text_2_.started,b_instruct_text_2_.stopped,prac_done_text.started,prac_done_text.stopped,instruct_text.started,instruct_text.stopped,fixation.started,fixation.stopped,grating.started,grating.stopped,blank.started,blank.stopped,resp.keys,resp.corr,resp.started,resp.stopped,direction,duration,trigger,stim_type,corr_ans,scaling,resp.rt,rest_text.started,rest_text.stopped,text_2.started,text_2.stopped,thx_txt.started,thx_txt.stopped,gender,age,participant,language,main_hand,nBlock_prac,file_suffix,date,expName,psychopyVersion,frameRate,
10,,,,,0,0,0,2,0,0,0,0,0,0,0,0,,,,,,,,,24.937938899733126,None,43.665952099487185,None,56.04762249998748,None,63.1469511995092,None,68.92515569925308,None,69.7468400998041,70.35896370001137,70.30892879981548,72.30969469994307,None,1,0.6116411099210382,2.612420010380447,decreament,0.6,21,standard,None,100,,,,,,,,f,22,230,fr,r,0,raw,2022-07-07_10h38.51.154,oddball,2022.1.2,60.006828563631075,
10,,,,,0,0,0,2,0,0,0,0,1,0,1,0,,,,,,,,,,,,,,,,,72.32630569953471,None,72.97669619973749,73.5770255997777,73.56021100003272,75.56099319923669,None,1,0.6105141108855605,2.6112930104136467,decreament,0.6,21,standard,None,100,,,,,,,,f,22,230,fr,r,0,raw,2022-07-07_10h38.51.154,oddball,2022.1.2,60.006828563631075,
10,,,,,0,0,0,2,0,0,0,0,2,0,2,0,,,,,,,,,,,,,,,,,75.57767729926854,None,76.11131259985268,76.71123099979013,76.69458869937807,78.69555139914155,None,1,0.6130228107795119,2.6140532102435827,decreament,0.6,21,standard,None,100,,,,,,,,f,22,230,fr,r,0,raw,2022-07-07_10h38.51.154,oddball,2022.1.2,60.006828563631075,
10,,,,,0,0,0,2,0,0,0,0,3,0,3,0,,,,,,,,,,,,,,,,,78.71229889988899,None,79.36277489922941,79.96292299963534,79.94601699989289,81.94666769914329,None,1,0.6116354092955589,2.612247509881854,decreament,0.6,21,standard,None,100,,,,,,,,f,22,230,fr,r,0,raw,2022-07-07_10h38.51.154,oddball,2022.1.2,60.006828563631075,
10,,,,,0,0,0,2,0,0,0,0,4,0,4,0,,,,,,,,,,,,,,,,,81.96329869981855,None,82.64680309966207,83.2472044993192,83.23084759991616,85.23103349935263,None,1,0.6141772102564573,2.6143152099102736,decreament,0.6,21,standard,None,100,,,,,,,,f,22,230,fr,r,0,raw,2022-07-07_10h38.51.154,oddball,2022.1.2,60.006828563631075,
10,,,,,0,0,0,2,0,0,0,0,5,0,5,0,,,,,,,,,,,,,,,,,85.24790639989078,None,85.86470489948988,86.46533939987421,86.44852799922228,88.44912480004132,None,1,0.6143334107473493,2.6149011105298996,decreament,0.6,21,standard,None,100,,,,,,,,f,22,230,fr,r,0,raw,2022-07-07_10h38.51.154,oddball,2022.1.2,60.006828563631075,
10,,,,,0,0,0,2,0,0,0,0,6,0,6,0,,,,,,,,,,,,,,,,,88.46585359983146,None,89.09941529948264,89.34966449998319,89.31635529920459,91.31674959976226,j,1,0.24233051016926765,2.2426951099187136,decreament,0.24,22,oddball,j,40,0.6071254005655646,,,,,,,f,22,230,fr,r,0,raw,2022-07-07_10h38.51.154,oddball,2022.1.2,60.006828563631075,
10,,,,,0,0,0,2,0,0,0,0,7,0,7,0,,,,,,,,,,,,,,,,,91.33348200004548,None,92.03414430003613,92.63403929956257,92.6174169993028,94.618413599208,None,1,0.6120927091687918,2.613082109950483,decreament,0.6,21,standard,None,100,,,,,,,,f,22,230,fr,r,0,raw,2022-07-07_10h38.51.154,oddball,2022.1.2,60.006828563631075,
10,,,,,0,0,0,2,0,0,0,0,8,0,8,0,,,,,,,,,,,,,,,,,94.63484539929777,None,95.3182899998501,95.91855569928885,95.90205369982868,97.90278079919517,None,1,0.6133884098380804,2.6141371093690395,decreament,0.6,21,standard,None,100,,,,,,,,f,22,230,fr,r,0,raw,2022-07-07_10h38.51.154,oddball,2022.1.2,60.006828563631075,
10,,,,,0,0,0,2,0,0,0,0,9,0,9,0,,,,,,,,,,,,,,,,,97.91925029922277,None,98.60310529917479,99.20349329989403,99.18671240005642,101.1871841000393,None,1,0.6127113113179803,2.6131475111469626,decreament,0.6,21,standard,None,100,,,,,,,,f,22,230,fr,r,0,raw,2022-07-07_10h38.51.154,oddball,2022.1.2,60.006828563631075,
10,,,,,0,0,0,2,0,0,0,0,10,0,10,0,,,,,,,,,,,,,,,,,101.20395309943706,None,101.80416770000011,102.28755289968103,102.25455699954182,104.25508269947022,None,0,0.47927390970289707,2.4798288103193045,decreament,0.48,24,oddball,j,80,,,,,,,,f,22,230,fr,r,0,raw,2022-07-07_10h38.51.154,oddball,2022.1.2,60.006828563631075,
10,,,,,0,0,0,2,0,0,0,0,11,0,11,0,,,,,,,,,,,,,,,,,104.27178319916129,None,105.05563519988209,105.6561681991443,105.63937199953943,107.63967289961874,None,1,0.6130053102970123,2.613237810321152,decreament,0.6,21,standard,None,100,,,,,,,,f,22,230,fr,r,0,raw,2022-07-07_10h38.51.154,oddball,2022.1.2,60.006828563631075,
10,,,,,0,0,0,2,0,0,0,0,12,0,12,0,,,,,,,,,,,,,,,,,107.65652319975197,None,108.20670880004764,108.80709079932421,108.79076429922134,110.7914406992495,None,1,0.6125809093937278,2.613257410004735,decreament,0.6,21,standard,None,100,,,,,,,,f,22,230,fr,r,0,raw,2022-07-07_10h38.51.154,oddball,2022.1.2,60.006828563631075,
10,,,,,0,0,0,2,0,0,0,0,13,0,13,0,,,,,,,,,,,,,,,,,110.80868219956756,None,111.44152770005167,112.04139189980924,112.02493730001152,114.02529369946569,None,1,0.6122991098091006,2.6126053100451827,decreament,0.6,21,standard,None,100,,,,,,,,f,22,230,fr,r,0,raw,2022-07-07_10h38.51.154,oddball,2022.1.2,60.006828563631075,
10,,,,,0,0,0,2,0,0,0,0,14,0,14,0,,,,,,,,,,,,,,,,,114.04207680001855,None,114.64246729947627,115.24255550000817,115.22606839984655,117.22658120002598,None,1,0.6132616102695465,2.613723009824753,decreament,0.6,21,standard,None,100,,,,,,,,f,22,230,fr,r,0,raw,2022-07-07_10h38.51.154,oddball,2022.1.2,60.006828563631075,
10,,,,,0,0,0,2,0,0,0,0,15,0,15,0,,,,,,,,,,,,,,,,,117.2434561997652,None,118.04383259918541,118.64405729994178,118.6273726997897,120.6279518995434,None,1,0.6123976092785597,2.6129822097718716,decreament,0.6,21,standard,None,100,,,,,,,,f,22,230,fr,r,0,raw,2022-07-07_10h38.51.154,oddball,2022.1.2,60.006828563631075,
10,,,,,0,0,0,2,0,0,0,0,16,0,16,0,,,,,,,,,,,,,,,,,120.64469440001994,None,121.42818229924887,122.02895559929311,122.01196609996259,124.01266789995134,None,1,0.6133876098319888,2.6141215106472373,decreament,0.6,21,standard,None,100,,,,,,,,f,22,230,fr,r,0,raw,2022-07-07_10h38.51.154,oddball,2022.1.2,60.006828563631075,
10,,,,,0,0,0,2,0,0,0,0,17,0,17,0,,,,,,,,,,,,,,,,,124.0294535998255,None,124.61294799949974,125.21277559921145,125.19631869997829,127.19742339942604,None,1,0.6110480092465878,2.612236109562218,decreament,0.6,21,standard,None,100,,,,,,,,f,22,230,fr,r,0,raw,2022-07-07_10h38.51.154,oddball,2022.1.2,60.006828563631075,
10,,,,,0,0,0,2,0,0,0,0,18,0,18,0,,,,,,,,,,,,,,,,,127.21462239976972,None,127.81394269969314,128.41431349981576,128.39775040000677,130.39836999960244,None,1,0.6133659100160003,2.6139675099402666,decreament,0.6,21,standard,None,100,,,,,,,,f,22,230,fr,r,0,raw,2022-07-07_10h38.51.154,oddball,2022.1.2,60.006828563631075,
10,,,,,0,0,0,2,0,0,0,0,19,0,19,0,,,,,,,,,,,,,,,,,130.41528159938753,None,131.19911659974605,131.79891490004957,131.78288529999554,133.78314019925892,None,1,0.6086638104170561,2.608900310471654,decreament,0.6,21,standard,None,100,,,,,,,,f,22,230,fr,r,0,raw,2022-07-07_10h38.51.154,oddball,2022.1.2,60.006828563631075,
10,,,,,0,0,0,2,0,0,0,0,20,0,20,0,,,,,,,,,,,,,,,,,133.8000269997865,None,134.41659059934318,135.0166943995282,135.00007499940693,137.0010722000152,None,1,0.6102318111807108,2.6113235112279654,decreament,0.6,21,standard,None,100,,,,,,,,f,22,230,fr,r,0,raw,2022-07-07_10h38.51.154,oddball,2022.1.2,60.006828563631075,
10,,,,,0,0,0,2,0,0,0,0,21,0,21,0,,,,,,,,,,,,,,,,,137.01881199982017,None,137.78456029947847,138.3847931995988,138.36855789925903,140.36891009937972,None,1,0.6097271088510752,2.610043709166348,decreament,0.6,21,standard,None,100,,,,,,,,f,22,230,fr,r,0,raw,2022-07-07_10h38.51.154,oddball,2022.1.2,60.006828563631075,
10,,,,,0,0,0,2,0,0,0,0,22,0,22,0,,,,,,,,,,,,,,,,,140.38551519997418,None,141.08596619963646,141.68612309917808,141.66965189948678,143.6699916999787,None,1,0.6107214093208313,2.6110057095065713,decreament,0.6,21,standard,None,100,,,,,,,,f,22,230,fr,r,0,raw,2022-07-07_10h38.51.154,oddball,2022.1.2,60.006828563631075,
10,,,,,0,0,0,2,0,0,0,0,23,0,23,0,,,,,,,,,,,,,,,,,143.6867653997615,None,144.32039789948612,144.92050249967724,144.90413779951632,146.90473259985447,None,1,0.6124783111736178,2.6130957109853625,decreament,0.6,21,standard,None,100,,,,,,,,f,22,230,fr,r,0,raw,2022-07-07_10h38.51.154,oddball,2022.1.2,60.006828563631075,
10,,,,,0,0,0,2,0,0,0,0,24,0,24,0,,,,,,,,,,,,,,,,,146.92142399959266,None,147.55539349932224,148.15565219987184,148.1387709993869,150.13935529999435,None,1,0.6099940100684762,2.61055601015687,decreament,0.6,21,standard,None,100,,,,,,,,f,22,230,fr,r,0,raw,2022-07-07_10h38.51.154,oddball,2022.1.2,60.006828563631075,
10,,,,,0,0,0,2,0,0,0,0,25,0,25,0,,,,,,,,,,,,,,,,,150.15589679963887,None,150.8564549991861,151.45652139931917,151.4398705996573,153.4405466997996,None,1,0.608978409320116,2.609628309495747,decreament,0.6,21,standard,None,100,,,,,,,,f,22,230,fr,r,0,raw,2022-07-07_10h38.51.154,oddball,2022.1.2,60.006828563631075,
10,,,,,0,0,0,2,0,0,0,0,26,0,26,0,,,,,,,,,,,,,,,,,153.45709779951721,None,154.22415369935334,154.82429119944572,154.80762489978224,156.8085335996002,None,1,0.6109335096552968,2.611919109709561,decreament,0.6,21,standard,None,100,,,,,,,,f,22,230,fr,r,0,raw,2022-07-07_10h38.51.154,oddball,2022.1.2,60.006828563631075,
10,,,,,0,0,0,2,0,0,0,0,27,0,27,0,,,,,,,,,,,,,,,,,156.8250306993723,None,157.45865969918668,158.05879199970514,158.04266719985753,160.04302609991282,None,1,0.6122534098103642,2.6125461095944047,decreament,0.6,21,standard,None,100,,,,,,,,f,22,230,fr,r,0,raw,2022-07-07_10h38.51.154,oddball,2022.1.2,60.006828563631075,
10,,,,,0,0,0,2,0,0,0,0,28,0,28,0,,,,,,,,,,,,,,,,,160.059645999223,None,160.96049769967794,161.56043279916048,161.54382609948516,163.54456849955022,j,0,0.6094995103776455,2.610272110439837,decreament,0.6,21,standard,None,100,0.796810400672257,,,,,,,f,22,230,fr,r,0,raw,2022-07-07_10h38.51.154,oddball,2022.1.2,60.006828563631075,
10,,,,,0,0,0,2,0,0,0,0,29,0,29,0,,,,,,,,,,,,,,,,,163.5609588995576,None,164.22777159977704,164.5946337999776,164.56114019919187,166.56202319916338,j,1,0.36174531001597643,2.3626193096861243,decreament,0.36,23,oddball,j,60,0.7074621003121138,,,,,,,f,22,230,fr,r,0,raw,2022-07-07_10h38.51.154,oddball,2022.1.2,60.006828563631075,
10,,,,,0,0,0,2,1,0,1,0,0,0,0,0,,,,,,,,,,,,,,,173.67309249937534,None,176.74938429985195,None,177.43312149960548,178.0330702997744,178.01633969973773,180.01714199967682,None,1,0.6098925098776817,2.6107394099235535,increament,0.6,25,standard,None,100,,166.57909009978175,None,,,,,f,22,230,fr,r,0,raw,2022-07-07_10h38.51.154,oddball,2022.1.2,60.006828563631075,
10,,,,,0,0,0,2,1,0,1,0,1,0,1,0,,,,,,,,,,,,,,,,,180.03378269914538,None,180.66737429983914,181.26793079916388,181.25132029969245,183.25169119983912,None,1,0.6137352092191577,2.6140106096863747,increament,0.6,25,standard,None,100,,,,,,,,f,22,230,fr,r,0,raw,2022-07-07_10h38.51.154,oddball,2022.1.2,60.006828563631075,
10,,,,,0,0,0,2,1,0,1,0,2,0,2,0,,,,,,,,,,,,,,,,,183.2683223998174,None,183.78529559914023,184.38546629995108,184.36963409930468,186.36969089973718,None,1,0.6136096101254225,2.61312161013484,increament,0.6,25,standard,None,100,,,,,,,,f,22,230,fr,r,0,raw,2022-07-07_10h38.51.154,oddball,2022.1.2,60.006828563631075,
10,,,,,0,0,0,2,1,0,1,0,3,0,3,0,,,,,,,,,,,,,,,,,186.38641319982708,None,187.2199341999367,187.8200270999223,187.8037356995046,189.80446460004896,None,1,0.6127783097326756,2.6135030100122094,increament,0.6,25,standard,None,100,,,,,,,,f,22,230,fr,r,0,raw,2022-07-07_10h38.51.154,oddball,2022.1.2,60.006828563631075,
10,,,,,0,0,0,2,1,0,1,0,4,0,4,0,,,,,,,,,,,,,,,,,189.82109599933028,None,190.57138459943235,191.1713070999831,191.1549370996654,193.15566619951278,None,1,0.6125632096081972,2.6133337104693055,increament,0.6,25,standard,None,100,,,,,,,,f,22,230,fr,r,0,raw,2022-07-07_10h38.51.154,oddball,2022.1.2,60.006828563631075,
10,,,,,0,0,0,2,1,0,1,0,5,0,5,0,,,,,,,,,,,,,,,,,193.17250250000507,None,193.75604709982872,194.35615729913116,194.33962039928883,196.34021599963307,None,1,0.6124125104397535,2.612975610420108,increament,0.6,25,standard,None,100,,,,,,,,f,22,230,fr,r,0,raw,2022-07-07_10h38.51.154,oddball,2022.1.2,60.006828563631075,
10,,,,,0,0,0,2,1,0,1,0,6,0,6,0,,,,,,,,,,,,,,,,,196.35714079998434,None,197.05717479996383,197.6572988992557,197.64071729965508,199.64140839967877,None,1,0.6098408093675971,2.6104575097560883,increament,0.6,25,standard,None,100,,,,,,,,f,22,230,fr,r,0,raw,2022-07-07_10h38.51.154,oddball,2022.1.2,60.006828563631075,
10,,,,,0,0,0,2,1,0,1,0,7,0,7,0,,,,,,,,,,,,,,,,,199.65804069954902,None,200.2083036992699,200.80843449942768,200.79166559968144,202.79270459990948,None,1,0.6117901103571057,2.6128985108807683,increament,0.6,25,standard,None,100,,,,,,,,f,22,230,fr,r,0,raw,2022-07-07_10h38.51.154,oddball,2022.1.2,60.006828563631075,
10,,,,,0,0,0,2,1,0,1,0,8,0,8,0,,,,,,,,,,,,,,,,,202.81017349939793,None,203.57593839988112,204.1763804992661,204.16001609992236,206.1606919998303,None,1,0.6103992098942399,2.611087909899652,increament,0.6,25,standard,None,100,,,,,,,,f,22,230,fr,r,0,raw,2022-07-07_10h38.51.154,oddball,2022.1.2,60.006828563631075,
10,,,,,0,0,0,2,1,0,1,0,9,0,9,0,,,,,,,,,,,,,,,,,206.17721059918404,None,206.76087079942226,207.3614142993465,207.34472339972854,209.34490679949522,None,1,0.6115383096039295,2.6115768095478415,increament,0.6,25,standard,None,100,,,,,,,,f,22,230,fr,r,0,raw,2022-07-07_10h38.51.154,oddball,2022.1.2,60.006828563631075,
10,,,,,0,0,0,2,1,0,1,0,10,0,10,0,,,,,,,,,,,,,,,,,209.36159799993038,None,210.0123505992815,210.6121187992394,210.59545569960028,212.59596699941903,None,1,0.6122429110109806,2.612712310627103,increament,0.6,25,standard,None,100,,,,,,,,f,22,230,fr,r,0,raw,2022-07-07_10h38.51.154,oddball,2022.1.2,60.006828563631075,
10,,,,,0,0,0,2,1,0,1,0,11,0,11,0,,,,,,,,,,,,,,,,,212.61269939970225,None,213.4633891992271,214.06338369939476,214.0469158999622,216.04742429964244,None,1,0.6097006108611822,2.6102359108626842,increament,0.6,25,standard,None,100,,,,,,,,f,22,230,fr,r,0,raw,2022-07-07_10h38.51.154,oddball,2022.1.2,60.006828563631075,
10,,,,,0,0,0,2,1,0,1,0,12,0,12,0,,,,,,,,,,,,,,,,,216.06422009970993,None,216.7645293995738,217.3646944994107,217.34788579959422,219.34927479922771,None,1,0.6129985097795725,2.6145398104563355,increament,0.6,25,standard,None,100,,,,,,,,f,22,230,fr,r,0,raw,2022-07-07_10h38.51.154,oddball,2022.1.2,60.006828563631075,
10,,,,,0,0,0,2,1,0,1,0,13,0,13,0,,,,,,,,,,,,,,,,,219.36660109926015,None,220.048998599872,220.6491904994473,220.6326174000278,222.63387279957533,None,1,0.6120903110131621,2.6134048104286194,increament,0.6,25,standard,None,100,,,,,,,,f,22,230,fr,r,0,raw,2022-07-07_10h38.51.154,oddball,2022.1.2,60.006828563631075,
10,,,,,0,0,0,2,1,0,1,0,14,0,14,0,,,,,,,,,,,,,,,,,222.65021189954132,None,223.30051689967513,224.26720419991761,224.23377259913832,226.23495329916477,j,1,0.960305511020124,2.961581810377538,increament,0.96,28,oddball,j,160,0.30497399996966124,,,,,,,f,22,230,fr,r,0,raw,2022-07-07_10h38.51.154,oddball,2022.1.2,60.006828563631075,
10,,,,,0,0,0,2,1,0,1,0,15,0,15,0,,,,,,,,,,,,,,,,,226.25232149939984,None,226.86823149956763,227.46841109916568,227.45195609983057,229.4526173993945,None,1,0.6108125103637576,2.6114907106384635,increament,0.6,25,standard,None,100,,,,,,,,f,22,230,fr,r,0,raw,2022-07-07_10h38.51.154,oddball,2022.1.2,60.006828563631075,
10,,,,,0,0,0,2,1,0,1,0,16,0,16,0,,,,,,,,,,,,,,,,,229.4695096993819,None,230.13652219995856,230.73636399954557,230.7198105994612,232.72038659919053,None,1,0.6108341095969081,2.611414009705186,increament,0.6,25,standard,None,100,,,,,,,,f,22,230,fr,r,0,raw,2022-07-07_10h38.51.154,oddball,2022.1.2,60.006828563631075,
10,,,,,0,0,0,2,1,0,1,0,17,0,17,0,,,,,,,,,,,,,,,,,232.73719299957156,None,233.58737759944052,234.187917499803,234.17149589955807,236.17153539974242,None,1,0.6137087102979422,2.6136943101882935,increament,0.6,25,standard,None,100,,,,,,,,f,22,230,fr,r,0,raw,2022-07-07_10h38.51.154,oddball,2022.1.2,60.006828563631075,
10,,,,,0,0,0,2,1,0,1,0,18,0,18,0,,,,,,,,,,,,,,,,,236.18815869931132,None,236.75556629989296,237.48883529938757,237.45572869945318,239.456289999187,None,0,0.7280872100964189,2.728607810102403,increament,0.72,26,oddball,j,120,,,,,,,,f,22,230,fr,r,0,raw,2022-07-07_10h38.51.154,oddball,2022.1.2,60.006828563631075,
10,,,,,0,0,0,2,1,0,1,0,19,0,19,0,,,,,,,,,,,,,,,,,239.47321019973606,None,240.0230296999216,240.62328739929944,240.60689689964056,242.6071941992268,None,1,0.6141012096777558,2.6143467100337148,increament,0.6,25,standard,None,100,,,,,,,,f,22,230,fr,r,0,raw,2022-07-07_10h38.51.154,oddball,2022.1.2,60.006828563631075,
10,,,,,0,0,0,2,1,0,1,0,20,0,20,0,,,,,,,,,,,,,,,,,242.62386669963598,None,243.3746907999739,243.9747276995331,243.9579551992938,245.95911589916795,None,1,0.6109355110675097,2.6122100111097097,increament,0.6,25,standard,None,100,,,,,,,,f,22,230,fr,r,0,raw,2022-07-07_10h38.51.154,oddball,2022.1.2,60.006828563631075,
10,,,,,0,0,0,2,1,0,1,0,21,0,21,0,,,,,,,,,,,,,,,,,245.97539339959621,None,246.57606589980423,247.17611869983375,247.1593576995656,249.16037879977375,None,1,0.6126370104029775,2.613741910085082,increament,0.6,25,standard,None,100,,,,,,,,f,22,230,fr,r,0,raw,2022-07-07_10h38.51.154,oddball,2022.1.2,60.006828563631075,
10,,,,,0,0,0,2,1,0,1,0,22,0,22,0,,,,,,,,,,,,,,,,,249.17799759935588,None,249.8270886996761,250.42715019918978,250.41060019936413,252.41145479958504,None,1,0.6109374091029167,2.611800209619105,increament,0.6,25,standard,None,100,,,,,,,,f,22,230,fr,r,0,raw,2022-07-07_10h38.51.154,oddball,2022.1.2,60.006828563631075,
10,,,,,0,0,0,2,1,0,1,0,23,0,23,0,,,,,,,,,,,,,,,,,252.4280615998432,None,253.12843939941376,253.72830769978464,253.7118484992534,255.71260339953005,None,1,0.6091025099158287,2.609860209748149,increament,0.6,25,standard,None,100,,,,,,,,f,22,230,fr,r,0,raw,2022-07-07_10h38.51.154,oddball,2022.1.2,60.006828563631075,
10,,,,,0,0,0,2,1,0,1,0,24,0,24,0,,,,,,,,,,,,,,,,,255.72939909994602,None,256.5629309993237,257.1628569997847,257.14626489952207,259.14721830002964,None,1,0.6109109101817012,2.611896109767258,increament,0.6,25,standard,None,100,,,,,,,,f,22,230,fr,r,0,raw,2022-07-07_10h38.51.154,oddball,2022.1.2,60.006828563631075,
10,,,,,0,0,0,2,1,0,1,0,25,0,25,0,,,,,,,,,,,,,,,,,259.163806299679,None,259.98079989943653,260.581165199168,260.5646667992696,262.5654372991994,None,1,0.6132189109921455,2.6140337102115154,increament,0.6,25,standard,None,100,,,,,,,,f,22,230,fr,r,0,raw,2022-07-07_10h38.51.154,oddball,2022.1.2,60.006828563631075,
10,,,,,0,0,0,2,1,0,1,0,26,0,26,0,,,,,,,,,,,,,,,,,262.58343559969217,None,263.34908809978515,263.94909289944917,263.9323301995173,265.93326769955456,None,1,0.6098795095458627,2.6108573097735643,increament,0.6,25,standard,None,100,,,,,,,,f,22,230,fr,r,0,raw,2022-07-07_10h38.51.154,oddball,2022.1.2,60.006828563631075,
10,,,,,0,0,0,2,1,0,1,0,27,0,27,0,,,,,,,,,,,,,,,,,265.94975269958377,None,266.56683939974755,267.41729079931974,267.38427809998393,269.38464059960097,j,1,0.8465333105996251,2.8469050098210573,increament,0.84,27,oddball,j,140,0.9549473999068141,,,,,,,f,22,230,fr,r,0,raw,2022-07-07_10h38.51.154,oddball,2022.1.2,60.006828563631075,
10,,,,,0,0,0,2,1,0,1,0,28,0,28,0,,,,,,,,,,,,,,,,,269.40116439945996,None,270.15149149950594,270.75204709917307,270.7350419992581,272.735793299973,None,1,0.6124860094860196,2.6131910094991326,increament,0.6,25,standard,None,100,,,,,,,,f,22,230,fr,r,0,raw,2022-07-07_10h38.51.154,oddball,2022.1.2,60.006828563631075,
10,,,,,0,0,0,2,1,0,1,0,29,0,29,0,,,,,,,,,,,,,,,,,272.7525447998196,None,273.38565589953214,273.9861830994487,273.96964619960636,275.9703332995996,None,1,0.6147385099902749,2.6154569098725915,increament,0.6,25,standard,None,100,,,,,,,,f,22,230,fr,r,0,raw,2022-07-07_10h38.51.154,oddball,2022.1.2,60.006828563631075,
10,,,,,0,0,0,2,2,0,2,0,0,0,0,0,,,,,,,,,,,,,,,283.4616407994181,None,286.3074947996065,None,286.95775429997593,287.55822589993477,287.54155789967626,289.5424042996019,None,1,0.6120128110051155,2.612854410894215,decreament,0.6,21,standard,None,100,,275.9898118991405,None,,,,,f,22,230,fr,r,0,raw,2022-07-07_10h38.51.154,oddball,2022.1.2,60.006828563631075,
10,,,,,0,0,0,2,2,0,2,0,1,0,1,0,,,,,,,,,,,,,,,,,289.5586878992617,None,290.1256702998653,290.72574499994516,290.70895039942116,292.70964869949967,None,1,0.6118510095402598,2.612549309618771,decreament,0.6,21,standard,None,100,,,,,,,,f,22,230,fr,r,0,raw,2022-07-07_10h38.51.154,oddball,2022.1.2,60.006828563631075,
10,,,,,0,0,0,2,2,0,2,0,2,0,2,0,,,,,,,,,,,,,,,,,292.72651969920844,None,293.29371819924563,293.8936592992395,293.87687229923904,295.87774849962443,None,1,0.6088641099631786,2.609773210249841,decreament,0.6,21,standard,None,100,,,,,,,,f,22,230,fr,r,0,raw,2022-07-07_10h38.51.154,oddball,2022.1.2,60.006828563631075,
10,,,,,0,0,0,2,2,0,2,0,3,0,3,0,,,,,,,,,,,,,,,,,295.89432049915195,None,296.4945918992162,297.0947400992736,297.078494399786,299.07913680002093,None,1,0.6148061100393534,2.6155266100540757,decreament,0.6,21,standard,None,100,,,,,,,,f,22,230,fr,r,0,raw,2022-07-07_10h38.51.154,oddball,2022.1.2,60.006828563631075,
10,,,,,0,0,0,2,2,0,2,0,4,0,4,0,,,,,,,,,,,,,,,,,299.096017899923,None,299.8125297995284,300.4128648992628,300.3965550996363,302.39679209981114,None,1,0.6129210097715259,2.6131532099097967,decreament,0.6,21,standard,None,100,,,,,,,,f,22,230,fr,r,0,raw,2022-07-07_10h38.51.154,oddball,2022.1.2,60.006828563631075,
10,,,,,0,0,0,2,2,0,2,0,5,0,5,0,,,,,,,,,,,,,,,,,302.41349979955703,None,303.01349839940667,303.61398899927735,303.597618999891,305.59802969917655,None,1,0.6144690103828907,2.6148934103548527,decreament,0.6,21,standard,None,100,,,,,,,,f,22,230,fr,r,0,raw,2022-07-07_10h38.51.154,oddball,2022.1.2,60.006828563631075,
10,,,,,0,0,0,2,2,0,2,0,6,0,6,0,,,,,,,,,,,,,,,,,305.61520419921726,None,306.21494890004396,306.8151191994548,306.7984670000151,308.7991627994925,None,1,0.6130733098834753,2.6137809101492167,decreament,0.6,21,standard,None,100,,,,,,,,f,22,230,fr,r,0,raw,2022-07-07_10h38.51.154,oddball,2022.1.2,60.006828563631075,
10,,,,,0,0,0,2,2,0,2,0,7,0,7,0,,,,,,,,,,,,,,,,,308.81616909988225,None,309.3998946994543,309.999876299873,309.98364819958806,311.9840662991628,None,1,0.611342710442841,2.6117068100720644,decreament,0.6,21,standard,None,100,,,,,,,,f,22,230,fr,r,0,raw,2022-07-07_10h38.51.154,oddball,2022.1.2,60.006828563631075,
10,,,,,0,0,0,2,2,0,2,0,8,0,8,0,,,,,,,,,,,,,,,,,312.00059569999576,None,312.61740879993886,313.1013588998467,313.06811719946563,315.0685922000557,None,0,0.47934461012482643,2.479775309562683,decreament,0.48,24,oddball,j,80,,,,,,,,f,22,230,fr,r,0,raw,2022-07-07_10h38.51.154,oddball,2022.1.2,60.006828563631075,
10,,,,,0,0,0,2,2,0,2,0,9,0,9,0,,,,,,,,,,,,,,,,,315.0850465996191,None,315.6188238998875,316.21862979978323,316.20218080002815,318.2030741991475,None,1,0.6110582109540701,2.611935610882938,decreament,0.6,21,standard,None,100,,,,,,,,f,22,230,fr,r,0,raw,2022-07-07_10h38.51.154,oddball,2022.1.2,60.006828563631075,
10,,,,,0,0,0,2,2,0,2,0,10,0,10,0,,,,,,,,,,,,,,,,,318.219664699398,None,318.77021519932896,319.3700111992657,319.3532984992489,321.3542310995981,None,1,0.6093019098043442,2.610251009464264,decreament,0.6,21,standard,None,100,,,,,,,,f,22,230,fr,r,0,raw,2022-07-07_10h38.51.154,oddball,2022.1.2,60.006828563631075,
10,,,,,0,0,0,2,2,0,2,0,11,0,11,0,,,,,,,,,,,,,,,,,321.3706804998219,None,321.9374565994367,322.53786629997194,322.5213298993185,324.52214359957725,None,1,0.6134995091706514,2.6143380096182227,decreament,0.6,21,standard,None,100,,,,,,,,f,22,230,fr,r,0,raw,2022-07-07_10h38.51.154,oddball,2022.1.2,60.006828563631075,
10,,,,,0,0,0,2,2,0,2,0,12,0,12,0,,,,,,,,,,,,,,,,,324.5384724000469,None,325.1557252993807,325.7559599997476,325.73921999987215,327.73955389950424,None,1,0.6089052110910416,2.609144610352814,decreament,0.6,21,standard,None,100,,,,,,,,f,22,230,fr,r,0,raw,2022-07-07_10h38.51.154,oddball,2022.1.2,60.006828563631075,
10,,,,,0,0,0,2,2,0,2,0,13,0,13,0,,,,,,,,,,,,,,,,,327.7563759991899,None,328.29023539926857,328.6569361994043,328.623687999323,330.6242306996137,j,1,0.36192040983587503,2.3624576097354293,decreament,0.36,23,oddball,j,60,0.5870010005310178,,,,,,,f,22,230,fr,r,0,raw,2022-07-07_10h38.51.154,oddball,2022.1.2,60.006828563631075,
10,,,,,0,0,0,2,2,0,2,0,14,0,14,0,,,,,,,,,,,,,,,,,330.6408110996708,None,331.25784109998494,331.8578966995701,331.8417224995792,333.84206119924784,None,1,0.6125422110781074,2.612918211147189,decreament,0.6,21,standard,None,100,,,,,,,,f,22,230,fr,r,0,raw,2022-07-07_10h38.51.154,oddball,2022.1.2,60.006828563631075,
10,,,,,0,0,0,2,2,0,2,0,15,0,15,0,,,,,,,,,,,,,,,,,333.8587410999462,None,334.57585070002824,335.176526799798,335.1596122998744,337.16022169962525,None,1,0.609572010114789,2.6101654106751084,decreament,0.6,21,standard,None,100,,,,,,,,f,22,230,fr,r,0,raw,2022-07-07_10h38.51.154,oddball,2022.1.2,60.006828563631075,
10,,,,,0,0,0,2,2,0,2,0,16,0,16,0,,,,,,,,,,,,,,,,,337.17667109984905,None,337.8602955993265,338.460463299416,338.44418319966644,340.4446004992351,None,1,0.612124309875071,2.6124636102467775,decreament,0.6,21,standard,None,100,,,,,,,,f,22,230,fr,r,0,raw,2022-07-07_10h38.51.154,oddball,2022.1.2,60.006828563631075,
10,,,,,0,0,0,2,2,0,2,0,17,0,17,0,,,,,,,,,,,,,,,,,340.4612296000123,None,341.02832969930023,341.6284778993577,341.61193729937077,343.6126397997141,None,1,0.6113222101703286,2.6120834099128842,decreament,0.6,21,standard,None,100,,,,,,,,f,22,230,fr,r,0,raw,2022-07-07_10h38.51.154,oddball,2022.1.2,60.006828563631075,
10,,,,,0,0,0,2,2,0,2,0,18,0,18,0,,,,,,,,,,,,,,,,,343.62952319998294,None,344.32939559966326,344.929670099169,344.9131481992081,346.9137374991551,None,1,0.6132072107866406,2.6137661105021834,decreament,0.6,21,standard,None,100,,,,,,,,f,22,230,fr,r,0,raw,2022-07-07_10h38.51.154,oddball,2022.1.2,60.006828563631075,
10,,,,,0,0,0,2,2,0,2,0,19,0,19,0,,,,,,,,,,,,,,,,,346.93039019964635,None,347.64747589919716,348.24740029964596,348.23076569940895,350.2321737995371,None,1,0.6119487099349499,2.6134934099391103,decreament,0.6,21,standard,None,100,,,,,,,,f,22,230,fr,r,0,raw,2022-07-07_10h38.51.154,oddball,2022.1.2,60.006828563631075,
10,,,,,0,0,0,2,2,0,2,0,20,0,20,0,,,,,,,,,,,,,,,,,350.24907299969345,None,350.8988253995776,351.4990310994908,351.48210289981216,353.4828317994252,None,1,0.6087763104587793,2.609502511098981,decreament,0.6,21,standard,None,100,,,,,,,,f,22,230,fr,r,0,raw,2022-07-07_10h38.51.154,oddball,2022.1.2,60.006828563631075,
10,,,,,0,0,0,2,2,0,2,0,21,0,21,0,,,,,,,,,,,,,,,,,353.4994622999802,None,354.14993449952453,354.7499477993697,354.73345549963415,356.73388339951634,None,1,0.6087932102382183,2.60922241024673,decreament,0.6,21,standard,None,100,,,,,,,,f,22,230,fr,r,0,raw,2022-07-07_10h38.51.154,oddball,2022.1.2,60.006828563631075,
10,,,,,0,0,0,2,2,0,2,0,22,0,22,0,,,,,,,,,,,,,,,,,356.7505524996668,None,357.3512907996774,357.9514584997669,357.9348385995254,359.93570559937507,None,1,0.6122734099626541,2.613156009465456,decreament,0.6,21,standard,None,100,,,,,,,,f,22,230,fr,r,0,raw,2022-07-07_10h38.51.154,oddball,2022.1.2,60.006828563631075,
10,,,,,0,0,0,2,2,0,2,0,23,0,23,0,,,,,,,,,,,,,,,,,359.95224929973483,None,360.5522324992344,361.1525794994086,361.13603489939123,363.13639009930193,None,1,0.6124471100047231,2.6128133106976748,decreament,0.6,21,standard,None,100,,,,,,,,f,22,230,fr,r,0,raw,2022-07-07_10h38.51.154,oddball,2022.1.2,60.006828563631075,
10,,,,,0,0,0,2,2,0,2,0,24,0,24,0,,,,,,,,,,,,,,,,,363.1532425992191,None,363.9533393997699,364.203213499859,364.1699265995994,366.1710575995967,j,1,0.24523950926959515,2.2464448092505336,decreament,0.24,22,oddball,j,40,0.5849139001220465,,,,,,,f,22,230,fr,r,0,raw,2022-07-07_10h38.51.154,oddball,2022.1.2,60.006828563631075,
10,,,,,0,0,0,2,2,0,2,0,25,0,25,0,,,,,,,,,,,,,,,,,366.1876437999308,None,366.87122430000454,367.4713328992948,367.4548307992518,369.45535219926387,None,1,0.6119268098846078,2.6124224103987217,decreament,0.6,21,standard,None,100,,,,,,,,f,22,230,fr,r,0,raw,2022-07-07_10h38.51.154,oddball,2022.1.2,60.006828563631075,
10,,,,,0,0,0,2,2,0,2,0,26,0,26,0,,,,,,,,,,,,,,,,,369.47207909915596,None,370.0894347997382,370.68923349957913,370.67275109980255,372.6740179993212,None,1,0.6115310098975897,2.612851809710264,decreament,0.6,21,standard,None,100,,,,,,,,f,22,230,fr,r,0,raw,2022-07-07_10h38.51.154,oddball,2022.1.2,60.006828563631075,
10,,,,,0,0,0,2,2,0,2,0,27,0,27,0,,,,,,,,,,,,,,,,,372.6903352998197,None,373.37355909962207,373.9739914992824,373.95753839984536,375.95776619948447,None,1,0.6142191104590893,2.6144499108195305,decreament,0.6,21,standard,None,100,,,,,,,,f,22,230,fr,r,0,raw,2022-07-07_10h38.51.154,oddball,2022.1.2,60.006828563631075,
10,,,,,0,0,0,2,2,0,2,0,28,0,28,0,,,,,,,,,,,,,,,,,375.9746113996953,None,376.7252775998786,377.32512419950217,377.30862459912896,379.3093337994069,None,1,0.6119875097647309,2.6127092093229294,decreament,0.6,21,standard,None,100,,,,,,,,f,22,230,fr,r,0,raw,2022-07-07_10h38.51.154,oddball,2022.1.2,60.006828563631075,
10,,,,,0,0,0,2,2,0,2,0,29,0,29,0,,,,,,,,,,,,,,,,,379.3259892994538,None,379.8595560993999,380.4596680998802,380.4429185995832,382.4437930993736,None,1,0.6122795091941953,2.613179909065366,decreament,0.6,21,standard,None,100,,,,,,,,f,22,230,fr,r,0,raw,2022-07-07_10h38.51.154,oddball,2022.1.2,60.006828563631075,
10,,,,,0,0,0,2,3,0,3,0,0,0,0,0,,,,,,,,,,,,,,,390.96504339948297,None,392.33097729925066,None,392.94782949984074,393.54796719923615,393.5311431000009,395.5323326997459,None,1,0.60808131005615,2.6093251099810004,increament,0.6,25,standard,None,100,,382.4607940996066,None,,,,,f,22,230,fr,r,0,raw,2022-07-07_10h38.51.154,oddball,2022.1.2,60.006828563631075,
10,,,,,0,0,0,2,3,0,3,0,1,0,1,0,,,,,,,,,,,,,,,,,395.5487181991339,None,396.2159652998671,396.8157848995179,396.7993007991463,398.8006213000044,None,1,0.6125164106488228,2.613893510773778,increament,0.6,25,standard,None,100,,,,,,,,f,22,230,fr,r,0,raw,2022-07-07_10h38.51.154,oddball,2022.1.2,60.006828563631075,
10,,,,,0,0,0,2,3,0,3,0,2,0,2,0,,,,,,,,,,,,,,,,,398.81657839939,None,399.41726699937135,400.0174039993435,400.000405899249,402.0012311991304,None,1,0.611483309417963,2.6123196091502905,increament,0.6,25,standard,None,100,,,,,,,,f,22,230,fr,r,0,raw,2022-07-07_10h38.51.154,oddball,2022.1.2,60.006828563631075,
10,,,,,0,0,0,2,3,0,3,0,3,0,3,0,,,,,,,,,,,,,,,,,402.018266399391,None,402.70179469976574,403.30156719964,403.2850773995742,405.28590200003237,None,1,0.6114477086812258,2.6123050088062882,increament,0.6,25,standard,None,100,,,,,,,,f,22,230,fr,r,0,raw,2022-07-07_10h38.51.154,oddball,2022.1.2,60.006828563631075,
10,,,,,0,0,0,2,3,0,3,0,4,0,4,0,,,,,,,,,,,,,,,,,405.30246749985963,None,405.9027811996639,406.5033886991441,406.48638310004026,408.4872065000236,None,1,0.6134360088035464,2.614232408814132,increament,0.6,25,standard,None,100,,,,,,,,f,22,230,fr,r,0,raw,2022-07-07_10h38.51.154,oddball,2022.1.2,60.006828563631075,
10,,,,,0,0,0,2,3,0,3,0,5,0,5,0,,,,,,,,,,,,,,,,,408.50393039919436,None,409.0874316999689,409.6874217996374,409.67110669985414,411.67209679912776,None,1,0.6121085099875927,2.613092410378158,increament,0.6,25,standard,None,100,,,,,,,,f,22,230,fr,r,0,raw,2022-07-07_10h38.51.154,oddball,2022.1.2,60.006828563631075,
10,,,,,0,0,0,2,3,0,3,0,6,0,6,0,,,,,,,,,,,,,,,,,411.68828339967877,None,412.5056843999773,413.1054799994454,413.08880679961294,415.08963549975306,None,1,0.6091361101716757,2.6099502108991146,increament,0.6,25,standard,None,100,,,,,,,,f,22,230,fr,r,0,raw,2022-07-07_10h38.51.154,oddball,2022.1.2,60.006828563631075,
10,,,,,0,0,0,2,3,0,3,0,7,0,7,0,,,,,,,,,,,,,,,,,415.1061314996332,None,415.7728470992297,416.37321290001273,416.3568134000525,418.3572534993291,None,1,0.6144273104146123,2.61486651096493,increament,0.6,25,standard,None,100,,,,,,,,f,22,230,fr,r,0,raw,2022-07-07_10h38.51.154,oddball,2022.1.2,60.006828563631075,
10,,,,,0,0,0,2,3,0,3,0,8,0,8,0,,,,,,,,,,,,,,,,,418.3743297997862,None,418.9910111995414,419.59124809969217,419.574835899286,421.575343599543,None,1,0.6123604094609618,2.612803009338677,increament,0.6,25,standard,None,100,,,,,,,,f,22,230,fr,r,0,raw,2022-07-07_10h38.51.154,oddball,2022.1.2,60.006828563631075,
10,,,,,0,0,0,2,3,0,3,0,9,0,9,0,,,,,,,,,,,,,,,,,421.5920455995947,None,422.3092698995024,423.2759556993842,423.24262789916247,425.2435288997367,j,1,0.9609861094504595,2.961928109638393,increament,0.96,28,oddball,j,160,0.39982100017368793,,,,,,,f,22,230,fr,r,0,raw,2022-07-07_10h38.51.154,oddball,2022.1.2,60.006828563631075,
10,,,,,0,0,0,2,3,0,3,0,10,0,10,0,,,,,,,,,,,,,,,,,425.2601216994226,None,425.87724759988487,426.4773777993396,426.460489699617,428.46110439952463,None,1,0.608968710526824,2.609586810693145,increament,0.6,25,standard,None,100,,,,,,,,f,22,230,fr,r,0,raw,2022-07-07_10h38.51.154,oddball,2022.1.2,60.006828563631075,
10,,,,,0,0,0,2,3,0,3,0,11,0,11,0,,,,,,,,,,,,,,,,,428.47812350001186,None,429.1449428992346,429.74538359977305,429.72871469985694,431.729500499554,None,1,0.6136248102411628,2.6143904104828835,increament,0.6,25,standard,None,100,,,,,,,,f,22,230,fr,r,0,raw,2022-07-07_10h38.51.154,oddball,2022.1.2,60.006828563631075,
10,,,,,0,0,0,2,3,0,3,0,12,0,12,0,,,,,,,,,,,,,,,,,431.74581229966134,None,432.39639359992,432.99657459929585,432.9799133995548,434.98068959917873,None,1,0.6126890098676085,2.6134609105065465,increament,0.6,25,standard,None,100,,,,,,,,f,22,230,fr,r,0,raw,2022-07-07_10h38.51.154,oddball,2022.1.2,60.006828563631075,
10,,,,,0,0,0,2,3,0,3,0,13,0,13,0,,,,,,,,,,,,,,,,,434.99693719949573,None,435.53053229954094,436.13077980000526,436.11450959928334,438.11507369950414,None,1,0.6147888097912073,2.6153612099587917,increament,0.6,25,standard,None,100,,,,,,,,f,22,230,fr,r,0,raw,2022-07-07_10h38.51.154,oddball,2022.1.2,60.006828563631075,
10,,,,,0,0,0,2,3,0,3,0,14,0,14,0,,,,,,,,,,,,,,,,,438.13159299921244,None,438.76567999925464,439.3652695994824,439.3489667000249,441.3493800992146,None,1,0.6092512095347047,2.609658509492874,increament,0.6,25,standard,None,100,,,,,,,,f,22,230,fr,r,0,raw,2022-07-07_10h38.51.154,oddball,2022.1.2,60.006828563631075,
10,,,,,0,0,0,2,3,0,3,0,15,0,15,0,,,,,,,,,,,,,,,,,441.36619199998677,None,441.9498914992437,442.550338299945,442.5334663996473,444.5338469995186,None,1,0.6117349099367857,2.6120370104908943,increament,0.6,25,standard,None,100,,,,,,,,f,22,230,fr,r,0,raw,2022-07-07_10h38.51.154,oddball,2022.1.2,60.006828563631075,
10,,,,,0,0,0,2,3,0,3,0,16,0,16,0,,,,,,,,,,,,,,,,,444.5506909992546,None,445.3179819993675,445.91795809939504,445.90135499928147,447.9019416999072,None,1,0.6109173111617565,2.611286411061883,increament,0.6,25,standard,None,100,,,,,,,,f,22,230,fr,r,0,raw,2022-07-07_10h38.51.154,oddball,2022.1.2,60.006828563631075,
10,,,,,0,0,0,2,3,0,3,0,17,0,17,0,,,,,,,,,,,,,,,,,447.9190037995577,None,448.5027817999944,449.1023208992556,449.0856707999483,451.0866778995842,None,1,0.6103135105222464,2.611381510272622,increament,0.6,25,standard,None,100,,,,,,,,f,22,230,fr,r,0,raw,2022-07-07_10h38.51.154,oddball,2022.1.2,60.006828563631075,
10,,,,,0,0,0,2,3,0,3,0,18,0,18,0,,,,,,,,,,,,,,,,,451.1031964998692,None,451.8202711995691,452.67036179918796,452.6375078000128,454.6381093999371,None,0,0.8454232094809413,2.846012409776449,increament,0.84,27,oddball,j,140,,,,,,,,f,22,230,fr,r,0,raw,2022-07-07_10h38.51.154,oddball,2022.1.2,60.006828563631075,
10,,,,,0,0,0,2,3,0,3,0,19,0,19,0,,,,,,,,,,,,,,,,,454.6544778998941,None,455.3882301999256,455.9884246997535,455.9718573000282,457.9729663999751,None,1,0.6122817108407617,2.613476810976863,increament,0.6,25,standard,None,100,,,,,,,,f,22,230,fr,r,0,raw,2022-07-07_10h38.51.154,oddball,2022.1.2,60.006828563631075,
10,,,,,0,0,0,2,3,0,3,0,20,0,20,0,,,,,,,,,,,,,,,,,457.9898415999487,None,458.77305989991874,459.37302319984883,459.3562794998288,461.35728339944035,None,1,0.6094128107652068,2.610471410676837,increament,0.6,25,standard,None,100,,,,,,,,f,22,230,fr,r,0,raw,2022-07-07_10h38.51.154,oddball,2022.1.2,60.006828563631075,
10,,,,,0,0,0,2,3,0,3,0,21,0,21,0,,,,,,,,,,,,,,,,,461.3738428996876,None,462.0411105994135,462.640837199986,462.6247663991526,464.6251809997484,None,1,0.6116233104839921,2.6120226103812456,increament,0.6,25,standard,None,100,,,,,,,,f,22,230,fr,r,0,raw,2022-07-07_10h38.51.154,oddball,2022.1.2,60.006828563631075,
10,,,,,0,0,0,2,3,0,3,0,22,0,22,0,,,,,,,,,,,,,,,,,464.64235009998083,None,465.3083564992994,465.9088081996888,465.89255320001394,467.89280779939145,None,1,0.6141333095729351,2.614286409690976,increament,0.6,25,standard,None,100,,,,,,,,f,22,230,fr,r,0,raw,2022-07-07_10h38.51.154,oddball,2022.1.2,60.006828563631075,
10,,,,,0,0,0,2,3,0,3,0,23,0,23,0,,,,,,,,,,,,,,,,,467.9093761993572,None,468.5264925993979,469.1271604998037,469.11031379923224,471.1113440999761,None,1,0.6137661095708609,2.6148160099983215,increament,0.6,25,standard,None,100,,,,,,,,f,22,230,fr,r,0,raw,2022-07-07_10h38.51.154,oddball,2022.1.2,60.006828563631075,
10,,,,,0,0,0,2,3,0,3,0,24,0,24,0,,,,,,,,,,,,,,,,,471.1274311998859,None,471.82793759927154,472.42790879961103,472.41113019920886,474.41182629950345,None,1,0.6118036098778248,2.6124827098101377,increament,0.6,25,standard,None,100,,,,,,,,f,22,230,fr,r,0,raw,2022-07-07_10h38.51.154,oddball,2022.1.2,60.006828563631075,
10,,,,,0,0,0,2,3,0,3,0,25,0,25,0,,,,,,,,,,,,,,,,,474.42854409944266,None,475.12927999999374,475.7294103996828,475.7128408998251,477.71351089980453,None,1,0.6094280099496245,2.610114710405469,increament,0.6,25,standard,None,100,,,,,,,,f,22,230,fr,r,0,raw,2022-07-07_10h38.51.154,oddball,2022.1.2,60.006828563631075,
10,,,,,0,0,0,2,3,0,3,0,26,0,26,0,,,,,,,,,,,,,,,,,477.7299138000235,None,478.41383579932153,479.01368259917945,478.9975499995053,480.99795809946954,None,1,0.6101460112258792,2.6105516105890274,increament,0.6,25,standard,None,100,,,,,,,,f,22,230,fr,r,0,raw,2022-07-07_10h38.51.154,oddball,2022.1.2,60.006828563631075,
10,,,,,0,0,0,2,3,0,3,0,27,0,27,0,,,,,,,,,,,,,,,,,481.01453169994056,None,481.5813550995663,482.3152574999258,482.2818219996989,484.28200919926167,None,0,0.7297895094379783,2.7298829089850187,increament,0.72,26,oddball,j,120,,,,,,,,f,22,230,fr,r,0,raw,2022-07-07_10h38.51.154,oddball,2022.1.2,60.006828563631075,
10,,,,,0,0,0,2,3,0,3,0,28,0,28,0,,,,,,,,,,,,,,,,,484.2986821997911,None,484.9327438995242,485.5331985997036,485.51629229914397,487.51740289945155,None,1,0.6124020107090473,2.6135558104142547,increament,0.6,25,standard,None,100,,,,,,,,f,22,230,fr,r,0,raw,2022-07-07_10h38.51.154,oddball,2022.1.2,60.006828563631075,
10,,,,,0,0,0,2,3,0,3,0,29,0,29,0,,,,,,,,,,,,,,,,,487.533694899641,None,488.2005182998255,488.80070419982076,488.7843798995018,490.7847785996273,None,1,0.612080710940063,2.6125012105330825,increament,0.6,25,standard,None,100,,,,,,,,f,22,230,fr,r,0,raw,2022-07-07_10h38.51.154,oddball,2022.1.2,60.006828563631075,
10,,,,,0,0,0,2,4,0,4,0,0,0,0,0,,,,,,,,,,,,,,,502.1816632999107,None,504.7735111992806,None,505.37362089939415,505.9738141996786,505.95753209944814,507.95840619970113,None,1,0.6131380097940564,2.6140513103455305,decreament,0.6,21,standard,None,100,,490.8015431994572,None,,,,,f,22,230,fr,r,0,raw,2022-07-07_10h38.51.154,oddball,2022.1.2,60.006828563631075,
10,,,,,0,0,0,2,4,0,4,0,1,0,1,0,,,,,,,,,,,,,,,,,507.9745776997879,None,508.75857609976083,509.3585218992084,509.3418378997594,511.34296509996057,None,1,0.6106183091178536,2.611836208961904,decreament,0.6,21,standard,None,100,,,,,,,,f,22,230,fr,r,0,raw,2022-07-07_10h38.51.154,oddball,2022.1.2,60.006828563631075,
10,,,,,0,0,0,2,4,0,4,0,2,0,2,0,,,,,,,,,,,,,,,,,511.3608659999445,None,511.99286849983037,512.5928191998973,512.5761606991291,514.5771373994648,None,1,0.6133796107023954,2.614387311041355,decreament,0.6,21,standard,None,100,,,,,,,,f,22,230,fr,r,0,raw,2022-07-07_10h38.51.154,oddball,2022.1.2,60.006828563631075,
10,,,,,0,0,0,2,4,0,4,0,3,0,3,0,,,,,,,,,,,,,,,,,514.5938702998683,None,515.2440031999722,515.8445260999724,515.8278751997277,517.8287414992228,None,1,0.6133208097890019,2.614191509783268,decreament,0.6,21,standard,None,100,,,,,,,,f,22,230,fr,r,0,raw,2022-07-07_10h38.51.154,oddball,2022.1.2,60.006828563631075,
10,,,,,0,0,0,2,4,0,4,0,4,0,4,0,,,,,,,,,,,,,,,,,517.8450503991917,None,518.3620585994795,518.96209549997,518.9455693997443,520.9463588995859,None,1,0.6116590090095997,2.612512309104204,decreament,0.6,21,standard,None,100,,,,,,,,f,22,230,fr,r,0,raw,2022-07-07_10h38.51.154,oddball,2022.1.2,60.006828563631075,
10,,,,,0,0,0,2,4,0,4,0,5,0,5,0,,,,,,,,,,,,,,,,,520.9632019000128,None,521.6632856000215,522.1466309996322,522.1299512991682,524.1307245995849,None,0,0.4945498099550605,2.4953302098438144,decreament,0.48,24,oddball,j,80,,,,,,,,f,22,230,fr,r,0,raw,2022-07-07_10h38.51.154,oddball,2022.1.2,60.006828563631075,
10,,,,,0,0,0,2,4,0,4,0,6,0,6,0,,,,,,,,,,,,,,,,,524.1478602997959,None,524.9480975000188,525.5478953998536,525.5313494997099,527.5324972998351,None,1,0.612276709638536,2.61349730938673,decreament,0.6,21,standard,None,100,,,,,,,,f,22,230,fr,r,0,raw,2022-07-07_10h38.51.154,oddball,2022.1.2,60.006828563631075,
10,,,,,0,0,0,2,4,0,4,0,7,0,7,0,,,,,,,,,,,,,,,,,527.5486058993265,None,528.1828374993056,528.7827232992277,528.765911899507,530.7668150998652,None,1,0.6091871103271842,2.6101235104724765,decreament,0.6,21,standard,None,100,,,,,,,,f,22,230,fr,r,0,raw,2022-07-07_10h38.51.154,oddball,2022.1.2,60.006828563631075,
10,,,,,0,0,0,2,4,0,4,0,8,0,8,0,,,,,,,,,,,,,,,,,530.783476899378,None,531.4669012995437,532.0670854998752,532.0505992993712,534.0516935996711,None,1,0.6118531096726656,2.6130128102377057,decreament,0.6,21,standard,None,100,,,,,,,,f,22,230,fr,r,0,raw,2022-07-07_10h38.51.154,oddball,2022.1.2,60.006828563631075,
10,,,,,0,0,0,2,4,0,4,0,9,0,9,0,,,,,,,,,,,,,,,,,534.0683535998687,None,534.7849925998598,535.3852874999866,535.3687574993819,537.3694314993918,None,1,0.6103448113426566,2.61102251149714,decreament,0.6,21,standard,None,100,,,,,,,,f,22,230,fr,r,0,raw,2022-07-07_10h38.51.154,oddball,2022.1.2,60.006828563631075,
10,,,,,0,0,0,2,4,0,4,0,10,0,10,0,,,,,,,,,,,,,,,,,537.3859088998288,None,538.0863391999155,538.6863307999447,538.6697976998985,540.6705297995359,None,1,0.6127617107704282,2.6135019110515714,decreament,0.6,21,standard,None,100,,,,,,,,f,22,230,fr,r,0,raw,2022-07-07_10h38.51.154,oddball,2022.1.2,60.006828563631075,
10,,,,,0,0,0,2,4,0,4,0,11,0,11,0,,,,,,,,,,,,,,,,,540.6872492991388,None,541.3206539992243,541.9209881993011,541.9045462999493,543.904948499985,None,1,0.613831709139049,2.614140009507537,decreament,0.6,21,standard,None,100,,,,,,,,f,22,230,fr,r,0,raw,2022-07-07_10h38.51.154,oddball,2022.1.2,60.006828563631075,
10,,,,,0,0,0,2,4,0,4,0,12,0,12,0,,,,,,,,,,,,,,,,,543.9214423997328,None,544.48833549954,544.8556971000507,544.8224288998172,546.8230693992227,j,1,0.3640447100624442,2.364659110084176,decreament,0.36,23,oddball,j,60,0.540077599696815,,,,,,,f,22,230,fr,r,0,raw,2022-07-07_10h38.51.154,oddball,2022.1.2,60.006828563631075,
10,,,,,0,0,0,2,4,0,4,0,13,0,13,0,,,,,,,,,,,,,,,,,546.8395278993994,None,547.5398439997807,548.1400766996667,548.123472799547,550.1242399998009,None,1,0.6095483098179102,2.610332109965384,decreament,0.6,21,standard,None,100,,,,,,,,f,22,230,fr,r,0,raw,2022-07-07_10h38.51.154,oddball,2022.1.2,60.006828563631075,
10,,,,,0,0,0,2,4,0,4,0,14,0,14,0,,,,,,,,,,,,,,,,,550.1409115996212,None,550.7745735999197,551.374441399239,551.3581199999899,553.3590503996238,None,1,0.6130111096426845,2.6139782099053264,decreament,0.6,21,standard,None,100,,,,,,,,f,22,230,fr,r,0,raw,2022-07-07_10h38.51.154,oddball,2022.1.2,60.006828563631075,
10,,,,,0,0,0,2,4,0,4,0,15,0,15,0,,,,,,,,,,,,,,,,,553.3768425993621,None,553.9422309994698,554.542524700053,554.5255979998037,556.5266768997535,None,1,0.6077857101336122,2.608919709920883,decreament,0.6,21,standard,None,100,,,,,,,,f,22,230,fr,r,0,raw,2022-07-07_10h38.51.154,oddball,2022.1.2,60.006828563631075,
10,,,,,0,0,0,2,4,0,4,0,16,0,16,0,,,,,,,,,,,,,,,,,556.5434673000127,None,557.1772023998201,557.7768277991563,557.7602658998221,559.7615131996572,None,1,0.6107847103849053,2.612099009566009,decreament,0.6,21,standard,None,100,,,,,,,,f,22,230,fr,r,0,raw,2022-07-07_10h38.51.154,oddball,2022.1.2,60.006828563631075,
10,,,,,0,0,0,2,4,0,4,0,17,0,17,0,,,,,,,,,,,,,,,,,559.7779485993087,None,560.4783528996632,561.0783059997484,561.0614379998296,563.0625292994082,None,1,0.6131063094362617,2.6142415096983314,decreament,0.6,21,standard,None,100,,,,,,,,f,22,230,fr,r,0,raw,2022-07-07_10h38.51.154,oddball,2022.1.2,60.006828563631075,
10,,,,,0,0,0,2,4,0,4,0,18,0,18,0,,,,,,,,,,,,,,,,,563.0790606997907,None,563.8293879991397,564.4292323999107,564.4128479994833,566.413509699516,None,1,0.612165610305965,2.6128069097176194,decreament,0.6,21,standard,None,100,,,,,,,,f,22,230,fr,r,0,raw,2022-07-07_10h38.51.154,oddball,2022.1.2,60.006828563631075,
10,,,,,0,0,0,2,4,0,4,0,19,0,19,0,,,,,,,,,,,,,,,,,566.4300769995898,None,567.2140203993767,567.8141717994586,567.7975918995216,569.7985141994432,None,1,0.6115765096619725,2.6124921096488833,decreament,0.6,21,standard,None,100,,,,,,,,f,22,230,fr,r,0,raw,2022-07-07_10h38.51.154,oddball,2022.1.2,60.006828563631075,
10,,,,,0,0,0,2,4,0,4,0,20,0,20,0,,,,,,,,,,,,,,,,,569.8146959999576,None,570.4648012993857,571.0652457997203,571.0483742998913,573.0494398996234,None,1,0.6118442108854651,2.6129462104290724,decreament,0.6,21,standard,None,100,,,,,,,,f,22,230,fr,r,0,raw,2022-07-07_10h38.51.154,oddball,2022.1.2,60.006828563631075,
10,,,,,0,0,0,2,4,0,4,0,21,0,21,0,,,,,,,,,,,,,,,,,573.0662102997303,None,573.6997211994603,574.3000756995752,574.2831445997581,576.2840394992381,None,1,0.6124143097549677,2.6133410101756454,decreament,0.6,21,standard,None,100,,,,,,,,f,22,230,fr,r,0,raw,2022-07-07_10h38.51.154,oddball,2022.1.2,60.006828563631075,
10,,,,,0,0,0,2,4,0,4,0,22,0,22,0,,,,,,,,,,,,,,,,,576.3007670994848,None,577.1007711999118,577.351312299259,577.3178778998554,579.3187389997765,j,1,0.24793441034853458,2.2488493099808693,decreament,0.24,22,oddball,j,40,0.484239200130105,,,,,,,f,22,230,fr,r,0,raw,2022-07-07_10h38.51.154,oddball,2022.1.2,60.006828563631075,
10,,,,,0,0,0,2,4,0,4,0,23,0,23,0,,,,,,,,,,,,,,,,,579.3351094992831,None,579.9023295994848,580.502142499201,580.4860328994691,582.4861331991851,None,1,0.6097860094159842,2.6097938092425466,decreament,0.6,21,standard,None,100,,,,,,,,f,22,230,fr,r,0,raw,2022-07-07_10h38.51.154,oddball,2022.1.2,60.006828563631075,
10,,,,,0,0,0,2,4,0,4,0,24,0,24,0,,,,,,,,,,,,,,,,,582.5028605991974,None,583.1867628991604,583.7869740994647,583.770023599267,585.770799299702,None,1,0.6116253100335598,2.612397010438144,decreament,0.6,21,standard,None,100,,,,,,,,f,22,230,fr,r,0,raw,2022-07-07_10h38.51.154,oddball,2022.1.2,60.006828563631075,
10,,,,,0,0,0,2,4,0,4,0,25,0,25,0,,,,,,,,,,,,,,,,,585.7874540993944,None,586.4377396991476,587.0380339995027,587.0216003991663,589.0220171995461,None,1,0.612811210565269,2.6131631108000875,decreament,0.6,21,standard,None,100,,,,,,,,f,22,230,fr,r,0,raw,2022-07-07_10h38.51.154,oddball,2022.1.2,60.006828563631075,
10,,,,,0,0,0,2,4,0,4,0,26,0,26,0,,,,,,,,,,,,,,,,,589.0387644991279,None,589.7226620996371,590.3223525993526,590.3058005999774,592.3065772997215,None,1,0.6125497100874782,2.613347810693085,decreament,0.6,21,standard,None,100,,,,,,,,f,22,230,fr,r,0,raw,2022-07-07_10h38.51.154,oddball,2022.1.2,60.006828563631075,
10,,,,,0,0,0,2,4,0,4,0,27,0,27,0,,,,,,,,,,,,,,,,,592.3236308991909,None,593.0070929992944,593.6071501998231,593.5905693992972,595.5911979991943,None,1,0.6083770105615258,2.608986111357808,decreament,0.6,21,standard,None,100,,,,,,,,f,22,230,fr,r,0,raw,2022-07-07_10h38.51.154,oddball,2022.1.2,60.006828563631075,
10,,,,,0,0,0,2,4,0,4,0,28,0,28,0,,,,,,,,,,,,,,,,,595.6080268993974,None,596.2417297996581,596.841321199201,596.824805399403,598.8261213991791,None,1,0.608506110496819,2.609944110736251,decreament,0.6,21,standard,None,100,,,,,,,,f,22,230,fr,r,0,raw,2022-07-07_10h38.51.154,oddball,2022.1.2,60.006828563631075,
10,,,,,0,0,0,2,4,0,4,0,29,0,29,0,,,,,,,,,,,,,,,,,598.842768099159,None,599.4928533993661,600.0927131995559,600.0762406997383,602.0770055996254,None,1,0.6127875102683902,2.6135822106152773,decreament,0.6,21,standard,None,100,,,,,,,,f,22,230,fr,r,0,raw,2022-07-07_10h38.51.154,oddball,2022.1.2,60.006828563631075,
10,,,,,0,0,0,2,5,0,5,0,0,0,0,0,,,,,,,,,,,,,,,609.1371196992695,None,610.6635381998494,None,611.363999299705,611.9642146993428,611.9475242998451,613.9483964992687,None,1,0.6120224110782146,2.6129565108567476,increament,0.6,25,standard,None,100,,602.0942079992965,None,,,,,f,22,230,fr,r,0,raw,2022-07-07_10h38.51.154,oddball,2022.1.2,60.006828563631075,
10,,,,,0,0,0,2,5,0,5,0,1,0,1,0,,,,,,,,,,,,,,,,,613.9652048991993,None,614.7651498997584,615.3654004000127,615.3485830994323,617.3496495997533,None,1,0.6127298111096025,2.613862711004913,increament,0.6,25,standard,None,100,,,,,,,,f,22,230,fr,r,0,raw,2022-07-07_10h38.51.154,oddball,2022.1.2,60.006828563631075,
10,,,,,0,0,0,2,5,0,5,0,2,0,2,0,,,,,,,,,,,,,,,,,617.3661474995315,None,617.966394899413,618.5667555993423,618.5498838992789,620.551380799152,None,1,0.6118029104545712,2.6133965104818344,increament,0.6,25,standard,None,100,,,,,,,,f,22,230,fr,r,0,raw,2022-07-07_10h38.51.154,oddball,2022.1.2,60.006828563631075,
10,,,,,0,0,0,2,5,0,5,0,3,0,3,0,,,,,,,,,,,,,,,,,620.5683484999463,None,621.4012166997418,622.0014621997252,621.9849522998556,623.9857735997066,None,1,0.6113184103742242,2.6121722105890512,increament,0.6,25,standard,None,100,,,,,,,,f,22,230,fr,r,0,raw,2022-07-07_10h38.51.154,oddball,2022.1.2,60.006828563631075,
10,,,,,0,0,0,2,5,0,5,0,4,0,4,0,,,,,,,,,,,,,,,,,624.0019451994449,None,624.6188191995025,625.2193180993199,625.2027102997527,627.2034203000367,None,1,0.6137433098629117,2.6145146107301116,increament,0.6,25,standard,None,100,,,,,,,,f,22,230,fr,r,0,raw,2022-07-07_10h38.51.154,oddball,2022.1.2,60.006828563631075,
10,,,,,0,0,0,2,5,0,5,0,5,0,5,0,,,,,,,,,,,,,,,,,627.2208854993805,None,627.9533647997305,628.5537219997495,628.5371942995116,630.5376068996266,None,1,0.6139793088659644,2.614382308907807,increament,0.6,25,standard,None,100,,,,,,,,f,22,230,fr,r,0,raw,2022-07-07_10h38.51.154,oddball,2022.1.2,60.006828563631075,
10,,,,,0,0,0,2,5,0,5,0,6,0,6,0,,,,,,,,,,,,,,,,,630.5543831000105,None,631.2711870996282,631.8716325992718,631.8551678992808,633.8558205999434,None,1,0.6118970103561878,2.612611209973693,increament,0.6,25,standard,None,100,,,,,,,,f,22,230,fr,r,0,raw,2022-07-07_10h38.51.154,oddball,2022.1.2,60.006828563631075,
10,,,,,0,0,0,2,5,0,5,0,7,0,7,0,,,,,,,,,,,,,,,,,633.8731404999271,None,634.4393556993455,635.0395992994308,635.0230247993022,637.0236883992329,None,1,0.6111983098089695,2.611830810084939,increament,0.6,25,standard,None,100,,,,,,,,f,22,230,fr,r,0,raw,2022-07-07_10h38.51.154,oddball,2022.1.2,60.006828563631075,
10,,,,,0,0,0,2,5,0,5,0,8,0,8,0,,,,,,,,,,,,,,,,,637.040388699621,None,637.640460900031,638.3741106996313,638.3408739995211,640.3415319994092,None,0,0.7308163102716208,2.731451810337603,increament,0.72,26,oddball,j,120,,,,,,,,f,22,230,fr,r,0,raw,2022-07-07_10h38.51.154,oddball,2022.1.2,60.006828563631075,
10,,,,,0,0,0,2,5,0,5,0,9,0,9,0,,,,,,,,,,,,,,,,,640.358315099962,None,641.058468199335,641.6587447999045,641.6420956999063,643.6428307993338,None,1,0.6134932097047567,2.6142349103465676,increament,0.6,25,standard,None,100,,,,,,,,f,22,230,fr,r,0,raw,2022-07-07_10h38.51.154,oddball,2022.1.2,60.006828563631075,
10,,,,,0,0,0,2,5,0,5,0,10,0,10,0,,,,,,,,,,,,,,,,,643.6594272991642,None,644.3097690995783,644.9097836995497,644.893428299576,646.8937395997345,None,1,0.6124487100169063,2.612744309939444,increament,0.6,25,standard,None,100,,,,,,,,f,22,230,fr,r,0,raw,2022-07-07_10h38.51.154,oddball,2022.1.2,60.006828563631075,
10,,,,,0,0,0,2,5,0,5,0,11,0,11,0,,,,,,,,,,,,,,,,,646.9106287993491,None,647.5943049993366,648.1944811996073,648.1779065998271,650.178779299371,None,1,0.6103252116590738,2.611241311766207,increament,0.6,25,standard,None,100,,,,,,,,f,22,230,fr,r,0,raw,2022-07-07_10h38.51.154,oddball,2022.1.2,60.006828563631075,
10,,,,,0,0,0,2,5,0,5,0,12,0,12,0,,,,,,,,,,,,,,,,,650.1953625995666,None,650.8288535997272,651.4291615998372,651.4124032994732,653.4130996000022,None,1,0.6092886095866561,2.6099848095327616,increament,0.6,25,standard,None,100,,,,,,,,f,22,230,fr,r,0,raw,2022-07-07_10h38.51.154,oddball,2022.1.2,60.006828563631075,
10,,,,,0,0,0,2,5,0,5,0,13,0,13,0,,,,,,,,,,,,,,,,,653.4297765996307,None,654.0637948997319,654.6636779997498,654.6471340991557,656.6481882994995,None,1,0.609381609596312,2.610471609979868,increament,0.6,25,standard,None,100,,,,,,,,f,22,230,fr,r,0,raw,2022-07-07_10h38.51.154,oddball,2022.1.2,60.006828563631075,
10,,,,,0,0,0,2,5,0,5,0,14,0,14,0,,,,,,,,,,,,,,,,,656.6643742993474,None,657.3643567999825,658.214806699194,658.1816813992336,660.1826650993899,j,1,0.8476276099681854,2.8486855095252395,increament,0.84,27,oddball,j,140,0.7481220997869968,,,,,,,f,22,230,fr,r,0,raw,2022-07-07_10h38.51.154,oddball,2022.1.2,60.006828563631075,
10,,,,,0,0,0,2,5,0,5,0,15,0,15,0,,,,,,,,,,,,,,,,,660.2003494994715,None,660.7492600996047,661.3493647994474,661.333166799508,663.3336710995063,None,1,0.611312210559845,2.6118156109005213,increament,0.6,25,standard,None,100,,,,,,,,f,22,230,fr,r,0,raw,2022-07-07_10h38.51.154,oddball,2022.1.2,60.006828563631075,
10,,,,,0,0,0,2,5,0,5,0,16,0,16,0,,,,,,,,,,,,,,,,,663.3501887992024,None,664.0004952996969,664.6005651997402,664.583986999467,666.5847603995353,None,1,0.6114936098456383,2.6122425105422735,increament,0.6,25,standard,None,100,,,,,,,,f,22,230,fr,r,0,raw,2022-07-07_10h38.51.154,oddball,2022.1.2,60.006828563631075,
10,,,,,0,0,0,2,5,0,5,0,17,0,17,0,,,,,,,,,,,,,,,,,666.6013572998345,None,667.2849974995479,667.8857852993533,667.8691115994006,669.8694733995944,None,1,0.613792410120368,2.6141198109835386,increament,0.6,25,standard,None,100,,,,,,,,f,22,230,fr,r,0,raw,2022-07-07_10h38.51.154,oddball,2022.1.2,60.006828563631075,
10,,,,,0,0,0,2,5,0,5,0,18,0,18,0,,,,,,,,,,,,,,,,,669.8862082995474,None,670.6535573992878,671.6202118992805,671.586938499473,673.5875722998753,None,0,0.9597808104008436,2.960442011244595,increament,0.96,28,oddball,j,160,,,,,,,,f,22,230,fr,r,0,raw,2022-07-07_10h38.51.154,oddball,2022.1.2,60.006828563631075,
10,,,,,0,0,0,2,5,0,5,0,19,0,19,0,,,,,,,,,,,,,,,,,673.6041485993192,None,674.354609400034,674.9546157997102,674.938021699898,676.9390367995948,j,0,0.6098358100280166,2.610931910574436,increament,0.6,25,standard,None,100,0.5910459002479911,,,,,,,f,22,230,fr,r,0,raw,2022-07-07_10h38.51.154,oddball,2022.1.2,60.006828563631075,
10,,,,,0,0,0,2,5,0,5,0,20,0,20,0,,,,,,,,,,,,,,,,,676.9561722995713,None,677.8727220995352,678.4725299999118,678.4559978991747,680.4565506000072,None,1,0.6092732101678848,2.609801510348916,increament,0.6,25,standard,None,100,,,,,,,,f,22,230,fr,r,0,raw,2022-07-07_10h38.51.154,oddball,2022.1.2,60.006828563631075,
10,,,,,0,0,0,2,5,0,5,0,21,0,21,0,,,,,,,,,,,,,,,,,680.4731637993827,None,681.2070232992992,681.8071684995666,681.7904500998557,683.7915598992258,None,1,0.6127183102071285,2.6139210099354386,increament,0.6,25,standard,None,100,,,,,,,,f,22,230,fr,r,0,raw,2022-07-07_10h38.51.154,oddball,2022.1.2,60.006828563631075,
10,,,,,0,0,0,2,5,0,5,0,22,0,22,0,,,,,,,,,,,,,,,,,683.8081347998232,None,684.5416819993407,685.1417806996033,685.1254757996649,687.1266705999151,None,1,0.6107209092006087,2.6119418097659945,increament,0.6,25,standard,None,100,,,,,,,,f,22,230,fr,r,0,raw,2022-07-07_10h38.51.154,oddball,2022.1.2,60.006828563631075,
10,,,,,0,0,0,2,5,0,5,0,23,0,23,0,,,,,,,,,,,,,,,,,687.144953799434,None,687.809375799261,688.4097845992073,688.3930643992499,690.3939864998683,None,1,0.6128135100007057,2.6136904107406735,increament,0.6,25,standard,None,100,,,,,,,,f,22,230,fr,r,0,raw,2022-07-07_10h38.51.154,oddball,2022.1.2,60.006828563631075,
10,,,,,0,0,0,2,5,0,5,0,24,0,24,0,,,,,,,,,,,,,,,,,690.4106667991728,None,691.0276724994183,691.6277181999758,691.6109087998047,693.6115551991388,None,1,0.6097286101430655,2.6103170104324818,increament,0.6,25,standard,None,100,,,,,,,,f,22,230,fr,r,0,raw,2022-07-07_10h38.51.154,oddball,2022.1.2,60.006828563631075,
10,,,,,0,0,0,2,5,0,5,0,25,0,25,0,,,,,,,,,,,,,,,,,693.6281492998824,None,694.3454241994768,694.9453896991909,694.9289782997221,696.9294973993674,None,1,0.6130656097084284,2.613592809997499,increament,0.6,25,standard,None,100,,,,,,,,f,22,230,fr,r,0,raw,2022-07-07_10h38.51.154,oddball,2022.1.2,60.006828563631075,
10,,,,,0,0,0,2,5,0,5,0,26,0,26,0,,,,,,,,,,,,,,,,,696.9462992995977,None,697.5463675996289,698.1467691995203,698.130106699653,700.1310934992507,None,1,0.6124735102057457,2.6135346107184887,increament,0.6,25,standard,None,100,,,,,,,,f,22,230,fr,r,0,raw,2022-07-07_10h38.51.154,oddball,2022.1.2,60.006828563631075,
10,,,,,0,0,0,2,5,0,5,0,27,0,27,0,,,,,,,,,,,,,,,,,700.1478987997398,None,700.6809965996072,701.2815146995708,701.2646468998864,703.2656053993851,None,1,0.6093685096129775,2.6103939097374678,increament,0.6,25,standard,None,100,,,,,,,,f,22,230,fr,r,0,raw,2022-07-07_10h38.51.154,oddball,2022.1.2,60.006828563631075,
10,,,,,0,0,0,2,5,0,5,0,28,0,28,0,,,,,,,,,,,,,,,,,703.2831300999969,None,703.9321678997949,704.5326500991359,704.5161689994857,706.5163998994976,None,1,0.6126985102891922,2.6128637101501226,increament,0.6,25,standard,None,100,,,,,,,,f,22,230,fr,r,0,raw,2022-07-07_10h38.51.154,oddball,2022.1.2,60.006828563631075,
10,,,,,0,0,0,2,5,0,5,0,29,0,29,0,,,,,,,,,,,,,,,,,706.5335381999612,None,707.1501384992152,707.7505065994337,707.7338656997308,709.7348360000178,None,1,0.6117394091561437,2.612760609947145,increament,0.6,25,standard,None,100,,,,,,,,f,22,230,fr,r,0,raw,2022-07-07_10h38.51.154,oddball,2022.1.2,60.006828563631075,
10,,,,,0,0,0,2,6,0,6,0,0,0,0,0,,,,,,,,,,,,,,,739.8624291997403,None,741.4796845000237,None,742.2468952992931,742.8471627999097,742.8305342998356,744.8313996000215,None,1,0.6117724105715752,2.6126518100500107,decreament,0.6,21,standard,None,100,,709.7512602992356,None,,,,,f,22,230,fr,r,0,raw,2022-07-07_10h38.51.154,oddball,2022.1.2,60.006828563631075,
10,,,,,0,0,0,2,6,0,6,0,1,0,1,0,,,,,,,,,,,,,,,,,744.8479407997802,None,745.481465799734,746.081720199436,746.0654485998675,748.0657418994233,None,1,0.6114550102502108,2.6117176096886396,decreament,0.6,21,standard,None,100,,,,,,,,f,22,230,fr,r,0,raw,2022-07-07_10h38.51.154,oddball,2022.1.2,60.006828563631075,
10,,,,,0,0,0,2,6,0,6,0,2,0,2,0,,,,,,,,,,,,,,,,,748.0822973996401,None,748.6991507997736,749.2996141994372,749.2830331996083,751.2835023999214,None,1,0.6127890106290579,2.6132601108402014,decreament,0.6,21,standard,None,100,,,,,,,,f,22,230,fr,r,0,raw,2022-07-07_10h38.51.154,oddball,2022.1.2,60.006828563631075,
10,,,,,0,0,0,2,6,0,6,0,3,0,3,0,,,,,,,,,,,,,,,,,751.3003848996013,None,751.9338578991592,752.5340075995773,752.517559199594,754.5183365996927,None,1,0.60828011110425,2.6091081108897924,decreament,0.6,21,standard,None,100,,,,,,,,f,22,230,fr,r,0,raw,2022-07-07_10h38.51.154,oddball,2022.1.2,60.006828563631075,
10,,,,,0,0,0,2,6,0,6,0,4,0,4,0,,,,,,,,,,,,,,,,,754.5353954993188,None,755.2519041998312,755.8518674997613,755.8352748993784,757.8361754994839,None,1,0.6124909101054072,2.6133678099140525,decreament,0.6,21,standard,None,100,,,,,,,,f,22,230,fr,r,0,raw,2022-07-07_10h38.51.154,oddball,2022.1.2,60.006828563631075,
10,,,,,0,0,0,2,6,0,6,0,5,0,5,0,,,,,,,,,,,,,,,,,757.852537099272,None,758.4696026993915,759.0701079992577,759.0535387992859,761.0542299998924,None,1,0.612917210906744,2.6135773109272122,decreament,0.6,21,standard,None,100,,,,,,,,f,22,230,fr,r,0,raw,2022-07-07_10h38.51.154,oddball,2022.1.2,60.006828563631075,
10,,,,,0,0,0,2,6,0,6,0,6,0,6,0,,,,,,,,,,,,,,,,,761.0707426993176,None,761.687557099387,762.288176799193,762.2713702991605,764.2719677994028,None,1,0.6131406100466847,2.6136844102293253,decreament,0.6,21,standard,None,100,,,,,,,,f,22,230,fr,r,0,raw,2022-07-07_10h38.51.154,oddball,2022.1.2,60.006828563631075,
10,,,,,0,0,0,2,6,0,6,0,7,0,7,0,,,,,,,,,,,,,,,,,764.2884213998914,None,764.838476699777,765.4389794999734,765.4224159996957,767.4229953000322,None,1,0.6123427106067538,2.6129083102568984,decreament,0.6,21,standard,None,100,,,,,,,,f,22,230,fr,r,0,raw,2022-07-07_10h38.51.154,oddball,2022.1.2,60.006828563631075,
10,,,,,0,0,0,2,6,0,6,0,8,0,8,0,,,,,,,,,,,,,,,,,767.4397129993886,None,768.1065348992124,768.70673779957,768.6900103995577,770.6909044999629,None,1,0.6123565100133419,2.6132603101432323,decreament,0.6,21,standard,None,100,,,,,,,,f,22,230,fr,r,0,raw,2022-07-07_10h38.51.154,oddball,2022.1.2,60.006828563631075,
10,,,,,0,0,0,2,6,0,6,0,9,0,9,0,,,,,,,,,,,,,,,,,770.7077521998435,None,771.2580607999116,771.8582311999053,771.841783799231,773.842285499908,None,1,0.6105039101094007,2.610472610220313,decreament,0.6,21,standard,None,100,,,,,,,,f,22,230,fr,r,0,raw,2022-07-07_10h38.51.154,oddball,2022.1.2,60.006828563631075,
10,,,,,0,0,0,2,6,0,6,0,10,0,10,0,,,,,,,,,,,,,,,,,773.8587990999222,None,774.6254882998765,775.226371399127,775.2095621991903,777.210262099281,None,1,0.6134772095829248,2.6141643095761538,decreament,0.6,21,standard,None,100,,,,,,,,f,22,230,fr,r,0,raw,2022-07-07_10h38.51.154,oddball,2022.1.2,60.006828563631075,
10,,,,,0,0,0,2,6,0,6,0,11,0,11,0,,,,,,,,,,,,,,,,,777.2267969995737,None,777.7768354993314,778.3768114997074,778.3601662991568,780.3614662997425,None,1,0.6129483105614781,2.6143526108935475,decreament,0.6,21,standard,None,100,,,,,,,,f,22,230,fr,r,0,raw,2022-07-07_10h38.51.154,oddball,2022.1.2,60.006828563631075,
10,,,,,0,0,0,2,6,0,6,0,12,0,12,0,,,,,,,,,,,,,,,,,780.377974299714,None,780.9615221992135,781.5622211992741,781.5453329999,783.5455093998462,None,1,0.6119808098301291,2.6120625101029873,decreament,0.6,21,standard,None,100,,,,,,,,f,22,230,fr,r,0,raw,2022-07-07_10h38.51.154,oddball,2022.1.2,60.006828563631075,
10,,,,,0,0,0,2,6,0,6,0,13,0,13,0,,,,,,,,,,,,,,,,,783.5624051997438,None,784.2626991998404,784.8631134992465,784.8463445995003,786.8473236998543,None,1,0.6126928115263581,2.613722210749984,decreament,0.6,21,standard,None,100,,,,,,,,f,22,230,fr,r,0,raw,2022-07-07_10h38.51.154,oddball,2022.1.2,60.006828563631075,
10,,,,,0,0,0,2,6,0,6,0,14,0,14,0,,,,,,,,,,,,,,,,,786.8635868998244,None,787.547357599251,788.1474305996671,788.1309676999226,790.13146399986,None,1,0.6112083094194531,2.6116671096533537,decreament,0.6,21,standard,None,100,,,,,,,,f,22,230,fr,r,0,raw,2022-07-07_10h38.51.154,oddball,2022.1.2,60.006828563631075,
10,,,,,0,0,0,2,6,0,6,0,15,0,15,0,,,,,,,,,,,,,,,,,790.1482002995908,None,790.8152030995116,791.4153446992859,791.3989020995796,793.3995222998783,None,1,0.612466610968113,2.6130934106186032,decreament,0.6,21,standard,None,100,,,,,,,,f,22,230,fr,r,0,raw,2022-07-07_10h38.51.154,oddball,2022.1.2,60.006828563631075,
10,,,,,0,0,0,2,6,0,6,0,16,0,16,0,,,,,,,,,,,,,,,,,793.4167473996058,None,794.1332000996917,794.7333723995835,794.7166156992316,796.7174243992195,None,1,0.6129687093198299,2.613787309266627,decreament,0.6,21,standard,None,100,,,,,,,,f,22,230,fr,r,0,raw,2022-07-07_10h38.51.154,oddball,2022.1.2,60.006828563631075,
10,,,,,0,0,0,2,6,0,6,0,17,0,17,0,,,,,,,,,,,,,,,,,796.7340671997517,None,797.3009334998205,797.9011878995225,797.884693400003,799.8855508994311,None,1,0.613044410943985,2.6139359110966325,decreament,0.6,21,standard,None,100,,,,,,,,f,22,230,fr,r,0,raw,2022-07-07_10h38.51.154,oddball,2022.1.2,60.006828563631075,
10,,,,,0,0,0,2,6,0,6,0,18,0,18,0,,,,,,,,,,,,,,,,,799.901783999987,None,800.53551889956,800.7856632992625,800.7522769998759,802.7531231995672,j,1,0.24669401068240404,2.2475386103615165,decreament,0.24,22,oddball,j,40,0.6489901002496481,,,,,,,f,22,230,fr,r,0,raw,2022-07-07_10h38.51.154,oddball,2022.1.2,60.006828563631075,
10,,,,,0,0,0,2,6,0,6,0,19,0,19,0,,,,,,,,,,,,,,,,,802.7696260996163,None,803.4032854996622,804.0036530997604,803.986969999969,805.9873907994479,None,1,0.6129196099936962,2.613333510234952,decreament,0.6,21,standard,None,100,,,,,,,,f,22,230,fr,r,0,raw,2022-07-07_10h38.51.154,oddball,2022.1.2,60.006828563631075,
10,,,,,0,0,0,2,6,0,6,0,20,0,20,0,,,,,,,,,,,,,,,,,806.0044702999294,None,806.6382744992152,807.2379103992134,807.2214191993698,809.2220808994025,None,1,0.6109030107036233,2.611553410999477,decreament,0.6,21,standard,None,100,,,,,,,,f,22,230,fr,r,0,raw,2022-07-07_10h38.51.154,oddball,2022.1.2,60.006828563631075,
10,,,,,0,0,0,2,6,0,6,0,21,0,21,0,,,,,,,,,,,,,,,,,809.2387024993077,None,809.9059186000377,810.5056872991845,810.4890815997496,812.4901339998469,None,1,0.6117701111361384,2.6128825107589364,decreament,0.6,21,standard,None,100,,,,,,,,f,22,230,fr,r,0,raw,2022-07-07_10h38.51.154,oddball,2022.1.2,60.006828563631075,
10,,,,,0,0,0,2,6,0,6,0,22,0,22,0,,,,,,,,,,,,,,,,,812.5067932996899,None,813.1741945995018,813.7739207996055,813.757103599608,815.7581106992438,None,1,0.609104810282588,2.6101607102900743,decreament,0.6,21,standard,None,100,,,,,,,,f,22,230,fr,r,0,raw,2022-07-07_10h38.51.154,oddball,2022.1.2,60.006828563631075,
10,,,,,0,0,0,2,6,0,6,0,23,0,23,0,,,,,,,,,,,,,,,,,815.7748015997931,None,816.5418076999485,817.1422464996576,817.1254545999691,819.125585699454,None,1,0.6128769107162952,2.61287341080606,decreament,0.6,21,standard,None,100,,,,,,,,f,22,230,fr,r,0,raw,2022-07-07_10h38.51.154,oddball,2022.1.2,60.006828563631075,
10,,,,,0,0,0,2,6,0,6,0,24,0,24,0,,,,,,,,,,,,,,,,,819.1422512000427,None,819.8095782995224,820.2932107998058,820.2770882993937,822.2770338999107,None,0,0.495373310521245,2.4952386105433106,decreament,0.48,24,oddball,j,80,,,,,,,,f,22,230,fr,r,0,raw,2022-07-07_10h38.51.154,oddball,2022.1.2,60.006828563631075,
10,,,,,0,0,0,2,6,0,6,0,25,0,25,0,,,,,,,,,,,,,,,,,822.2938093999401,None,822.9440567996353,823.5442426996306,823.5279914997518,825.5284981997684,None,1,0.6137671107426286,2.61422561109066,decreament,0.6,21,standard,None,100,,,,,,,,f,22,230,fr,r,0,raw,2022-07-07_10h38.51.154,oddball,2022.1.2,60.006828563631075,
10,,,,,0,0,0,2,6,0,6,0,26,0,26,0,,,,,,,,,,,,,,,,,825.5449583996087,None,826.2123652994633,826.8119822992012,826.7954414999112,828.7964905994013,None,1,0.6088849101215601,2.6100367102771997,decreament,0.6,21,standard,None,100,,,,,,,,f,22,230,fr,r,0,raw,2022-07-07_10h38.51.154,oddball,2022.1.2,60.006828563631075,
10,,,,,0,0,0,2,6,0,6,0,27,0,27,0,,,,,,,,,,,,,,,,,828.8127672998235,None,829.5800594994798,830.1801185999066,830.163503699936,832.1641053995118,None,1,0.6115436097607017,2.6121439104899764,decreament,0.6,21,standard,None,100,,,,,,,,f,22,230,fr,r,0,raw,2022-07-07_10h38.51.154,oddball,2022.1.2,60.006828563631075,
10,,,,,0,0,0,2,6,0,6,0,28,0,28,0,,,,,,,,,,,,,,,,,832.181159099564,None,832.9477475993335,833.5482145994902,833.5317000998184,835.5319501999766,None,1,0.6149352109059691,2.6150757102295756,decreament,0.6,21,standard,None,100,,,,,,,,f,22,230,fr,r,0,raw,2022-07-07_10h38.51.154,oddball,2022.1.2,60.006828563631075,
10,,,,,0,0,0,2,6,0,6,0,29,0,29,0,,,,,,,,,,,,,,,,,835.5487739993259,None,836.3324104994535,836.6992579000071,836.6658285995945,838.6662855995819,None,0,0.3619691105559468,2.362392010167241,decreament,0.36,23,oddball,j,60,,,,,,,,f,22,230,fr,r,0,raw,2022-07-07_10h38.51.154,oddball,2022.1.2,60.006828563631075,
10,,,,,0,0,0,2,7,0,7,0,0,0,0,0,,,,,,,,,,,,,,,842.9894869998097,None,847.1032581999898,None,847.7367726992816,848.3370648995042,848.3201286997646,850.3213449995965,None,1,0.6110752113163471,2.612327110953629,increament,0.6,25,standard,None,100,,838.6831918992102,None,,,,,f,22,230,fr,r,0,raw,2022-07-07_10h38.51.154,oddball,2022.1.2,60.006828563631075,
10,,,,,0,0,0,2,7,0,7,0,1,0,1,0,,,,,,,,,,,,,,,,,850.3381418995559,None,850.9379676999524,851.5382937993854,851.5219213999808,853.5222713993862,None,1,0.6130599100142717,2.6133542098104954,increament,0.6,25,standard,None,100,,,,,,,,f,22,230,fr,r,0,raw,2022-07-07_10h38.51.154,oddball,2022.1.2,60.006828563631075,
10,,,,,0,0,0,2,7,0,7,0,2,0,2,0,,,,,,,,,,,,,,,,,853.5391285000369,None,854.2390704993159,854.8392245993018,854.8230143999681,856.8236131994054,None,1,0.6145400097593665,2.6152040101587772,increament,0.6,25,standard,None,100,,,,,,,,f,22,230,fr,r,0,raw,2022-07-07_10h38.51.154,oddball,2022.1.2,60.006828563631075,
10,,,,,0,0,0,2,7,0,7,0,3,0,3,0,,,,,,,,,,,,,,,,,856.8403247995302,None,857.6408131998032,858.2404737994075,858.2239238992333,860.2253224998713,None,1,0.6105878092348576,2.6120400093495846,increament,0.6,25,standard,None,100,,,,,,,,f,22,230,fr,r,0,raw,2022-07-07_10h38.51.154,oddball,2022.1.2,60.006828563631075,
10,,,,,0,0,0,2,7,0,7,0,4,0,4,0,,,,,,,,,,,,,,,,,860.2412357991561,None,860.8587177991867,861.4584540994838,861.4419442992657,863.4426531996578,None,1,0.6087951101362705,2.609505109488964,increament,0.6,25,standard,None,100,,,,,,,,f,22,230,fr,r,0,raw,2022-07-07_10h38.51.154,oddball,2022.1.2,60.006828563631075,
10,,,,,0,0,0,2,7,0,7,0,5,0,5,0,,,,,,,,,,,,,,,,,863.4592017000541,None,864.0261840997264,864.8763979999349,864.8432858996093,866.8437041994184,None,0,0.8466357095167041,2.8470461098477244,increament,0.84,27,oddball,j,140,,,,,,,,f,22,230,fr,r,0,raw,2022-07-07_10h38.51.154,oddball,2022.1.2,60.006828563631075,
10,,,,,0,0,0,2,7,0,7,0,6,0,6,0,,,,,,,,,,,,,,,,,866.8605613997206,None,867.5108324997127,868.11108019948,868.0950670000166,870.0950092999265,None,1,0.6111921099945903,2.611056409776211,increament,0.6,25,standard,None,100,,,,,,,,f,22,230,fr,r,0,raw,2022-07-07_10h38.51.154,oddball,2022.1.2,60.006828563631075,
10,,,,,0,0,0,2,7,0,7,0,7,0,7,0,,,,,,,,,,,,,,,,,870.1120032994077,None,870.8454465996474,871.4454860994592,871.4289669999853,873.4303713999689,None,1,0.6127821104601026,2.614300310611725,increament,0.6,25,standard,None,100,,,,,,,,f,22,230,fr,r,0,raw,2022-07-07_10h38.51.154,oddball,2022.1.2,60.006828563631075,
10,,,,,0,0,0,2,7,0,7,0,8,0,8,0,,,,,,,,,,,,,,,,,873.4464533999562,None,874.163256299682,874.7639836994931,874.7472164994106,876.7481693997979,None,1,0.6124059101566672,2.6133623104542494,increament,0.6,25,standard,None,100,,,,,,,,f,22,230,fr,r,0,raw,2022-07-07_10h38.51.154,oddball,2022.1.2,60.006828563631075,
10,,,,,0,0,0,2,7,0,7,0,9,0,9,0,,,,,,,,,,,,,,,,,876.7643748000264,None,877.5148132992908,878.1154079996049,878.0987006993964,880.0991807999089,None,1,0.6119874101132154,2.6124131102114916,increament,0.6,25,standard,None,100,,,,,,,,f,22,230,fr,r,0,raw,2022-07-07_10h38.51.154,oddball,2022.1.2,60.006828563631075,
10,,,,,0,0,0,2,7,0,7,0,10,0,10,0,,,,,,,,,,,,,,,,,880.1160380998626,None,880.7497616000473,881.7164292996749,881.6832489995286,883.6835677996278,j,1,0.9600499104708433,2.9603121103718877,increament,0.96,28,oddball,j,160,0.5413645002990961,,,,,,,f,22,230,fr,r,0,raw,2022-07-07_10h38.51.154,oddball,2022.1.2,60.006828563631075,
10,,,,,0,0,0,2,7,0,7,0,11,0,11,0,,,,,,,,,,,,,,,,,883.7004497991875,None,884.3343055993319,884.934461900033,884.9178866995499,886.9188246997073,None,1,0.6136809103190899,2.6146419094875455,increament,0.6,25,standard,None,100,,,,,,,,f,22,230,fr,r,0,raw,2022-07-07_10h38.51.154,oddball,2022.1.2,60.006828563631075,
10,,,,,0,0,0,2,7,0,7,0,12,0,12,0,,,,,,,,,,,,,,,,,886.9350876994431,None,887.602258099243,888.2022330993786,888.185850199312,890.1861702995375,None,1,0.6112859109416604,2.611592210829258,increament,0.6,25,standard,None,100,,,,,,,,f,22,230,fr,r,0,raw,2022-07-07_10h38.51.154,oddball,2022.1.2,60.006828563631075,
10,,,,,0,0,0,2,7,0,7,0,13,0,13,0,,,,,,,,,,,,,,,,,890.2030944991857,None,890.8530051000416,891.4531755000353,891.4366606995463,893.4372090995312,None,1,0.6132302107289433,2.613733010366559,increament,0.6,25,standard,None,100,,,,,,,,f,22,230,fr,r,0,raw,2022-07-07_10h38.51.154,oddball,2022.1.2,60.006828563631075,
10,,,,,0,0,0,2,7,0,7,0,14,0,14,0,,,,,,,,,,,,,,,,,893.4538015993312,None,894.1710320999846,894.7716182991862,894.754801299423,896.755768799223,None,1,0.6096373097971082,2.610589509829879,increament,0.6,25,standard,None,100,,,,,,,,f,22,230,fr,r,0,raw,2022-07-07_10h38.51.154,oddball,2022.1.2,60.006828563631075,
10,,,,,0,0,0,2,7,0,7,0,15,0,15,0,,,,,,,,,,,,,,,,,896.7720007998869,None,897.339170999825,897.9391928995028,897.9225618997589,899.9231414999813,None,1,0.6092443102970719,2.6097864098846912,increament,0.6,25,standard,None,100,,,,,,,,f,22,230,fr,r,0,raw,2022-07-07_10h38.51.154,oddball,2022.1.2,60.006828563631075,
10,,,,,0,0,0,2,7,0,7,0,16,0,16,0,,,,,,,,,,,,,,,,,899.9398502996191,None,900.5901008993387,901.1905658999458,901.1738054994494,903.1742807999253,None,1,0.6116995112970471,2.6121139116585255,increament,0.6,25,standard,None,100,,,,,,,,f,22,230,fr,r,0,raw,2022-07-07_10h38.51.154,oddball,2022.1.2,60.006828563631075,
10,,,,,0,0,0,2,7,0,7,0,17,0,17,0,,,,,,,,,,,,,,,,,903.1908192997798,None,903.7748157996684,904.3750922000036,904.3581879995763,906.3595849992707,None,1,0.6103331102058291,2.611810310743749,increament,0.6,25,standard,None,100,,,,,,,,f,22,230,fr,r,0,raw,2022-07-07_10h38.51.154,oddball,2022.1.2,60.006828563631075,
10,,,,,0,0,0,2,7,0,7,0,18,0,18,0,,,,,,,,,,,,,,,,,906.3755010999739,None,906.9925591992214,907.5927609000355,907.5760726993904,909.5767651991919,None,1,0.6131089106202126,2.6138058099895716,increament,0.6,25,standard,None,100,,,,,,,,f,22,230,fr,r,0,raw,2022-07-07_10h38.51.154,oddball,2022.1.2,60.006828563631075,
10,,,,,0,0,0,2,7,0,7,0,19,0,19,0,,,,,,,,,,,,,,,,,909.5935035999864,None,910.3942309999838,910.9942465992644,910.9775075996295,912.9784311996773,None,1,0.6126181101426482,2.6136029101908207,increament,0.6,25,standard,None,100,,,,,,,,f,22,230,fr,r,0,raw,2022-07-07_10h38.51.154,oddball,2022.1.2,60.006828563631075,
10,,,,,0,0,0,2,7,0,7,0,20,0,20,0,,,,,,,,,,,,,,,,,912.9956860998645,None,913.5785865997896,914.1787280999124,914.1621617991477,916.162928099744,None,1,0.6095366105437279,2.6102991104125977,increament,0.6,25,standard,None,100,,,,,,,,f,22,230,fr,r,0,raw,2022-07-07_10h38.51.154,oddball,2022.1.2,60.006828563631075,
10,,,,,0,0,0,2,7,0,7,0,21,0,21,0,,,,,,,,,,,,,,,,,916.1794978994876,None,916.7796708997339,917.5132171995938,917.4800792997703,919.4804938994348,None,0,0.7285155104473233,2.7288614101707935,increament,0.72,26,oddball,j,120,,,,,,,,f,22,230,fr,r,0,raw,2022-07-07_10h38.51.154,oddball,2022.1.2,60.006828563631075,
10,,,,,0,0,0,2,7,0,7,0,22,0,22,0,,,,,,,,,,,,,,,,,919.4972708998248,None,920.0143056996167,920.6146100992337,920.5978604992852,922.598391099833,None,1,0.6124825095757842,2.612987009808421,increament,0.6,25,standard,None,100,,,,,,,,f,22,230,fr,r,0,raw,2022-07-07_10h38.51.154,oddball,2022.1.2,60.006828563631075,
10,,,,,0,0,0,2,7,0,7,0,23,0,23,0,,,,,,,,,,,,,,,,,922.6153635997325,None,923.3487841999158,923.9490311993286,923.9325818000361,925.93330629915,None,1,0.611415009945631,2.611997510306537,increament,0.6,25,standard,None,100,,,,,,,,f,22,230,fr,r,0,raw,2022-07-07_10h38.51.154,oddball,2022.1.2,60.006828563631075,
10,,,,,0,0,0,2,7,0,7,0,24,0,24,0,,,,,,,,,,,,,,,,,925.9498263997957,None,926.5668341992423,927.1665884992108,927.149940399453,929.1511285994202,None,1,0.6122586112469435,2.613490310497582,increament,0.6,25,standard,None,100,,,,,,,,f,22,230,fr,r,0,raw,2022-07-07_10h38.51.154,oddball,2022.1.2,60.006828563631075,
10,,,,,0,0,0,2,7,0,7,0,25,0,25,0,,,,,,,,,,,,,,,,,929.1676025995985,None,929.8677634997293,930.4677384998649,930.4514128994197,932.4520014999434,None,1,0.6146930102258921,2.6151502104476094,increament,0.6,25,standard,None,100,,,,,,,,f,22,230,fr,r,0,raw,2022-07-07_10h38.51.154,oddball,2022.1.2,60.006828563631075,
10,,,,,0,0,0,2,7,0,7,0,26,0,26,0,,,,,,,,,,,,,,,,,932.4686068994924,None,933.0026479000226,933.6028351997957,933.5860357992351,935.5868498999625,None,1,0.6115019107237458,2.6123183108866215,increament,0.6,25,standard,None,100,,,,,,,,f,22,230,fr,r,0,raw,2022-07-07_10h38.51.154,oddball,2022.1.2,60.006828563631075,
10,,,,,0,0,0,2,7,0,7,0,27,0,27,0,,,,,,,,,,,,,,,,,935.6036110995337,None,936.2204024996608,936.8207333991304,936.8037584992126,938.8045608997345,None,1,0.6106262095272541,2.611449109390378,increament,0.6,25,standard,None,100,,,,,,,,f,22,230,fr,r,0,raw,2022-07-07_10h38.51.154,oddball,2022.1.2,60.006828563631075,
10,,,,,0,0,0,2,7,0,7,0,28,0,28,0,,,,,,,,,,,,,,,,,938.8211987996474,None,939.4385909000412,940.0384466992691,940.0217894995585,942.0225726999342,None,1,0.6097186105325818,2.6104647098109126,increament,0.6,25,standard,None,100,,,,,,,,f,22,230,fr,r,0,raw,2022-07-07_10h38.51.154,oddball,2022.1.2,60.006828563631075,
10,,,,,0,0,0,2,7,0,7,0,29,0,29,0,,,,,,,,,,,,,,,,,942.0390080995858,None,942.639485899359,943.2397447992116,943.2234648000449,945.2240428999066,None,1,0.6119038099423051,2.612516909837723,increament,0.6,25,standard,None,100,,,,,,,,f,22,230,fr,r,0,raw,2022-07-07_10h38.51.154,oddball,2022.1.2,60.006828563631075,
10,,,,,0,0,0,2,8,0,8,0,0,0,0,0,,,,,,,,,,,,,,,982.8747960999608,None,984.2549254000187,None,984.9552763998508,985.5557370996103,985.5395124992356,987.539774899371,None,1,0.6126528102904558,2.612881710752845,decreament,0.6,21,standard,None,100,,945.242635499686,None,,,,,f,22,230,fr,r,0,raw,2022-07-07_10h38.51.154,oddball,2022.1.2,60.006828563631075,
10,,,,,0,0,0,2,8,0,8,0,1,0,1,0,,,,,,,,,,,,,,,,,987.5563129996881,None,988.189864099957,988.7901077000424,988.773514399305,990.7744980994612,None,1,0.6098170103505254,2.610814110375941,decreament,0.6,21,standard,None,100,,,,,,,,f,22,230,fr,r,0,raw,2022-07-07_10h38.51.154,oddball,2022.1.2,60.006828563631075,
10,,,,,0,0,0,2,8,0,8,0,2,0,2,0,,,,,,,,,,,,,,,,,990.7911578994244,None,991.5411641998217,992.1409314991906,992.1243873992935,994.1254709996283,None,1,0.6133464090526104,2.614472009241581,decreament,0.6,21,standard,None,100,,,,,,,,f,22,230,fr,r,0,raw,2022-07-07_10h38.51.154,oddball,2022.1.2,60.006828563631075,
10,,,,,0,0,0,2,8,0,8,0,3,0,3,0,,,,,,,,,,,,,,,,,994.1423651995137,None,994.9254278000444,995.5261659994721,995.5093364994973,997.5102277994156,None,1,0.6149932099506259,2.615848610177636,decreament,0.6,21,standard,None,100,,,,,,,,f,22,230,fr,r,0,raw,2022-07-07_10h38.51.154,oddball,2022.1.2,60.006828563631075,
10,,,,,0,0,0,2,8,0,8,0,4,0,4,0,,,,,,,,,,,,,,,,,997.5265798997134,None,998.1602649996057,998.7605667999014,998.7440481996164,1000.74495369941,None,1,0.6122335102409124,2.6132368110120296,decreament,0.6,21,standard,None,100,,,,,,,,f,22,230,fr,r,0,raw,2022-07-07_10h38.51.154,oddball,2022.1.2,60.006828563631075,
10,,,,,0,0,0,2,8,0,8,0,5,0,5,0,,,,,,,,,,,,,,,,,1000.761571499519,None,1001.4115475993603,1002.0117754992098,1001.9952187994495,1003.9958627996966,None,1,0.6124084107577801,2.6130294110625982,decreament,0.6,21,standard,None,100,,,,,,,,f,22,230,fr,r,0,raw,2022-07-07_10h38.51.154,oddball,2022.1.2,60.006828563631075,
10,,,,,0,0,0,2,8,0,8,0,6,0,6,0,,,,,,,,,,,,,,,,,1004.0125888995826,None,1004.8627231996506,1005.4630987998098,1005.4464004999027,1007.447158199735,None,1,0.6146973101422191,2.615443910472095,decreament,0.6,21,standard,None,100,,,,,,,,f,22,230,fr,r,0,raw,2022-07-07_10h38.51.154,oddball,2022.1.2,60.006828563631075,
10,,,,,0,0,0,2,8,0,8,0,7,0,7,0,,,,,,,,,,,,,,,,,1007.4636304993182,None,1008.180952699855,1008.7810705993325,1008.7646975992247,1010.7653818996623,None,1,0.6130681103095412,2.613754509948194,decreament,0.6,21,standard,None,100,,,,,,,,f,22,230,fr,r,0,raw,2022-07-07_10h38.51.154,oddball,2022.1.2,60.006828563631075,
10,,,,,0,0,0,2,8,0,8,0,8,0,8,0,,,,,,,,,,,,,,,,,1010.7819701991975,None,1011.3987425994128,1011.8822919996455,1011.8654787996784,1013.8663178998977,j,1,0.49242711067199707,2.493299311026931,decreament,0.48,24,oddball,j,80,0.7110888995230198,,,,,,,f,22,230,fr,r,0,raw,2022-07-07_10h38.51.154,oddball,2022.1.2,60.006828563631075,
10,,,,,0,0,0,2,8,0,8,0,9,0,9,0,,,,,,,,,,,,,,,,,1013.8830654993653,None,1014.5166499996558,1015.116668199189,1015.1002075998113,1017.1008852999657,None,1,0.612624610774219,2.613294211216271,decreament,0.6,21,standard,None,100,,,,,,,,f,22,230,fr,r,0,raw,2022-07-07_10h38.51.154,oddball,2022.1.2,60.006828563631075,
10,,,,,0,0,0,2,8,0,8,0,10,0,10,0,,,,,,,,,,,,,,,,,1017.1175780994818,None,1017.9346483992413,1018.5347408996895,1018.518045399338,1020.5187423992902,None,1,0.6108201099559665,2.61152620986104,decreament,0.6,21,standard,None,100,,,,,,,,f,22,230,fr,r,0,raw,2022-07-07_10h38.51.154,oddball,2022.1.2,60.006828563631075,
10,,,,,0,0,0,2,8,0,8,0,11,0,11,0,,,,,,,,,,,,,,,,,1020.5356605993584,None,1021.0859098993242,1021.6859082998708,1021.6693546995521,1023.6702808998525,None,1,0.612535810098052,2.613486509770155,decreament,0.6,21,standard,None,100,,,,,,,,f,22,230,fr,r,0,raw,2022-07-07_10h38.51.154,oddball,2022.1.2,60.006828563631075,
10,,,,,0,0,0,2,8,0,8,0,12,0,12,0,,,,,,,,,,,,,,,,,1023.686710299924,None,1024.5704456996173,1025.1707709999755,1025.1542358994484,1027.1546910991892,None,1,0.6114913104102015,2.6119251111522317,decreament,0.6,21,standard,None,100,,,,,,,,f,22,230,fr,r,0,raw,2022-07-07_10h38.51.154,oddball,2022.1.2,60.006828563631075,
10,,,,,0,0,0,2,8,0,8,0,13,0,13,0,,,,,,,,,,,,,,,,,1027.171612999402,None,1027.8047977993265,1028.4053885992616,1028.3885395992547,1030.3894801000133,None,1,0.6134056095033884,2.614410810172558,decreament,0.6,21,standard,None,100,,,,,,,,f,22,230,fr,r,0,raw,2022-07-07_10h38.51.154,oddball,2022.1.2,60.006828563631075,
10,,,,,0,0,0,2,8,0,8,0,14,0,14,0,,,,,,,,,,,,,,,,,1030.4058669991791,None,1031.1396372998133,1031.7400174997747,1031.7229881994426,1033.723658300005,None,1,0.6125974096357822,2.6131846094504,decreament,0.6,21,standard,None,100,,,,,,,,f,22,230,fr,r,0,raw,2022-07-07_10h38.51.154,oddball,2022.1.2,60.006828563631075,
10,,,,,0,0,0,2,8,0,8,0,15,0,15,0,,,,,,,,,,,,,,,,,1033.7405163999647,None,1034.3743044994771,1034.974363499321,1034.957827099599,1036.9584634993225,None,1,0.6120417099446058,2.6126703107729554,decreament,0.6,21,standard,None,100,,,,,,,,f,22,230,fr,r,0,raw,2022-07-07_10h38.51.154,oddball,2022.1.2,60.006828563631075,
10,,,,,0,0,0,2,8,0,8,0,16,0,16,0,,,,,,,,,,,,,,,,,1036.9751281999052,None,1037.6753465998918,1038.2754671992734,1038.2588990991935,1040.2596964994445,None,1,0.6121631097048521,2.612991710193455,decreament,0.6,21,standard,None,100,,,,,,,,f,22,230,fr,r,0,raw,2022-07-07_10h38.51.154,oddball,2022.1.2,60.006828563631075,
10,,,,,0,0,0,2,8,0,8,0,17,0,17,0,,,,,,,,,,,,,,,,,1040.2764807995409,None,1040.8601297000423,1041.110026099719,1041.07691529952,1043.0773422997445,j,1,0.2431629104539752,2.2435171101242304,decreament,0.24,22,oddball,j,40,0.6833589002490044,,,,,,,f,22,230,fr,r,0,raw,2022-07-07_10h38.51.154,oddball,2022.1.2,60.006828563631075,
10,,,,,0,0,0,2,8,0,8,0,18,0,18,0,,,,,,,,,,,,,,,,,1043.0943342000246,None,1043.8113510999829,1044.4113630997017,1044.394663799554,1046.3951913993806,None,1,0.6129697095602751,2.613456410355866,decreament,0.6,21,standard,None,100,,,,,,,,f,22,230,fr,r,0,raw,2022-07-07_10h38.51.154,oddball,2022.1.2,60.006828563631075,
10,,,,,0,0,0,2,8,0,8,0,19,0,19,0,,,,,,,,,,,,,,,,,1046.4119677999988,None,1047.095629199408,1047.6957968994975,1047.6792825991288,1049.679959799163,None,1,0.6118347104638815,2.6125224102288485,decreament,0.6,21,standard,None,100,,,,,,,,f,22,230,fr,r,0,raw,2022-07-07_10h38.51.154,oddball,2022.1.2,60.006828563631075,
10,,,,,0,0,0,2,8,0,8,0,20,0,20,0,,,,,,,,,,,,,,,,,1049.6966756992042,None,1050.4631765997037,1051.0636586993933,1051.046919199638,1053.0483210999519,None,1,0.6144574107602239,2.6159369107335806,decreament,0.6,21,standard,None,100,,,,,,,,f,22,230,fr,r,0,raw,2022-07-07_10h38.51.154,oddball,2022.1.2,60.006828563631075,
10,,,,,0,0,0,2,8,0,8,0,21,0,21,0,,,,,,,,,,,,,,,,,1053.0644723000005,None,1053.8479849994183,1054.4482217999175,1054.4316481994465,1056.432246199809,None,1,0.6145678106695414,2.615142710506916,decreament,0.6,21,standard,None,100,,,,,,,,f,22,230,fr,r,0,raw,2022-07-07_10h38.51.154,oddball,2022.1.2,60.006828563631075,
10,,,,,0,0,0,2,8,0,8,0,22,0,22,0,,,,,,,,,,,,,,,,,1056.4491961998865,None,1057.0495736999437,1057.6497043995187,1057.6330675994977,1059.634211299941,None,1,0.6111965104937553,2.612419710494578,decreament,0.6,21,standard,None,100,,,,,,,,f,22,230,fr,r,0,raw,2022-07-07_10h38.51.154,oddball,2022.1.2,60.006828563631075,
10,,,,,0,0,0,2,8,0,8,0,23,0,23,0,,,,,,,,,,,,,,,,,1059.6511630993336,None,1060.2672029994428,1060.8673315998167,1060.8509687995538,1062.8515515998006,None,1,0.6140583101660013,2.614577409811318,decreament,0.6,21,standard,None,100,,,,,,,,f,22,230,fr,r,0,raw,2022-07-07_10h38.51.154,oddball,2022.1.2,60.006828563631075,
10,,,,,0,0,0,2,8,0,8,0,24,0,24,0,,,,,,,,,,,,,,,,,1062.8683159993961,None,1063.5349426995963,1064.1356515996158,1064.1188180996105,1066.1193451993167,None,1,0.6137803103774786,2.614294610917568,decreament,0.6,21,standard,None,100,,,,,,,,f,22,230,fr,r,0,raw,2022-07-07_10h38.51.154,oddball,2022.1.2,60.006828563631075,
10,,,,,0,0,0,2,8,0,8,0,25,0,25,0,,,,,,,,,,,,,,,,,1066.1362234996632,None,1066.7698864992708,1067.3701151991263,1067.353792199865,1069.354224799201,None,1,0.6112528089433908,2.6116501092910767,decreament,0.6,21,standard,None,100,,,,,,,,f,22,230,fr,r,0,raw,2022-07-07_10h38.51.154,oddball,2022.1.2,60.006828563631075,
10,,,,,0,0,0,2,8,0,8,0,26,0,26,0,,,,,,,,,,,,,,,,,1069.3708350993693,None,1070.354585699737,1070.7212161999196,1070.6883364999667,1072.6885384991765,j,1,0.35972351022064686,2.359836909919977,decreament,0.36,23,oddball,j,60,0.7446042001247406,,,,,,,f,22,230,fr,r,0,raw,2022-07-07_10h38.51.154,oddball,2022.1.2,60.006828563631075,
10,,,,,0,0,0,2,8,0,8,0,27,0,27,0,,,,,,,,,,,,,,,,,1072.7051136000082,None,1073.2721579000354,1073.8723365999758,1073.8558101998642,1075.856947899796,None,1,0.6123288106173277,2.613542811013758,decreament,0.6,21,standard,None,100,,,,,,,,f,22,230,fr,r,0,raw,2022-07-07_10h38.51.154,oddball,2022.1.2,60.006828563631075,
10,,,,,0,0,0,2,8,0,8,0,28,0,28,0,,,,,,,,,,,,,,,,,1075.8729805992916,None,1076.506985599175,1077.1068034991622,1077.0903977993876,1079.0908571993932,None,1,0.6121752094477415,2.612666209228337,decreament,0.6,21,standard,None,100,,,,,,,,f,22,230,fr,r,0,raw,2022-07-07_10h38.51.154,oddball,2022.1.2,60.006828563631075,
10,,,,,0,0,0,2,8,0,8,0,29,0,29,0,,,,,,,,,,,,,,,,,1079.1077728997916,None,1079.791271599941,1080.391524599865,1080.3749549994245,1082.3755616992712,None,1,0.6115958103910089,2.612239509820938,decreament,0.6,21,standard,None,100,,,,,,,,f,22,230,fr,r,0,raw,2022-07-07_10h38.51.154,oddball,2022.1.2,60.006828563631075,
10,,,,,0,0,0,2,9,0,9,0,0,0,0,0,,,,,,,,,,,,,,,1086.1863357992843,None,1088.9282310996205,None,1089.5618088999763,1090.1618017992005,1090.1453997995704,1092.1459766998887,None,1,0.6107176104560494,2.6110081104561687,increament,0.6,25,standard,None,100,,1082.3960553994402,None,,,,,f,22,230,fr,r,0,raw,2022-07-07_10h38.51.154,oddball,2022.1.2,60.006828563631075,
10,,,,,0,0,0,2,9,0,9,0,1,0,1,0,,,,,,,,,,,,,,,,,1092.162765099667,None,1092.7631858000532,1093.3634982993826,1093.346544499509,1095.3475690996274,None,1,0.6113042095676064,2.6123812096193433,increament,0.6,25,standard,None,100,,,,,,,,f,22,230,fr,r,0,raw,2022-07-07_10h38.51.154,oddball,2022.1.2,60.006828563631075,
10,,,,,0,0,0,2,9,0,9,0,2,0,2,0,,,,,,,,,,,,,,,,,1095.3639619993046,None,1095.9142705993727,1096.5144154997543,1096.497855199501,1098.4987924993038,None,1,0.6096809105947614,2.610667910426855,increament,0.6,25,standard,None,100,,,,,,,,f,22,230,fr,r,0,raw,2022-07-07_10h38.51.154,oddball,2022.1.2,60.006828563631075,
10,,,,,0,0,0,2,9,0,9,0,3,0,3,0,,,,,,,,,,,,,,,,,1098.5150414993986,None,1099.0822798991576,1099.6821652995422,1099.665450799279,1101.6662463992834,None,1,0.6111004101112485,2.6119340108707547,increament,0.6,25,standard,None,100,,,,,,,,f,22,230,fr,r,0,raw,2022-07-07_10h38.51.154,oddball,2022.1.2,60.006828563631075,
10,,,,,0,0,0,2,9,0,9,0,4,0,4,0,,,,,,,,,,,,,,,,,1101.683077399619,None,1102.250018700026,1102.8499329993501,1102.8333990992978,1104.8342963997275,None,1,0.6125156106427312,2.613508510403335,increament,0.6,25,standard,None,100,,,,,,,,f,22,230,fr,r,0,raw,2022-07-07_10h38.51.154,oddball,2022.1.2,60.006828563631075,
10,,,,,0,0,0,2,9,0,9,0,5,0,5,0,,,,,,,,,,,,,,,,,1104.8509124992415,None,1105.4510013991967,1106.0517226997763,1106.0350542999804,1108.035186799243,None,1,0.6128579098731279,2.61291251052171,increament,0.6,25,standard,None,100,,,,,,,,f,22,230,fr,r,0,raw,2022-07-07_10h38.51.154,oddball,2022.1.2,60.006828563631075,
10,,,,,0,0,0,2,9,0,9,0,6,0,6,0,,,,,,,,,,,,,,,,,1108.0519802998751,None,1108.7025635000318,1109.3022918999195,1109.2857833998278,1111.2867527995259,None,1,0.6092153107747436,2.610211410559714,increament,0.6,25,standard,None,100,,,,,,,,f,22,230,fr,r,0,raw,2022-07-07_10h38.51.154,oddball,2022.1.2,60.006828563631075,
10,,,,,0,0,0,2,9,0,9,0,7,0,7,0,,,,,,,,,,,,,,,,,1111.303613299504,None,1111.887052799575,1112.4867533994839,1112.470224400051,1114.4711095998064,None,1,0.6075413106009364,2.6084648109972477,increament,0.6,25,standard,None,100,,,,,,,,f,22,230,fr,r,0,raw,2022-07-07_10h38.51.154,oddball,2022.1.2,60.006828563631075,
10,,,,,0,0,0,2,9,0,9,0,8,0,8,0,,,,,,,,,,,,,,,,,1114.4879880994558,None,1115.1714104991406,1115.7715541999787,1115.7550117997453,1117.7560610994697,None,1,0.6138568101450801,2.614956010133028,increament,0.6,25,standard,None,100,,,,,,,,f,22,230,fr,r,0,raw,2022-07-07_10h38.51.154,oddball,2022.1.2,60.006828563631075,
10,,,,,0,0,0,2,9,0,9,0,9,0,9,0,,,,,,,,,,,,,,,,,1117.7740337997675,None,1118.439467699267,1119.4060438992456,1119.3729462996125,1121.3735053995624,j,1,0.9619428096339107,2.9624636098742485,increament,0.96,28,oddball,j,160,0.3710612999275327,,,,,,,f,22,230,fr,r,0,raw,2022-07-07_10h38.51.154,oddball,2022.1.2,60.006828563631075,
10,,,,,0,0,0,2,9,0,9,0,10,0,10,0,,,,,,,,,,,,,,,,,1121.3903562994674,None,1121.9577558999881,1122.557306099683,1122.5408144993708,1124.541573899798,None,1,0.6120056109502912,2.612797310575843,increament,0.6,25,standard,None,100,,,,,,,,f,22,230,fr,r,0,raw,2022-07-07_10h38.51.154,oddball,2022.1.2,60.006828563631075,
10,,,,,0,0,0,2,9,0,9,0,11,0,11,0,,,,,,,,,,,,,,,,,1124.5583114996552,None,1125.1252234997228,1125.7255854997784,1125.7087168991566,1127.7094365991652,None,1,0.6120010102167726,2.6127094104886055,increament,0.6,25,standard,None,100,,,,,,,,f,22,230,fr,r,0,raw,2022-07-07_10h38.51.154,oddball,2022.1.2,60.006828563631075,
10,,,,,0,0,0,2,9,0,9,0,12,0,12,0,,,,,,,,,,,,,,,,,1127.7260686997324,None,1128.3433004999533,1128.9431598000228,1128.9267718996853,1130.9277677992359,None,1,0.6092231096699834,2.6103086099028587,increament,0.6,25,standard,None,100,,,,,,,,f,22,230,fr,r,0,raw,2022-07-07_10h38.51.154,oddball,2022.1.2,60.006828563631075,
10,,,,,0,0,0,2,9,0,9,0,13,0,13,0,,,,,,,,,,,,,,,,,1130.9449781998992,None,1131.594353299588,1132.1945344991982,1132.1776749994606,1134.1786721991375,None,1,0.6123050106689334,2.61338591016829,increament,0.6,25,standard,None,100,,,,,,,,f,22,230,fr,r,0,raw,2022-07-07_10h38.51.154,oddball,2022.1.2,60.006828563631075,
10,,,,,0,0,0,2,9,0,9,0,14,0,14,0,,,,,,,,,,,,,,,,,1134.1959563000128,None,1134.7955811992288,1135.3956093993038,1135.3791485000402,1137.379831600003,None,1,0.6123020108789206,2.6129791103303432,increament,0.6,25,standard,None,100,,,,,,,,f,22,230,fr,r,0,raw,2022-07-07_10h38.51.154,oddball,2022.1.2,60.006828563631075,
10,,,,,0,0,0,2,9,0,9,0,15,0,15,0,,,,,,,,,,,,,,,,,1137.3967048991472,None,1138.113233199343,1138.7136537991464,1138.6969877993688,1140.6975067993626,None,1,0.6125257089734077,2.613042308948934,increament,0.6,25,standard,None,100,,,,,,,,f,22,230,fr,r,0,raw,2022-07-07_10h38.51.154,oddball,2022.1.2,60.006828563631075,
10,,,,,0,0,0,2,9,0,9,0,16,0,16,0,,,,,,,,,,,,,,,,,1140.7140083992854,None,1141.4648023992777,1142.0648275995627,1142.048690199852,1144.0489591993392,None,1,0.6128309099003673,2.6130633102729917,increament,0.6,25,standard,None,100,,,,,,,,f,22,230,fr,r,0,raw,2022-07-07_10h38.51.154,oddball,2022.1.2,60.006828563631075,
10,,,,,0,0,0,2,9,0,9,0,17,0,17,0,,,,,,,,,,,,,,,,,1144.065775799565,None,1144.699139399454,1145.2995353993028,1145.282728199847,1147.2836955999956,None,1,0.6140360105782747,2.6150542106479406,increament,0.6,25,standard,None,100,,,,,,,,f,22,230,fr,r,0,raw,2022-07-07_10h38.51.154,oddball,2022.1.2,60.006828563631075,
10,,,,,0,0,0,2,9,0,9,0,18,0,18,0,,,,,,,,,,,,,,,,,1147.300375099294,None,1147.9505368992686,1148.5507167996839,1148.5341397998855,1150.534696499817,None,1,0.6121910093352199,2.6127381091937423,increament,0.6,25,standard,None,100,,,,,,,,f,22,230,fr,r,0,raw,2022-07-07_10h38.51.154,oddball,2022.1.2,60.006828563631075,
10,,,,,0,0,0,2,9,0,9,0,19,0,19,0,,,,,,,,,,,,,,,,,1150.5516374995932,None,1151.1682575996965,1151.7684434000403,1151.7526915995404,1153.7525647999719,None,1,0.6124526103958488,2.612234710715711,increament,0.6,25,standard,None,100,,,,,,,,f,22,230,fr,r,0,raw,2022-07-07_10h38.51.154,oddball,2022.1.2,60.006828563631075,
10,,,,,0,0,0,2,9,0,9,0,20,0,20,0,,,,,,,,,,,,,,,,,1153.7694072993472,None,1154.4862282993272,1155.3365108994767,1155.3034089999273,1157.3042062995955,j,1,0.8463606107980013,2.847127511166036,increament,0.84,27,oddball,j,140,0.7847798001021147,,,,,,,f,22,230,fr,r,0,raw,2022-07-07_10h38.51.154,oddball,2022.1.2,60.006828563631075,
10,,,,,0,0,0,2,9,0,9,0,21,0,21,0,,,,,,,,,,,,,,,,,1157.32060249988,None,1157.9875166993588,1158.5877642994747,1158.571142499335,1160.5720988996327,None,1,0.6124052098020911,2.613397610373795,increament,0.6,25,standard,None,100,,,,,,,,f,22,230,fr,r,0,raw,2022-07-07_10h38.51.154,oddball,2022.1.2,60.006828563631075,
10,,,,,0,0,0,2,9,0,9,0,22,0,22,0,,,,,,,,,,,,,,,,,1160.5888722995296,None,1161.1221774993464,1161.722756699659,1161.7058517998084,1163.7068673996255,None,1,0.6114259101450443,2.6124506099149585,increament,0.6,25,standard,None,100,,,,,,,,f,22,230,fr,r,0,raw,2022-07-07_10h38.51.154,oddball,2022.1.2,60.006828563631075,
10,,,,,0,0,0,2,9,0,9,0,23,0,23,0,,,,,,,,,,,,,,,,,1163.7233364991844,None,1164.4232606999576,1165.0234636999667,1165.0071444995701,1167.007633799687,None,1,0.6144069097936153,2.6148210102692246,increament,0.6,25,standard,None,100,,,,,,,,f,22,230,fr,r,0,raw,2022-07-07_10h38.51.154,oddball,2022.1.2,60.006828563631075,
10,,,,,0,0,0,2,9,0,9,0,24,0,24,0,,,,,,,,,,,,,,,,,1167.0245204996318,None,1167.5746659999713,1168.3084328994155,1168.2748420992866,1170.2758663995191,None,0,0.7284927098080516,2.7295715091750026,increament,0.72,26,oddball,j,120,,,,,,,,f,22,230,fr,r,0,raw,2022-07-07_10h38.51.154,oddball,2022.1.2,60.006828563631075,
10,,,,,0,0,0,2,9,0,9,0,25,0,25,0,,,,,,,,,,,,,,,,,1170.2923665000126,None,1171.0090034995228,1171.609501099214,1171.5930325994268,1173.593587999232,None,1,0.610837809741497,2.6114038098603487,increament,0.6,25,standard,None,100,,,,,,,,f,22,230,fr,r,0,raw,2022-07-07_10h38.51.154,oddball,2022.1.2,60.006828563631075,
10,,,,,0,0,0,2,9,0,9,0,26,0,26,0,,,,,,,,,,,,,,,,,1173.6103451000527,None,1174.3439088994637,1174.9439242994413,1174.9274066993967,1176.9285733997822,None,1,0.6130209099501371,2.614239609800279,increament,0.6,25,standard,None,100,,,,,,,,f,22,230,fr,r,0,raw,2022-07-07_10h38.51.154,oddball,2022.1.2,60.006828563631075,
10,,,,,0,0,0,2,9,0,9,0,27,0,27,0,,,,,,,,,,,,,,,,,1176.9446755992249,None,1177.6615839991719,1178.261830999516,1178.2453928999603,1180.24608779978,None,1,0.6096918107941747,2.610375910066068,increament,0.6,25,standard,None,100,,,,,,,,f,22,230,fr,r,0,raw,2022-07-07_10h38.51.154,oddball,2022.1.2,60.006828563631075,
10,,,,,0,0,0,2,9,0,9,0,28,0,28,0,,,,,,,,,,,,,,,,,1180.2626525992528,None,1180.9965199995786,1181.596518899314,1181.5800939993933,1183.580550399609,None,1,0.612536009401083,2.6129027092829347,increament,0.6,25,standard,None,100,,,,,,,,f,22,230,fr,r,0,raw,2022-07-07_10h38.51.154,oddball,2022.1.2,60.006828563631075,
10,,,,,0,0,0,2,9,0,9,0,29,0,29,0,,,,,,,,,,,,,,,,,1183.597210499458,None,1184.2979875998572,1184.8982418999076,1184.8816108992323,1186.8822769997641,None,1,0.611670009791851,2.6123332092538476,increament,0.6,25,standard,None,100,,,,,,,,f,22,230,fr,r,0,raw,2022-07-07_10h38.51.154,oddball,2022.1.2,60.006828563631075,
20,,,,,0,1,1,3,0,0,0,0,0,0,0,0,,,,,,,,,,,,,,,1379.027847699821,None,1381.5223154993728,None,1382.0887255994603,1382.6895425999537,1382.672965299338,1384.673450499773,None,1,0.6148523101583123,2.615289209410548,decreament,0.6,41,standard,None,100,,1366.933760699816,None,1186.921692200005,None,,,f,22,230,fr,r,0,raw,2022-07-07_10h38.51.154,oddball,2022.1.2,60.006828563631075,
20,,,,,0,1,1,3,0,0,0,0,1,0,1,0,,,,,,,,,,,,,,,,,1384.690066599287,None,1385.3572174999863,1385.9574297992513,1385.9410603996366,1387.941467399709,None,1,0.6098023094236851,2.610129409469664,decreament,0.6,41,standard,None,100,,,,,,,,f,22,230,fr,r,0,raw,2022-07-07_10h38.51.154,oddball,2022.1.2,60.006828563631075,
20,,,,,0,1,1,3,0,0,0,0,2,0,2,0,,,,,,,,,,,,,,,,,1387.958033300005,None,1388.575028100051,1389.1750243995339,1389.1585144000128,1391.1593826999888,None,1,0.6108917109668255,2.611854210495949,decreament,0.6,41,standard,None,100,,,,,,,,f,22,230,fr,r,0,raw,2022-07-07_10h38.51.154,oddball,2022.1.2,60.006828563631075,
20,,,,,0,1,1,3,0,0,0,0,3,0,3,0,,,,,,,,,,,,,,,,,1391.1765730995685,None,1391.8930078996345,1392.4930154997855,1392.4764607995749,1394.4770197998732,None,1,0.6102940095588565,2.6108479099348187,decreament,0.6,41,standard,None,100,,,,,,,,f,22,230,fr,r,0,raw,2022-07-07_10h38.51.154,oddball,2022.1.2,60.006828563631075,
20,,,,,0,1,1,3,0,0,0,0,4,0,4,0,,,,,,,,,,,,,,,,,1394.4939900999889,None,1395.1274452991784,1395.7278028996661,1395.7111635999754,1397.7118277996778,None,1,0.6128886099904776,2.613605109974742,decreament,0.6,41,standard,None,100,,,,,,,,f,22,230,fr,r,0,raw,2022-07-07_10h38.51.154,oddball,2022.1.2,60.006828563631075,
20,,,,,0,1,1,3,0,0,0,0,5,0,5,0,,,,,,,,,,,,,,,,,1397.7288057999685,None,1398.5293166991323,1399.1291763996705,1399.1125353993848,1401.112945699133,None,1,0.6095827091485262,2.610005808994174,decreament,0.6,41,standard,None,100,,,,,,,,f,22,230,fr,r,0,raw,2022-07-07_10h38.51.154,oddball,2022.1.2,60.006828563631075,
20,,,,,0,1,1,3,0,0,0,0,6,0,6,0,,,,,,,,,,,,,,,,,1401.1297108000144,None,1401.7130765998736,1402.3135987995192,1402.2971377996728,1404.2977892998606,None,1,0.6117510106414557,2.61241911072284,decreament,0.6,41,standard,None,100,,,,,,,,f,22,230,fr,r,0,raw,2022-07-07_10h38.51.154,oddball,2022.1.2,60.006828563631075,
20,,,,,0,1,1,3,0,0,0,0,7,0,7,0,,,,,,,,,,,,,,,,,1404.3143176995218,None,1404.981237099506,1405.5813984991983,1405.564663699828,1407.5659041991457,None,1,0.609549411572516,2.610864411108196,decreament,0.6,41,standard,None,100,,,,,,,,f,22,230,fr,r,0,raw,2022-07-07_10h38.51.154,oddball,2022.1.2,60.006828563631075,
20,,,,,0,1,1,3,0,0,0,0,8,0,8,0,,,,,,,,,,,,,,,,,1407.5820848997682,None,1408.265883599408,1408.8658042997122,1408.8495477000251,1410.850042199716,None,1,0.6110907113179564,2.6115930108353496,decreament,0.6,41,standard,None,100,,,,,,,,f,22,230,fr,r,0,raw,2022-07-07_10h38.51.154,oddball,2022.1.2,60.006828563631075,
20,,,,,0,1,1,3,0,0,0,0,9,0,9,0,,,,,,,,,,,,,,,,,1410.8668764997274,None,1411.6167739992961,1412.1003893995658,1412.0675356993452,1414.0676721995696,None,0,0.4813769096508622,2.4814161099493504,decreament,0.48,44,oddball,j,80,,,,,,,,f,22,230,fr,r,0,raw,2022-07-07_10h38.51.154,oddball,2022.1.2,60.006828563631075,
20,,,,,0,1,1,3,0,0,0,0,10,0,10,0,,,,,,,,,,,,,,,,,1414.0847852993757,None,1414.8352179992944,1415.435026999563,1415.418398199603,1417.4190213996917,None,1,0.6089228102937341,2.6094853095710278,decreament,0.6,41,standard,None,100,,,,,,,,f,22,230,fr,r,0,raw,2022-07-07_10h38.51.154,oddball,2022.1.2,60.006828563631075,
20,,,,,0,1,1,3,0,0,0,0,11,0,11,0,,,,,,,,,,,,,,,,,1417.4359646998346,None,1417.9861918995157,1418.5862268991768,1418.5697219995782,1420.5701998993754,None,1,0.6130093103274703,2.6134574096649885,decreament,0.6,41,standard,None,100,,,,,,,,f,22,230,fr,r,0,raw,2022-07-07_10h38.51.154,oddball,2022.1.2,60.006828563631075,
20,,,,,0,1,1,3,0,0,0,0,12,0,12,0,,,,,,,,,,,,,,,,,1420.5868479991332,None,1421.1375856995583,1421.7374401995912,1421.721149499528,1423.7217317996547,None,1,0.6104672094807029,2.6109772101044655,decreament,0.6,41,standard,None,100,,,,,,,,f,22,230,fr,r,0,raw,2022-07-07_10h38.51.154,oddball,2022.1.2,60.006828563631075,
