grating_freq,blocks_prac.thisRepN,blocks_prac.thisTrialN,blocks_prac.thisN,blocks_prac.thisIndex,blocks.thisRepN,blocks.thisTrialN,blocks.thisN,blocks.thisIndex,repeat_freq.thisRepN,repeat_freq.thisTrialN,repeat_freq.thisN,repeat_freq.thisIndex,trials.thisRepN,trials.thisTrialN,trials.thisN,trials.thisIndex,break_loop.thisRepN,break_loop.thisTrialN,break_loop.thisN,break_loop.thisIndex,rest_loop.thisRepN,rest_loop.thisTrialN,rest_loop.thisN,rest_loop.thisIndex,instruct_prac_text.started,instruct_prac_resp.started,b_instruct_text_2_.started,b_instruct_resp_2_.started,prac_done_text.started,prac_done_resp.started,instruct_text.started,instruct_resp.started,fixation.started,fixation.stopped,grating.started,blank.started,resp.started,grating.stopped,blank.stopped,resp.stopped,resp.keys,resp.corr,direction,duration,trigger,stim_type,corr_ans,scaling,resp.rt,rest_text.started,rest_resp.started,text_2.started,text_2.stopped,thx_txt.started,thx_txt.stopped,gender,age,participant,language,main_hand,nBlock_prac,file_suffix,date,expName,psychopyVersion,frameRate,
10,,,,,0,0,0,2,0,0,0,0,0,0,0,0,,,,,,,,,25.515023400000246,25.515023400000246,28.707926300000054,28.707926300000054,60.883027700000184,60.883027700000184,64.58267550000028,64.58267550000028,67.22587740000017,68.06395750000001,68.06395750000001,68.57608470000014,0.5995981999999458,68.67603260000033,70.5763167,2.599782000000232,None,1,increament,0.6,25,standard,None,100,,,,,,,,m,24,232,fr,r,0,raw,2023-04-04_12h05.21.685,oddball,2022.2.5,60.26924683330714,
10,,,,,0,0,0,2,0,0,0,0,1,0,1,0,,,,,,,,,,,,,,,,,70.59274129999994,71.30949700000019,71.30949700000019,71.89329159999988,0.5996334999999817,71.90974090000009,73.89318840000033,2.5994565999999395,None,1,increament,0.6,25,standard,None,100,,,,,,,,m,24,232,fr,r,0,raw,2023-04-04_12h05.21.685,oddball,2022.2.5,60.26924683330714,
10,,,,,0,0,0,2,0,0,0,0,2,0,2,0,,,,,,,,,,,,,,,,,73.90961109999989,74.42605249999997,74.42605249999997,75.01005940000005,0.6002662000000782,75.02628600000025,77.01003740000033,2.600240600000234,None,1,increament,0.6,25,standard,None,100,,,,,,,,m,24,232,fr,r,0,raw,2023-04-04_12h05.21.685,oddball,2022.2.5,60.26924683330714,
10,,,,,0,0,0,2,0,0,0,0,3,0,3,0,,,,,,,,,,,,,,,,,77.02640820000033,77.70931289999999,77.70931289999999,78.29298779999999,0.5997506999997313,78.30963530000008,80.29312250000021,2.5998955999998543,None,1,increament,0.6,25,standard,None,100,,,,,,,,m,24,232,fr,r,0,raw,2023-04-04_12h05.21.685,oddball,2022.2.5,60.26924683330714,
10,,,,,0,0,0,2,0,0,0,0,4,0,4,0,,,,,,,,,,,,,,,,,80.30985240000018,81.1268683000003,81.1268683000003,81.72687040000028,0.6155573000000913,81.72687040000028,83.72633630000018,2.614732600000025,None,1,increament,0.6,25,standard,None,100,,,,,,,,m,24,232,fr,r,0,raw,2023-04-04_12h05.21.685,oddball,2022.2.5,60.26924683330714,
10,,,,,0,0,0,2,0,0,0,0,5,0,5,0,,,,,,,,,,,,,,,,,83.74330140000029,84.37681539999994,84.37681539999994,84.97705140000016,0.6153954000001249,84.97705140000016,86.97656610000013,2.614799200000107,None,1,increament,0.6,25,standard,None,100,,,,,,,,m,24,232,fr,r,0,raw,2023-04-04_12h05.21.685,oddball,2022.2.5,60.26924683330714,
10,,,,,0,0,0,2,0,0,0,0,6,0,6,0,,,,,,,,,,,,,,,,,86.99320579999994,87.5768063999999,87.5768063999999,88.16003900000032,0.5997812000000522,88.17661560000033,90.1601542000003,2.5999025000000984,None,1,increament,0.6,25,standard,None,100,,,,,,,,m,24,232,fr,r,0,raw,2023-04-04_12h05.21.685,oddball,2022.2.5,60.26924683330714,
10,,,,,0,0,0,2,0,0,0,0,7,0,7,0,,,,,,,,,,,,,,,,,90.17673439999999,90.79374830000006,90.79374830000006,91.39369010000019,0.6152122000003146,91.39369010000019,93.39368650000006,2.615157100000033,None,1,increament,0.6,25,standard,None,100,,,,,,,,m,24,232,fr,r,0,raw,2023-04-04_12h05.21.685,oddball,2022.2.5,60.26924683330714,
10,,,,,0,0,0,2,0,0,0,0,8,0,8,0,,,,,,,,,,,,,,,,,93.41030249999994,94.12681530000009,94.12681530000009,94.71021449999989,0.5996776000001773,94.72692670000015,96.7107573000003,2.6003092000000834,None,1,increament,0.6,25,standard,None,100,,,,,,,,m,24,232,fr,r,0,raw,2023-04-04_12h05.21.685,oddball,2022.2.5,60.26924683330714,
10,,,,,0,0,0,2,0,0,0,0,9,0,9,0,,,,,,,,,,,,,,,,,96.72712920000004,97.3271219000003,97.3271219000003,97.9102582999999,0.5994724000001952,97.92689449999989,99.91038210000033,2.599594000000252,None,1,increament,0.6,25,standard,None,100,,,,,,,,m,24,232,fr,r,0,raw,2023-04-04_12h05.21.685,oddball,2022.2.5,60.26924683330714,
10,,,,,0,0,0,2,0,0,0,0,10,0,10,0,,,,,,,,,,,,,,,,,99.9270262,100.51106299999992,100.51106299999992,101.11103959999991,0.6155195999999705,101.11103959999991,103.11066329999994,2.6149899000001824,None,1,increament,0.6,25,standard,None,100,,,,,,,,m,24,232,fr,r,0,raw,2023-04-04_12h05.21.685,oddball,2022.2.5,60.26924683330714,
10,,,,,0,0,0,2,0,0,0,0,11,0,11,0,,,,,,,,,,,,,,,,,103.12725720000026,103.89414680000027,103.89414680000027,104.4939518000001,0.5991379000001871,104.4939518000001,106.4941761,2.5992090999998254,None,1,increament,0.6,25,standard,None,100,,,,,,,,m,24,232,fr,r,0,raw,2023-04-04_12h05.21.685,oddball,2022.2.5,60.26924683330714,
10,,,,,0,0,0,2,0,0,0,0,12,0,12,0,,,,,,,,,,,,,,,,,106.4941761,107.11105769999995,107.11105769999995,107.71076660000017,0.6153675000000476,107.71076660000017,109.71112859999994,2.61582240000007,None,1,increament,0.6,25,standard,None,100,,,,,,,,m,24,232,fr,r,0,raw,2023-04-04_12h05.21.685,oddball,2022.2.5,60.26924683330714,
10,,,,,0,0,0,2,0,0,0,0,13,0,13,0,,,,,,,,,,,,,,,,,109.72761340000034,110.37779380000029,110.37779380000029,110.97779070000024,0.5991284000001542,110.97779070000024,112.97768059999999,2.5986840999999004,None,1,increament,0.6,25,standard,None,100,,,,,,,,m,24,232,fr,r,0,raw,2023-04-04_12h05.21.685,oddball,2022.2.5,60.26924683330714,
10,,,,,0,0,0,2,0,0,0,0,14,0,14,0,,,,,,,,,,,,,,,,,112.97768059999999,113.52777700000024,113.52777700000024,114.11122969999997,0.5996278999996321,114.12751470000012,116.11166550000007,2.6001093999998375,None,1,increament,0.6,25,standard,None,100,,,,,,,,m,24,232,fr,r,0,raw,2023-04-04_12h05.21.685,oddball,2022.2.5,60.26924683330714,
10,,,,,0,0,0,2,0,0,0,0,15,0,15,0,,,,,,,,,,,,,,,,,116.12817330000007,116.82831140000008,116.82831140000008,117.42777999999998,0.6142382999996698,117.42777999999998,119.42785690000028,2.614307099999678,None,1,increament,0.6,25,standard,None,100,,,,,,,,m,24,232,fr,r,0,raw,2023-04-04_12h05.21.685,oddball,2022.2.5,60.26924683330714,
10,,,,,0,0,0,2,0,0,0,0,16,0,16,0,,,,,,,,,,,,,,,,,119.44451990000016,120.2615636999999,120.2615636999999,120.86131150000028,0.6155603000001975,120.86131150000028,122.8612763000001,2.6154781000000185,None,1,increament,0.6,25,standard,None,100,,,,,,,,m,24,232,fr,r,0,raw,2023-04-04_12h05.21.685,oddball,2022.2.5,60.26924683330714,
10,,,,,0,0,0,2,0,0,0,0,17,0,17,0,,,,,,,,,,,,,,,,,122.87800880000032,123.47812680000015,123.47812680000015,124.42850270000008,0.9665375000004133,124.44504750000033,126.42814510000017,2.966104600000108,j,1,increament,0.96,28,oddball,j,160,0.45927400000005036,,,,,,,m,24,232,fr,r,0,raw,2023-04-04_12h05.21.685,oddball,2022.2.5,60.26924683330714,
10,,,,,0,0,0,2,0,0,0,0,18,0,18,0,,,,,,,,,,,,,,,,,126.44475929999999,127.09491250000019,127.09491250000019,127.67859910000016,0.5993017999999211,127.6948339999999,129.6783902000002,2.5989792999998826,None,1,increament,0.6,25,standard,None,100,,,,,,,,m,24,232,fr,r,0,raw,2023-04-04_12h05.21.685,oddball,2022.2.5,60.26924683330714,
10,,,,,0,0,0,2,0,0,0,0,19,0,19,0,,,,,,,,,,,,,,,,,129.69497200000023,130.29513640000005,130.29513640000005,130.8788526000003,0.5993301999997129,130.89530839999998,132.8788930999999,2.5993565999997372,None,1,increament,0.6,25,standard,None,100,,,,,,,,m,24,232,fr,r,0,raw,2023-04-04_12h05.21.685,oddball,2022.2.5,60.26924683330714,
10,,,,,0,0,0,2,0,0,0,0,20,0,20,0,,,,,,,,,,,,,,,,,132.89527950000002,133.52886609999996,133.52886609999996,134.11235860000033,0.5992175000001225,134.12836910000033,136.11207270000023,2.598869899999954,None,1,increament,0.6,25,standard,None,100,,,,,,,,m,24,232,fr,r,0,raw,2023-04-04_12h05.21.685,oddball,2022.2.5,60.26924683330714,
10,,,,,0,0,0,2,0,0,0,0,21,0,21,0,,,,,,,,,,,,,,,,,136.12875480000002,136.77895630000012,136.77895630000012,137.3789769,0.6157255999996778,137.3789769,139.3786199000001,2.615287499999795,None,1,increament,0.6,25,standard,None,100,,,,,,,,m,24,232,fr,r,0,raw,2023-04-04_12h05.21.685,oddball,2022.2.5,60.26924683330714,
10,,,,,0,0,0,2,0,0,0,0,22,0,22,0,,,,,,,,,,,,,,,,,139.39522350000016,140.02867330000026,140.02867330000026,140.8619587000003,0.8495087000001149,140.87852810000004,142.86199729999998,2.8495625000000473,j,1,increament,0.84,27,oddball,j,140,0.44250609999994595,,,,,,,m,24,232,fr,r,0,raw,2023-04-04_12h05.21.685,oddball,2022.2.5,60.26924683330714,
10,,,,,0,0,0,2,0,0,0,0,23,0,23,0,,,,,,,,,,,,,,,,,142.87854939999988,143.59561110000004,143.59561110000004,144.1953837000001,0.6148985999998331,144.1953837000001,146.19579190000013,2.6153973999998925,None,1,increament,0.6,25,standard,None,100,,,,,,,,m,24,232,fr,r,0,raw,2023-04-04_12h05.21.685,oddball,2022.2.5,60.26924683330714,
10,,,,,0,0,0,2,0,0,0,0,24,0,24,0,,,,,,,,,,,,,,,,,146.21235370000022,147.01265600000033,147.01265600000033,147.61221680000017,0.6145546000002469,147.61221680000017,149.6125477999999,2.614961100000073,None,1,increament,0.6,25,standard,None,100,,,,,,,,m,24,232,fr,r,0,raw,2023-04-04_12h05.21.685,oddball,2022.2.5,60.26924683330714,
10,,,,,0,0,0,2,0,0,0,0,25,0,25,0,,,,,,,,,,,,,,,,,149.62917199999993,150.34593070000028,150.34593070000028,150.9453208,0.6144442999998319,150.9453208,152.94574450000027,2.614881399999831,None,1,increament,0.6,25,standard,None,100,,,,,,,,m,24,232,fr,r,0,raw,2023-04-04_12h05.21.685,oddball,2022.2.5,60.26924683330714,
10,,,,,0,0,0,2,0,0,0,0,26,0,26,0,,,,,,,,,,,,,,,,,152.9624299000002,153.52908370000023,153.52908370000023,154.11240260000022,0.5996602000000166,154.12909420000005,156.1129579000003,2.6002967999997963,None,1,increament,0.6,25,standard,None,100,,,,,,,,m,24,232,fr,r,0,raw,2023-04-04_12h05.21.685,oddball,2022.2.5,60.26924683330714,
10,,,,,0,0,0,2,0,0,0,0,27,0,27,0,,,,,,,,,,,,,,,,,156.12934489999998,156.69621700000016,156.69621700000016,157.41269360000024,0.7318992999998954,157.42957690000003,159.4127043000003,2.7318607000001975,None,0,increament,0.72,26,oddball,j,120,,,,,,,,m,24,232,fr,r,0,raw,2023-04-04_12h05.21.685,oddball,2022.2.5,60.26924683330714,
10,,,,,0,0,0,2,0,0,0,0,28,0,28,0,,,,,,,,,,,,,,,,,159.4292419000003,160.06293270000015,160.06293270000015,160.646346,0.5993545000001177,160.66283750000002,162.645986,2.598899000000074,None,1,increament,0.6,25,standard,None,100,,,,,,,,m,24,232,fr,r,0,raw,2023-04-04_12h05.21.685,oddball,2022.2.5,60.26924683330714,
10,,,,,0,0,0,2,0,0,0,0,29,0,29,0,,,,,,,,,,,,,,,,,162.6628370000003,163.2464503000001,163.2464503000001,163.84647930000028,0.6152397999999266,163.84647930000028,165.8465111999999,2.6152219999999033,None,1,increament,0.6,25,standard,None,100,,,,,,,,m,24,232,fr,r,0,raw,2023-04-04_12h05.21.685,oddball,2022.2.5,60.26924683330714,
10,,,,,0,0,0,2,1,0,1,0,0,0,0,0,,,,,,,,,,,,,,,174.04881010000008,174.04881010000008,175.86339670000007,176.53042890000006,176.53042890000006,177.13016430000016,0.6149760000002971,177.13016430000016,179.12967909999998,2.6144216000002416,None,1,decreament,0.6,21,standard,None,100,,165.86308129999998,0.0019020999998247134,,,,,m,24,232,fr,r,0,raw,2023-04-04_12h05.21.685,oddball,2022.2.5,60.26924683330714,
10,,,,,0,0,0,2,1,0,1,0,1,0,1,0,,,,,,,,,,,,,,,,,179.14637760000005,179.72964120000006,179.72964120000006,180.3130959,0.5998058000000128,180.32985730000019,182.31313630000022,2.5998444000001655,None,1,decreament,0.6,21,standard,None,100,,,,,,,,m,24,232,fr,r,0,raw,2023-04-04_12h05.21.685,oddball,2022.2.5,60.26924683330714,
10,,,,,0,0,0,2,1,0,1,0,2,0,2,0,,,,,,,,,,,,,,,,,182.32984100000021,182.9303301,182.9303301,183.5139035000002,0.5998036999999385,183.5304917000003,185.51370780000025,2.5994682999998986,None,1,decreament,0.6,21,standard,None,100,,,,,,,,m,24,232,fr,r,0,raw,2023-04-04_12h05.21.685,oddball,2022.2.5,60.26924683330714,
10,,,,,0,0,0,2,1,0,1,0,3,0,3,0,,,,,,,,,,,,,,,,,185.53036410000004,186.11402700000008,186.11402700000008,186.71393519999992,0.6155612000002293,186.71393519999992,188.71368010000015,2.6151671000002352,None,1,decreament,0.6,21,standard,None,100,,,,,,,,m,24,232,fr,r,0,raw,2023-04-04_12h05.21.685,oddball,2022.2.5,60.26924683330714,
10,,,,,0,0,0,2,1,0,1,0,4,0,4,0,,,,,,,,,,,,,,,,,188.73025030000008,189.3473641999999,189.3473641999999,189.9473138000003,0.6153685000003861,189.9473138000003,191.94773310000028,2.615805100000216,None,1,decreament,0.6,21,standard,None,100,,,,,,,,m,24,232,fr,r,0,raw,2023-04-04_12h05.21.685,oddball,2022.2.5,60.26924683330714,
10,,,,,0,0,0,2,1,0,1,0,5,0,5,0,,,,,,,,,,,,,,,,,191.96411810000018,192.56416350000018,192.56416350000018,193.16439730000002,0.61558500000001,193.16439730000002,195.16442570000027,2.615611500000341,None,1,decreament,0.6,21,standard,None,100,,,,,,,,m,24,232,fr,r,0,raw,2023-04-04_12h05.21.685,oddball,2022.2.5,60.26924683330714,
10,,,,,0,0,0,2,1,0,1,0,6,0,6,0,,,,,,,,,,,,,,,,,195.1809702999999,195.83079690000022,195.83079690000022,196.4141625000002,0.5991700999998102,196.43074939999997,198.41412760000003,2.599112999999761,None,1,decreament,0.6,21,standard,None,100,,,,,,,,m,24,232,fr,r,0,raw,2023-04-04_12h05.21.685,oddball,2022.2.5,60.26924683330714,
10,,,,,0,0,0,2,1,0,1,0,7,0,7,0,,,,,,,,,,,,,,,,,198.43080480000026,199.0309041999999,199.0309041999999,199.6140316000001,0.599272600000404,199.63080790000004,201.6148000000003,2.6001310000001467,None,1,decreament,0.6,21,standard,None,100,,,,,,,,m,24,232,fr,r,0,raw,2023-04-04_12h05.21.685,oddball,2022.2.5,60.26924683330714,
10,,,,,0,0,0,2,1,0,1,0,8,0,8,0,,,,,,,,,,,,,,,,,201.63093530000015,202.2812684999999,202.2812684999999,202.88098690000015,0.6141459999998915,202.88098690000015,204.8814468999999,2.6147102999998424,None,1,decreament,0.6,21,standard,None,100,,,,,,,,m,24,232,fr,r,0,raw,2023-04-04_12h05.21.685,oddball,2022.2.5,60.26924683330714,
10,,,,,0,0,0,2,1,0,1,0,9,0,9,0,,,,,,,,,,,,,,,,,204.89785960000017,205.54791670000031,205.54791670000031,206.1476533,0.6145086000001356,206.1476533,208.1479747000003,2.614885200000117,None,1,decreament,0.6,21,standard,None,100,,,,,,,,m,24,232,fr,r,0,raw,2023-04-04_12h05.21.685,oddball,2022.2.5,60.26924683330714,
10,,,,,0,0,0,2,1,0,1,0,10,0,10,0,,,,,,,,,,,,,,,,,208.1645381000003,208.9312146000002,208.9312146000002,209.5147247,0.5997052000002441,209.53136930000028,211.5150650999999,2.6001122000002397,None,1,decreament,0.6,21,standard,None,100,,,,,,,,m,24,232,fr,r,0,raw,2023-04-04_12h05.21.685,oddball,2022.2.5,60.26924683330714,
10,,,,,0,0,0,2,1,0,1,0,11,0,11,0,,,,,,,,,,,,,,,,,211.5315015000001,212.13193890000002,212.13193890000002,212.73133570000027,0.6148466999998163,212.73133570000027,214.7319676000002,2.6155265000002146,None,1,decreament,0.6,21,standard,None,100,,,,,,,,m,24,232,fr,r,0,raw,2023-04-04_12h05.21.685,oddball,2022.2.5,60.26924683330714,
10,,,,,0,0,0,2,1,0,1,0,12,0,12,0,,,,,,,,,,,,,,,,,214.74846130000014,215.31541900000002,215.31541900000002,215.91475230000015,0.6144390999997995,215.91475230000015,217.91477209999994,2.614459800000077,None,1,decreament,0.6,21,standard,None,100,,,,,,,,m,24,232,fr,r,0,raw,2023-04-04_12h05.21.685,oddball,2022.2.5,60.26924683330714,
10,,,,,0,0,0,2,1,0,1,0,13,0,13,0,,,,,,,,,,,,,,,,,217.93166610000026,218.49831600000016,218.49831600000016,219.08175430000028,0.5996752000000924,219.09836270000005,221.08129039999994,2.5991517000002204,None,1,decreament,0.6,21,standard,None,100,,,,,,,,m,24,232,fr,r,0,raw,2023-04-04_12h05.21.685,oddball,2022.2.5,60.26924683330714,
10,,,,,0,0,0,2,1,0,1,0,14,0,14,0,,,,,,,,,,,,,,,,,221.0978113000001,221.83146680000027,221.83146680000027,222.2984265,0.48286159999997835,222.31504220000033,224.29838270000027,2.482814999999846,j,1,decreament,0.48,24,oddball,j,80,0.6247439999995095,,,,,,,m,24,232,fr,r,0,raw,2023-04-04_12h05.21.685,oddball,2022.2.5,60.26924683330714,
10,,,,,0,0,0,2,1,0,1,0,15,0,15,0,,,,,,,,,,,,,,,,,224.31511690000025,224.9319942000002,224.9319942000002,225.51532110000016,0.5992209999999432,225.5318658000001,227.51529690000007,2.599192199999834,None,1,decreament,0.6,21,standard,None,100,,,,,,,,m,24,232,fr,r,0,raw,2023-04-04_12h05.21.685,oddball,2022.2.5,60.26924683330714,
10,,,,,0,0,0,2,1,0,1,0,16,0,16,0,,,,,,,,,,,,,,,,,227.53187239999988,228.19879930000025,228.19879930000025,228.7987919000002,0.6155402999997932,228.7987919000002,230.79912160000003,2.6157929999999396,None,1,decreament,0.6,21,standard,None,100,,,,,,,,m,24,232,fr,r,0,raw,2023-04-04_12h05.21.685,oddball,2022.2.5,60.26924683330714,
10,,,,,0,0,0,2,1,0,1,0,17,0,17,0,,,,,,,,,,,,,,,,,230.81566710000016,231.34891079999989,231.34891079999989,231.9489394000002,0.6150548999999046,231.9489394000002,233.94876000000022,2.6147648000001027,j,0,decreament,0.6,21,standard,None,100,0.4349306000001434,,,,,,,m,24,232,fr,r,0,raw,2023-04-04_12h05.21.685,oddball,2022.2.5,60.26924683330714,
10,,,,,0,0,0,2,1,0,1,0,18,0,18,0,,,,,,,,,,,,,,,,,233.96557780000012,234.7321563999999,234.7321563999999,235.3155056999999,0.5992615000000114,235.3320904000002,237.31559450000032,2.599352899999758,None,1,decreament,0.6,21,standard,None,100,,,,,,,,m,24,232,fr,r,0,raw,2023-04-04_12h05.21.685,oddball,2022.2.5,60.26924683330714,
10,,,,,0,0,0,2,1,0,1,0,19,0,19,0,,,,,,,,,,,,,,,,,237.3322221000003,238.0156439000002,238.0156439000002,238.59960309999997,0.6003113000001576,238.61633419999998,240.59923879999997,2.599874400000317,None,1,decreament,0.6,21,standard,None,100,,,,,,,,m,24,232,fr,r,0,raw,2023-04-04_12h05.21.685,oddball,2022.2.5,60.26924683330714,
10,,,,,0,0,0,2,1,0,1,0,20,0,20,0,,,,,,,,,,,,,,,,,240.61578710000003,241.21600850000004,241.21600850000004,241.44924310000033,0.24776939999992464,241.4659216,243.4498219000002,2.248382699999638,j,1,decreament,0.24,22,oddball,j,40,0.47378109999976914,,,,,,,m,24,232,fr,r,0,raw,2023-04-04_12h05.21.685,oddball,2022.2.5,60.26924683330714,
10,,,,,0,0,0,2,1,0,1,0,21,0,21,0,,,,,,,,,,,,,,,,,243.46603140000025,244.2327008000002,244.2327008000002,244.8158813,0.599361499999759,244.83244950000017,246.8162126000002,2.5997118999998747,None,1,decreament,0.6,21,standard,None,100,,,,,,,,m,24,232,fr,r,0,raw,2023-04-04_12h05.21.685,oddball,2022.2.5,60.26924683330714,
10,,,,,0,0,0,2,1,0,1,0,22,0,22,0,,,,,,,,,,,,,,,,,246.83284200000026,247.56622470000002,247.56622470000002,248.165935,0.6148217999998451,248.165935,250.16609030000018,2.614921200000026,None,1,decreament,0.6,21,standard,None,100,,,,,,,,m,24,232,fr,r,0,raw,2023-04-04_12h05.21.685,oddball,2022.2.5,60.26924683330714,
10,,,,,0,0,0,2,1,0,1,0,23,0,23,0,,,,,,,,,,,,,,,,,250.18283199999996,250.81655,250.81655,251.4162452999999,0.6151706000000559,251.4162452999999,253.41624860000002,2.6151747999997497,None,1,decreament,0.6,21,standard,None,100,,,,,,,,m,24,232,fr,r,0,raw,2023-04-04_12h05.21.685,oddball,2022.2.5,60.26924683330714,
10,,,,,0,0,0,2,1,0,1,0,24,0,24,0,,,,,,,,,,,,,,,,,253.43296069999997,254.049978,254.049978,254.64996090000022,0.6153799999997318,254.64996090000022,256.6500541999999,2.6154618999999,None,1,decreament,0.6,21,standard,None,100,,,,,,,,m,24,232,fr,r,0,raw,2023-04-04_12h05.21.685,oddball,2022.2.5,60.26924683330714,
10,,,,,0,0,0,2,1,0,1,0,25,0,25,0,,,,,,,,,,,,,,,,,256.66661969999996,257.2995476000001,257.2995476000001,257.88316639999994,0.5997207000000344,257.8996909000002,259.8830932999999,2.59964570000011,j,0,decreament,0.6,21,standard,None,100,0.5901800999997704,,,,,,,m,24,232,fr,r,0,raw,2023-04-04_12h05.21.685,oddball,2022.2.5,60.26924683330714,
10,,,,,0,0,0,2,1,0,1,0,26,0,26,0,,,,,,,,,,,,,,,,,259.89975840000034,260.63335750000033,260.63335750000033,260.9833997999999,0.36621910000030766,261.0000388000003,262.9834722999999,2.366250200000195,j,1,decreament,0.36,23,oddball,j,60,0.5749110999997811,,,,,,,m,24,232,fr,r,0,raw,2023-04-04_12h05.21.685,oddball,2022.2.5,60.26924683330714,
10,,,,,0,0,0,2,1,0,1,0,27,0,27,0,,,,,,,,,,,,,,,,,262.99996660000033,263.5668843000003,263.5668843000003,264.1669268999999,0.6156685000000834,264.1669268999999,266.16699900000003,2.615800500000205,None,1,decreament,0.6,21,standard,None,100,,,,,,,,m,24,232,fr,r,0,raw,2023-04-04_12h05.21.685,oddball,2022.2.5,60.26924683330714,
10,,,,,0,0,0,2,1,0,1,0,28,0,28,0,,,,,,,,,,,,,,,,,266.18349560000024,266.91709130000027,266.91709130000027,267.51716579999993,0.6155926999999792,267.51716579999993,269.5170357000002,2.6154234000000542,None,1,decreament,0.6,21,standard,None,100,,,,,,,,m,24,232,fr,r,0,raw,2023-04-04_12h05.21.685,oddball,2022.2.5,60.26924683330714,
10,,,,,0,0,0,2,1,0,1,0,29,0,29,0,,,,,,,,,,,,,,,,,269.53371190000007,270.1837865000002,270.1837865000002,270.78398300000026,0.6156433999999535,270.78398300000026,272.78360109999994,2.6151316999998926,None,1,decreament,0.6,21,standard,None,100,,,,,,,,m,24,232,fr,r,0,raw,2023-04-04_12h05.21.685,oddball,2022.2.5,60.26924683330714,
10,,,,,0,0,0,2,2,0,2,0,0,0,0,0,,,,,,,,,,,,,,,278.5672764000001,278.5672764000001,280.53394070000013,281.08429000000024,281.08429000000024,281.68404409999994,0.6152680999998665,281.68404409999994,283.6840324,2.615236200000254,None,1,increament,0.6,25,standard,None,100,,272.8004249999999,0.0013314999996509869,,,,,m,24,232,fr,r,0,raw,2023-04-04_12h05.21.685,oddball,2022.2.5,60.26924683330714,
10,,,,,0,0,0,2,2,0,2,0,1,0,1,0,,,,,,,,,,,,,,,,,283.7006905000003,284.36749770000006,284.36749770000006,284.95077059999994,0.5992145000000164,284.96737340000027,286.9508246999999,2.599270499999875,None,1,increament,0.6,25,standard,None,100,,,,,,,,m,24,232,fr,r,0,raw,2023-04-04_12h05.21.685,oddball,2022.2.5,60.26924683330714,
10,,,,,0,0,0,2,2,0,2,0,2,0,2,0,,,,,,,,,,,,,,,,,286.96749320000026,287.63422420000006,287.63422420000006,288.21751650000033,0.5994807000001856,288.23418029999993,290.2180145000002,2.600079700000151,None,1,increament,0.6,25,standard,None,100,,,,,,,,m,24,232,fr,r,0,raw,2023-04-04_12h05.21.685,oddball,2022.2.5,60.26924683330714,
10,,,,,0,0,0,2,2,0,2,0,3,0,3,0,,,,,,,,,,,,,,,,,290.2344648000003,290.8680654,290.8680654,291.4681562999999,0.6158442999999352,291.4681562999999,293.46811190000017,2.6157493999999133,None,1,increament,0.6,25,standard,None,100,,,,,,,,m,24,232,fr,r,0,raw,2023-04-04_12h05.21.685,oddball,2022.2.5,60.26924683330714,
10,,,,,0,0,0,2,2,0,2,0,4,0,4,0,,,,,,,,,,,,,,,,,293.4846907000001,294.1179990999999,294.1179990999999,294.7181132999999,0.615374100000281,294.7181132999999,296.71817850000025,2.615333400000054,None,1,increament,0.6,25,standard,None,100,,,,,,,,m,24,232,fr,r,0,raw,2023-04-04_12h05.21.685,oddball,2022.2.5,60.26924683330714,
10,,,,,0,0,0,2,2,0,2,0,5,0,5,0,,,,,,,,,,,,,,,,,296.7343040999999,297.41803500000015,297.41803500000015,298.0014642000001,0.5993994000000384,298.0180780999999,300.00144679999994,2.5993928000002597,None,1,increament,0.6,25,standard,None,100,,,,,,,,m,24,232,fr,r,0,raw,2023-04-04_12h05.21.685,oddball,2022.2.5,60.26924683330714,
10,,,,,0,0,0,2,2,0,2,0,6,0,6,0,,,,,,,,,,,,,,,,,300.01808819999997,300.6349955999999,300.6349955999999,301.35126579999996,0.7316224000001057,301.36801760000026,303.3516109000002,2.7319374000003336,None,0,increament,0.72,26,oddball,j,120,,,,,,,,m,24,232,fr,r,0,raw,2023-04-04_12h05.21.685,oddball,2022.2.5,60.26924683330714,
10,,,,,0,0,0,2,2,0,2,0,7,0,7,0,,,,,,,,,,,,,,,,,303.36826390000033,303.9348047000003,303.9348047000003,304.51821610000025,0.5997968000001492,304.53483400000005,306.51869860000033,2.600445800000216,None,1,increament,0.6,25,standard,None,100,,,,,,,,m,24,232,fr,r,0,raw,2023-04-04_12h05.21.685,oddball,2022.2.5,60.26924683330714,
10,,,,,0,0,0,2,2,0,2,0,8,0,8,0,,,,,,,,,,,,,,,,,306.535312,307.11863059999996,307.11863059999996,307.71850900000027,0.6151260999999977,307.71850900000027,309.7185649000003,2.6151608000000124,None,1,increament,0.6,25,standard,None,100,,,,,,,,m,24,232,fr,r,0,raw,2023-04-04_12h05.21.685,oddball,2022.2.5,60.26924683330714,
10,,,,,0,0,0,2,2,0,2,0,9,0,9,0,,,,,,,,,,,,,,,,,309.7351208,310.33502130000034,310.33502130000034,310.91864970000006,0.5996955000000526,310.9353377000002,312.91925170000013,2.6003986999999142,None,1,increament,0.6,25,standard,None,100,,,,,,,,m,24,232,fr,r,0,raw,2023-04-04_12h05.21.685,oddball,2022.2.5,60.26924683330714,
10,,,,,0,0,0,2,2,0,2,0,10,0,10,0,,,,,,,,,,,,,,,,,312.93538480000007,313.58514950000017,313.58514950000017,314.16882680000026,0.5998655999997027,314.1853494000002,316.16891110000006,2.5999778000000333,None,1,increament,0.6,25,standard,None,100,,,,,,,,m,24,232,fr,r,0,raw,2023-04-04_12h05.21.685,oddball,2022.2.5,60.26924683330714,
10,,,,,0,0,0,2,2,0,2,0,11,0,11,0,,,,,,,,,,,,,,,,,316.1850819000001,316.81853739999997,316.81853739999997,317.4190416000001,0.6153641999999309,317.4190416000001,319.4194311000001,2.61575589999984,None,1,increament,0.6,25,standard,None,100,,,,,,,,m,24,232,fr,r,0,raw,2023-04-04_12h05.21.685,oddball,2022.2.5,60.26924683330714,
10,,,,,0,0,0,2,2,0,2,0,12,0,12,0,,,,,,,,,,,,,,,,,319.4358302999999,320.1021203,320.1021203,320.68542240000033,0.5991781000002447,320.70199709999997,322.6860429000003,2.599940399999923,None,1,increament,0.6,25,standard,None,100,,,,,,,,m,24,232,fr,r,0,raw,2023-04-04_12h05.21.685,oddball,2022.2.5,60.26924683330714,
10,,,,,0,0,0,2,2,0,2,0,13,0,13,0,,,,,,,,,,,,,,,,,322.7022984,323.2524176000002,323.2524176000002,323.83586030000015,0.5993802000002688,323.85233300000027,325.8355727000003,2.5989987000002657,None,1,increament,0.6,25,standard,None,100,,,,,,,,m,24,232,fr,r,0,raw,2023-04-04_12h05.21.685,oddball,2022.2.5,60.26924683330714,
10,,,,,0,0,0,2,2,0,2,0,14,0,14,0,,,,,,,,,,,,,,,,,325.8521687000002,326.4690330000003,326.4690330000003,327.05242050000015,0.5998279999998886,327.0689711,329.05282220000026,2.600332200000139,None,1,increament,0.6,25,standard,None,100,,,,,,,,m,24,232,fr,r,0,raw,2023-04-04_12h05.21.685,oddball,2022.2.5,60.26924683330714,
10,,,,,0,0,0,2,2,0,2,0,15,0,15,0,,,,,,,,,,,,,,,,,329.0693372999999,329.6194577000001,329.6194577000001,330.21936860000005,0.6147391999998035,330.21936860000005,332.2191361,2.614451499999632,None,1,increament,0.6,25,standard,None,100,,,,,,,,m,24,232,fr,r,0,raw,2023-04-04_12h05.21.685,oddball,2022.2.5,60.26924683330714,
10,,,,,0,0,0,2,2,0,2,0,16,0,16,0,,,,,,,,,,,,,,,,,332.2358314000003,332.9363165,332.9363165,333.53598650000004,0.6146176000002015,333.53598650000004,335.53597990000026,2.6146014000000832,None,1,increament,0.6,25,standard,None,100,,,,,,,,m,24,232,fr,r,0,raw,2023-04-04_12h05.21.685,oddball,2022.2.5,60.26924683330714,
10,,,,,0,0,0,2,2,0,2,0,17,0,17,0,,,,,,,,,,,,,,,,,335.55254860000014,336.10261900000023,336.10261900000023,336.68640529999993,0.6000374000000193,336.7028878000001,338.6859380000001,2.5994181999999455,None,1,increament,0.6,25,standard,None,100,,,,,,,,m,24,232,fr,r,0,raw,2023-04-04_12h05.21.685,oddball,2022.2.5,60.26924683330714,
10,,,,,0,0,0,2,2,0,2,0,18,0,18,0,,,,,,,,,,,,,,,,,338.7026105,339.28605960000004,339.28605960000004,339.8700457,0.6002212999997028,339.88635350000004,341.8698875,2.600039800000104,None,1,increament,0.6,25,standard,None,100,,,,,,,,m,24,232,fr,r,0,raw,2023-04-04_12h05.21.685,oddball,2022.2.5,60.26924683330714,
10,,,,,0,0,0,2,2,0,2,0,19,0,19,0,,,,,,,,,,,,,,,,,341.8861035,342.6866295,342.6866295,343.51976190000005,0.8482539000001452,343.53648920000023,345.52003950000017,2.8486056000001554,None,0,increament,0.84,27,oddball,j,140,,,,,,,,m,24,232,fr,r,0,raw,2023-04-04_12h05.21.685,oddball,2022.2.5,60.26924683330714,
10,,,,,0,0,0,2,2,0,2,0,20,0,20,0,,,,,,,,,,,,,,,,,345.53644310000027,346.1700485000001,346.1700485000001,346.76970570000003,0.6153713999997308,346.76970570000003,348.7698467,2.61551449999979,None,1,increament,0.6,25,standard,None,100,,,,,,,,m,24,232,fr,r,0,raw,2023-04-04_12h05.21.685,oddball,2022.2.5,60.26924683330714,
10,,,,,0,0,0,2,2,0,2,0,21,0,21,0,,,,,,,,,,,,,,,,,348.78645110000025,349.3532215,349.3532215,349.9365269,0.5996044999997139,349.9532423999999,351.9367605000002,2.5998811999997997,None,1,increament,0.6,25,standard,None,100,,,,,,,,m,24,232,fr,r,0,raw,2023-04-04_12h05.21.685,oddball,2022.2.5,60.26924683330714,
10,,,,,0,0,0,2,2,0,2,0,22,0,22,0,,,,,,,,,,,,,,,,,351.95340110000006,352.50328320000017,352.50328320000017,353.0867886000001,0.5996546000001217,353.10334120000016,355.0869778000001,2.5998798000000534,None,1,increament,0.6,25,standard,None,100,,,,,,,,m,24,232,fr,r,0,raw,2023-04-04_12h05.21.685,oddball,2022.2.5,60.26924683330714,
10,,,,,0,0,0,2,2,0,2,0,23,0,23,0,,,,,,,,,,,,,,,,,355.10349970000016,355.7699686000001,355.7699686000001,356.7201391000003,0.9651874999999563,356.7368558000003,358.7204378000001,2.965549699999883,j,1,increament,0.96,28,oddball,j,160,0.27708529999995335,,,,,,,m,24,232,fr,r,0,raw,2023-04-04_12h05.21.685,oddball,2022.2.5,60.26924683330714,
10,,,,,0,0,0,2,2,0,2,0,24,0,24,0,,,,,,,,,,,,,,,,,358.7370550999999,359.4370236,359.4370236,360.0201975,0.5992639000000963,360.03689740000027,362.02038760000005,2.599475700000312,None,1,increament,0.6,25,standard,None,100,,,,,,,,m,24,232,fr,r,0,raw,2023-04-04_12h05.21.685,oddball,2022.2.5,60.26924683330714,
10,,,,,0,0,0,2,2,0,2,0,25,0,25,0,,,,,,,,,,,,,,,,,362.0370333000001,362.7036840999999,362.7036840999999,363.2873942000001,0.5999953999998979,363.3040271,365.2871124000003,2.5996234999997796,None,1,increament,0.6,25,standard,None,100,,,,,,,,m,24,232,fr,r,0,raw,2023-04-04_12h05.21.685,oddball,2022.2.5,60.26924683330714,
10,,,,,0,0,0,2,2,0,2,0,26,0,26,0,,,,,,,,,,,,,,,,,365.30367560000013,365.8705205000001,365.8705205000001,366.4539970000001,0.599691200000052,366.4704525000002,368.4541199,2.599811000000045,None,1,increament,0.6,25,standard,None,100,,,,,,,,m,24,232,fr,r,0,raw,2023-04-04_12h05.21.685,oddball,2022.2.5,60.26924683330714,
10,,,,,0,0,0,2,2,0,2,0,27,0,27,0,,,,,,,,,,,,,,,,,368.47071350000033,369.2375597,369.2375597,369.8372739000001,0.6147845000000416,369.8372739000001,371.83771019999995,2.615317700000105,None,1,increament,0.6,25,standard,None,100,,,,,,,,m,24,232,fr,r,0,raw,2023-04-04_12h05.21.685,oddball,2022.2.5,60.26924683330714,
10,,,,,0,0,0,2,2,0,2,0,28,0,28,0,,,,,,,,,,,,,,,,,371.8541315000002,372.47111399999994,372.47111399999994,373.0545893000003,0.5992053999998461,373.0711176,375.0542038000003,2.598766599999635,None,1,increament,0.6,25,standard,None,100,,,,,,,,m,24,232,fr,r,0,raw,2023-04-04_12h05.21.685,oddball,2022.2.5,60.26924683330714,
10,,,,,0,0,0,2,2,0,2,0,29,0,29,0,,,,,,,,,,,,,,,,,375.07091200000013,375.7877692000002,375.7877692000002,376.3875175000003,0.6153843000001871,376.3875175000003,378.3875645000003,2.6153668000001744,None,1,increament,0.6,25,standard,None,100,,,,,,,,m,24,232,fr,r,0,raw,2023-04-04_12h05.21.685,oddball,2022.2.5,60.26924683330714,
10,,,,,0,0,0,2,3,0,3,0,0,0,0,0,,,,,,,,,,,,,,,384.70533909999995,384.70533909999995,386.97155870000006,387.5383074000001,387.5383074000001,388.1383893000002,0.6151417000000947,388.1383893000002,390.1379985000003,2.6146271000002343,None,1,decreament,0.6,21,standard,None,100,,378.4042829,0.0013333000001694018,,,,,m,24,232,fr,r,0,raw,2023-04-04_12h05.21.685,oddball,2022.2.5,60.26924683330714,
10,,,,,0,0,0,2,3,0,3,0,1,0,1,0,,,,,,,,,,,,,,,,,390.15466620000007,390.73839799999996,390.73839799999996,391.33823630000006,0.6147657999999865,391.33823630000006,393.3384338000001,2.6149422999997114,None,1,decreament,0.6,21,standard,None,100,,,,,,,,m,24,232,fr,r,0,raw,2023-04-04_12h05.21.685,oddball,2022.2.5,60.26924683330714,
10,,,,,0,0,0,2,3,0,3,0,2,0,2,0,,,,,,,,,,,,,,,,,393.35489340000004,393.9048058000003,393.9048058000003,394.48832029999994,0.5994737000000896,394.50486630000023,396.488065,2.5992159000002175,None,1,decreament,0.6,21,standard,None,100,,,,,,,,m,24,232,fr,r,0,raw,2023-04-04_12h05.21.685,oddball,2022.2.5,60.26924683330714,
10,,,,,0,0,0,2,3,0,3,0,3,0,3,0,,,,,,,,,,,,,,,,,396.5047139000003,397.13878060000025,397.13878060000025,397.73865939999996,0.5990338999999949,397.73865939999996,399.73846950000006,2.5986266999998406,None,1,decreament,0.6,21,standard,None,100,,,,,,,,m,24,232,fr,r,0,raw,2023-04-04_12h05.21.685,oddball,2022.2.5,60.26924683330714,
10,,,,,0,0,0,2,3,0,3,0,4,0,4,0,,,,,,,,,,,,,,,,,399.73846950000006,400.35510320000003,400.35510320000003,400.9383120000002,0.6157443000001876,400.95513470000014,402.9383502999999,2.615424300000086,None,1,decreament,0.6,21,standard,None,100,,,,,,,,m,24,232,fr,r,0,raw,2023-04-04_12h05.21.685,oddball,2022.2.5,60.26924683330714,
10,,,,,0,0,0,2,3,0,3,0,5,0,5,0,,,,,,,,,,,,,,,,,402.9716462000001,403.5889674,403.5889674,404.18893370000023,0.6155660999997963,404.18893370000023,406.18884960000014,2.6154592999996567,None,1,decreament,0.6,21,standard,None,100,,,,,,,,m,24,232,fr,r,0,raw,2023-04-04_12h05.21.685,oddball,2022.2.5,60.26924683330714,
10,,,,,0,0,0,2,3,0,3,0,6,0,6,0,,,,,,,,,,,,,,,,,406.2053925,406.8051098000001,406.8051098000001,407.0387283,0.2495320000002721,407.0552235,409.0389027000001,2.249762300000384,j,1,decreament,0.24,22,oddball,j,40,0.4656454999997095,,,,,,,m,24,232,fr,r,0,raw,2023-04-04_12h05.21.685,oddball,2022.2.5,60.26924683330714,
10,,,,,0,0,0,2,3,0,3,0,7,0,7,0,,,,,,,,,,,,,,,,,409.05547890000025,409.8056008000003,409.8056008000003,410.40547689999994,0.6146558999998888,410.40547689999994,412.4060217000001,2.6153065999997125,None,1,decreament,0.6,21,standard,None,100,,,,,,,,m,24,232,fr,r,0,raw,2023-04-04_12h05.21.685,oddball,2022.2.5,60.26924683330714,
10,,,,,0,0,0,2,3,0,3,0,8,0,8,0,,,,,,,,,,,,,,,,,412.4225713999999,413.0729077000001,413.0729077000001,413.67284689999997,0.6155481000000691,413.67284689999997,415.67238510000016,2.614763699999912,None,1,decreament,0.6,21,standard,None,100,,,,,,,,m,24,232,fr,r,0,raw,2023-04-04_12h05.21.685,oddball,2022.2.5,60.26924683330714,
10,,,,,0,0,0,2,3,0,3,0,9,0,9,0,,,,,,,,,,,,,,,,,415.6892087000001,416.4390957999999,416.4390957999999,417.0225427999999,0.5993807999998353,417.0390961000003,419.0224392,2.5992114999999103,None,1,decreament,0.6,21,standard,None,100,,,,,,,,m,24,232,fr,r,0,raw,2023-04-04_12h05.21.685,oddball,2022.2.5,60.26924683330714,
10,,,,,0,0,0,2,3,0,3,0,10,0,10,0,,,,,,,,,,,,,,,,,419.0390117000002,419.65601100000003,419.65601100000003,420.1228771000001,0.482945600000221,420.1390911000003,422.1225998,2.4827241000002687,j,1,decreament,0.48,24,oddball,j,80,0.530539600000111,,,,,,,m,24,232,fr,r,0,raw,2023-04-04_12h05.21.685,oddball,2022.2.5,60.26924683330714,
10,,,,,0,0,0,2,3,0,3,0,11,0,11,0,,,,,,,,,,,,,,,,,422.1393945,422.90639120000014,422.90639120000014,423.50600970000005,0.6149033000001509,423.50600970000005,425.50618970000005,2.6150791999998546,None,1,decreament,0.6,21,standard,None,100,,,,,,,,m,24,232,fr,r,0,raw,2023-04-04_12h05.21.685,oddball,2022.2.5,60.26924683330714,
10,,,,,0,0,0,2,3,0,3,0,12,0,12,0,,,,,,,,,,,,,,,,,425.5227734,426.15605810000034,426.15605810000034,426.7397866000001,0.5994636999998875,426.7563044000003,428.73931280000033,2.5988941000000523,None,1,decreament,0.6,21,standard,None,100,,,,,,,,m,24,232,fr,r,0,raw,2023-04-04_12h05.21.685,oddball,2022.2.5,60.26924683330714,
10,,,,,0,0,0,2,3,0,3,0,13,0,13,0,,,,,,,,,,,,,,,,,428.75623540000015,429.57292700000016,429.57292700000016,430.1565485000001,0.5996104000000742,430.1735134999999,432.15664830000014,2.5997724999997445,None,1,decreament,0.6,21,standard,None,100,,,,,,,,m,24,232,fr,r,0,raw,2023-04-04_12h05.21.685,oddball,2022.2.5,60.26924683330714,
10,,,,,0,0,0,2,3,0,3,0,14,0,14,0,,,,,,,,,,,,,,,,,432.1732245000003,432.72325260000025,432.72325260000025,433.32310899999993,0.614719199999854,433.32310899999993,435.32352790000004,2.615203400000155,None,1,decreament,0.6,21,standard,None,100,,,,,,,,m,24,232,fr,r,0,raw,2023-04-04_12h05.21.685,oddball,2022.2.5,60.26924683330714,
10,,,,,0,0,0,2,3,0,3,0,15,0,15,0,,,,,,,,,,,,,,,,,435.3399751000002,436.02309110000033,436.02309110000033,436.60648760000004,0.5997431999999208,436.62296190000006,438.6064285000002,2.599655499999699,None,1,decreament,0.6,21,standard,None,100,,,,,,,,m,24,232,fr,r,0,raw,2023-04-04_12h05.21.685,oddball,2022.2.5,60.26924683330714,
10,,,,,0,0,0,2,3,0,3,0,16,0,16,0,,,,,,,,,,,,,,,,,438.62318540000024,439.32324640000024,439.32324640000024,439.67337240000006,0.36638859999993656,439.69001830000025,441.6735600000002,2.3666274000001977,j,1,decreament,0.36,23,oddball,j,60,0.5741315999996459,,,,,,,m,24,232,fr,r,0,raw,2023-04-04_12h05.21.685,oddball,2022.2.5,60.26924683330714,
10,,,,,0,0,0,2,3,0,3,0,17,0,17,0,,,,,,,,,,,,,,,,,441.6902091000002,442.59019020000005,442.59019020000005,443.19062669999994,0.6156349999996564,443.19062669999994,445.1903381000002,2.615195500000027,None,1,decreament,0.6,21,standard,None,100,,,,,,,,m,24,232,fr,r,0,raw,2023-04-04_12h05.21.685,oddball,2022.2.5,60.26924683330714,
10,,,,,0,0,0,2,3,0,3,0,18,0,18,0,,,,,,,,,,,,,,,,,445.20672360000026,445.80718350000006,445.80718350000006,446.4071183000001,0.6152713999999833,446.4071183000001,448.4067186000002,2.614757599999848,None,1,decreament,0.6,21,standard,None,100,,,,,,,,m,24,232,fr,r,0,raw,2023-04-04_12h05.21.685,oddball,2022.2.5,60.26924683330714,
10,,,,,0,0,0,2,3,0,3,0,19,0,19,0,,,,,,,,,,,,,,,,,448.4235718,449.1403806000003,449.1403806000003,449.72388230000024,0.5997120000001814,449.74046709999993,451.724158,2.600002399999994,None,1,decreament,0.6,21,standard,None,100,,,,,,,,m,24,232,fr,r,0,raw,2023-04-04_12h05.21.685,oddball,2022.2.5,60.26924683330714,
10,,,,,0,0,0,2,3,0,3,0,20,0,20,0,,,,,,,,,,,,,,,,,451.7406722999999,452.4904965999999,452.4904965999999,453.07375170000023,0.5993556000003082,453.09028990000024,455.0736525000002,2.5991985999999088,None,1,decreament,0.6,21,standard,None,100,,,,,,,,m,24,232,fr,r,0,raw,2023-04-04_12h05.21.685,oddball,2022.2.5,60.26924683330714,
10,,,,,0,0,0,2,3,0,3,0,21,0,21,0,,,,,,,,,,,,,,,,,455.0903082,455.7071931999999,455.7071931999999,456.2908496,0.5998767999999473,456.30735760000016,458.2909730000001,2.6000213000002077,None,1,decreament,0.6,21,standard,None,100,,,,,,,,m,24,232,fr,r,0,raw,2023-04-04_12h05.21.685,oddball,2022.2.5,60.26924683330714,
10,,,,,0,0,0,2,3,0,3,0,22,0,22,0,,,,,,,,,,,,,,,,,458.3073506999999,458.9907186999999,458.9907186999999,459.5738408000002,0.5992397999998502,459.5904955000001,461.5744757000002,2.5999729000000116,None,1,decreament,0.6,21,standard,None,100,,,,,,,,m,24,232,fr,r,0,raw,2023-04-04_12h05.21.685,oddball,2022.2.5,60.26924683330714,
10,,,,,0,0,0,2,3,0,3,0,23,0,23,0,,,,,,,,,,,,,,,,,461.59083640000017,462.22444940000014,462.22444940000014,462.82450199999994,0.5990093000000343,462.82450199999994,464.8242715000001,2.5988429999997607,None,1,decreament,0.6,21,standard,None,100,,,,,,,,m,24,232,fr,r,0,raw,2023-04-04_12h05.21.685,oddball,2022.2.5,60.26924683330714,
10,,,,,0,0,0,2,3,0,3,0,24,0,24,0,,,,,,,,,,,,,,,,,464.8242715000001,465.4577373000002,465.4577373000002,466.05796839999994,0.6155030999998417,466.05796839999994,468.0576099,2.615015500000027,None,1,decreament,0.6,21,standard,None,100,,,,,,,,m,24,232,fr,r,0,raw,2023-04-04_12h05.21.685,oddball,2022.2.5,60.26924683330714,
10,,,,,0,0,0,2,3,0,3,0,25,0,25,0,,,,,,,,,,,,,,,,,468.0743587000002,468.84076400000004,468.84076400000004,469.42466250000007,0.5997488000002704,469.4410585999999,471.4244295000003,2.599521200000254,None,1,decreament,0.6,21,standard,None,100,,,,,,,,m,24,232,fr,r,0,raw,2023-04-04_12h05.21.685,oddball,2022.2.5,60.26924683330714,
10,,,,,0,0,0,2,3,0,3,0,26,0,26,0,,,,,,,,,,,,,,,,,471.4411484000002,472.3415399999999,472.3415399999999,472.9249583999999,0.5993469999998524,472.9417430000003,474.92446500000005,2.5987679999998363,None,1,decreament,0.6,21,standard,None,100,,,,,,,,m,24,232,fr,r,0,raw,2023-04-04_12h05.21.685,oddball,2022.2.5,60.26924683330714,
10,,,,,0,0,0,2,3,0,3,0,27,0,27,0,,,,,,,,,,,,,,,,,474.94116600000007,475.67455340000015,475.67455340000015,476.25779550000016,0.5994528000001083,476.2744829000003,478.2581221999999,2.5998012999998537,None,1,decreament,0.6,21,standard,None,100,,,,,,,,m,24,232,fr,r,0,raw,2023-04-04_12h05.21.685,oddball,2022.2.5,60.26924683330714,
10,,,,,0,0,0,2,3,0,3,0,28,0,28,0,,,,,,,,,,,,,,,,,478.2747365,478.8916287000002,478.8916287000002,479.4916043000003,0.6148829999997361,479.4916043000003,481.491575,2.614805599999727,None,1,decreament,0.6,21,standard,None,100,,,,,,,,m,24,232,fr,r,0,raw,2023-04-04_12h05.21.685,oddball,2022.2.5,60.26924683330714,
10,,,,,0,0,0,2,3,0,3,0,29,0,29,0,,,,,,,,,,,,,,,,,481.50836819999995,482.1248614000001,482.1248614000001,482.70785700000033,0.5991298999997525,482.7244879,484.7081321999999,2.59941630000003,None,1,decreament,0.6,21,standard,None,100,,,,,,,,m,24,232,fr,r,0,raw,2023-04-04_12h05.21.685,oddball,2022.2.5,60.26924683330714,
10,,,,,0,0,0,2,4,0,4,0,0,0,0,0,,,,,,,,,,,,,,,492.75858670000025,492.75858670000025,493.9085084000003,494.4422490000002,494.4422490000002,495.04195340000024,0.6149300000001858,495.04195340000024,497.04198190000034,2.6149485000000823,None,1,increament,0.6,25,standard,None,100,,484.7249492000001,0.0011919000003217661,,,,,m,24,232,fr,r,0,raw,2023-04-04_12h05.21.685,oddball,2022.2.5,60.26924683330714,
10,,,,,0,0,0,2,4,0,4,0,1,0,1,0,,,,,,,,,,,,,,,,,497.05877740000005,497.6754143000003,497.6754143000003,498.2590220000002,0.5998959999997169,498.2757572999999,500.2590215,2.5998538999997436,None,1,increament,0.6,25,standard,None,100,,,,,,,,m,24,232,fr,r,0,raw,2023-04-04_12h05.21.685,oddball,2022.2.5,60.26924683330714,
10,,,,,0,0,0,2,4,0,4,0,2,0,2,0,,,,,,,,,,,,,,,,,500.2757262,501.0591492000003,501.0591492000003,501.6591720000001,0.6153431000002456,501.6591720000001,503.6592324000003,2.615368100000069,None,1,increament,0.6,25,standard,None,100,,,,,,,,m,24,232,fr,r,0,raw,2023-04-04_12h05.21.685,oddball,2022.2.5,60.26924683330714,
10,,,,,0,0,0,2,4,0,4,0,3,0,3,0,,,,,,,,,,,,,,,,,503.67577660000006,504.2426897,504.2426897,504.8428902999999,0.6156818999997995,504.8428902999999,506.8422972000003,2.6149390000000494,None,1,increament,0.6,25,standard,None,100,,,,,,,,m,24,232,fr,r,0,raw,2023-04-04_12h05.21.685,oddball,2022.2.5,60.26924683330714,
10,,,,,0,0,0,2,4,0,4,0,4,0,4,0,,,,,,,,,,,,,,,,,506.8588721000001,507.4094460000001,507.4094460000001,508.0093615999999,0.6153159999998934,508.0093615999999,510.00939270000026,2.615363999999772,None,1,increament,0.6,25,standard,None,100,,,,,,,,m,24,232,fr,r,0,raw,2023-04-04_12h05.21.685,oddball,2022.2.5,60.26924683330714,
10,,,,,0,0,0,2,4,0,4,0,5,0,5,0,,,,,,,,,,,,,,,,,510.0259200999999,510.72627779999993,510.72627779999993,511.3265577000002,0.6152945000003456,511.3265577000002,513.3267059,2.6154475000003004,None,1,increament,0.6,25,standard,None,100,,,,,,,,m,24,232,fr,r,0,raw,2023-04-04_12h05.21.685,oddball,2022.2.5,60.26924683330714,
10,,,,,0,0,0,2,4,0,4,0,6,0,6,0,,,,,,,,,,,,,,,,,513.3431095000001,514.009814,514.009814,514.6092275999999,0.614256800000021,514.6092275999999,516.6094521,2.614484100000027,None,1,increament,0.6,25,standard,None,100,,,,,,,,m,24,232,fr,r,0,raw,2023-04-04_12h05.21.685,oddball,2022.2.5,60.26924683330714,
10,,,,,0,0,0,2,4,0,4,0,7,0,7,0,,,,,,,,,,,,,,,,,516.6261776000001,517.4261227000002,517.4261227000002,518.3761991000001,0.966278500000044,518.3928701,520.3762851000001,2.9663676999998643,None,0,increament,0.96,28,oddball,j,160,,,,,,,,m,24,232,fr,r,0,raw,2023-04-04_12h05.21.685,oddball,2022.2.5,60.26924683330714,
10,,,,,0,0,0,2,4,0,4,0,8,0,8,0,,,,,,,,,,,,,,,,,520.3930054000002,521.0929948000003,521.0929948000003,521.6763909000001,0.599663800000144,521.6930502,523.6763254000002,2.599597299999914,None,1,increament,0.6,25,standard,None,100,,,,,,,,m,24,232,fr,r,0,raw,2023-04-04_12h05.21.685,oddball,2022.2.5,60.26924683330714,
10,,,,,0,0,0,2,4,0,4,0,9,0,9,0,,,,,,,,,,,,,,,,,523.6930669000003,524.3097333000001,524.3097333000001,524.8932994000002,0.5996164999996836,524.9098530000001,526.8930748000002,2.5993381999996927,None,1,increament,0.6,25,standard,None,100,,,,,,,,m,24,232,fr,r,0,raw,2023-04-04_12h05.21.685,oddball,2022.2.5,60.26924683330714,
10,,,,,0,0,0,2,4,0,4,0,10,0,10,0,,,,,,,,,,,,,,,,,526.9098118000002,527.6437430999999,527.6437430999999,528.2436874,0.6153062999997019,528.2436874,530.2438636000002,2.6154756999999336,None,1,increament,0.6,25,standard,None,100,,,,,,,,m,24,232,fr,r,0,raw,2023-04-04_12h05.21.685,oddball,2022.2.5,60.26924683330714,
10,,,,,0,0,0,2,4,0,4,0,11,0,11,0,,,,,,,,,,,,,,,,,530.2601502000002,530.8938287000001,530.8938287000001,531.4935978000003,0.6151731999998447,531.4935978000003,533.4938915000002,2.61547709999968,None,1,increament,0.6,25,standard,None,100,,,,,,,,m,24,232,fr,r,0,raw,2023-04-04_12h05.21.685,oddball,2022.2.5,60.26924683330714,
10,,,,,0,0,0,2,4,0,4,0,12,0,12,0,,,,,,,,,,,,,,,,,533.5103174999999,534.293396,534.293396,534.8767895000001,0.5995043999996597,534.8934251000001,536.8770696000001,2.599830699999984,None,1,increament,0.6,25,standard,None,100,,,,,,,,m,24,232,fr,r,0,raw,2023-04-04_12h05.21.685,oddball,2022.2.5,60.26924683330714,
10,,,,,0,0,0,2,4,0,4,0,13,0,13,0,,,,,,,,,,,,,,,,,536.8936444999999,537.5772185999999,537.5772185999999,538.1605239,0.6154544000000897,538.1771893,540.1605731,2.6153801999998905,None,1,increament,0.6,25,standard,None,100,,,,,,,,m,24,232,fr,r,0,raw,2023-04-04_12h05.21.685,oddball,2022.2.5,60.26924683330714,
10,,,,,0,0,0,2,4,0,4,0,14,0,14,0,,,,,,,,,,,,,,,,,540.1935583,540.8941719,540.8941719,541.6109855,0.732843899999807,541.6275882,543.6110053000002,2.732860900000105,None,0,increament,0.72,26,oddball,j,120,,,,,,,,m,24,232,fr,r,0,raw,2023-04-04_12h05.21.685,oddball,2022.2.5,60.26924683330714,
10,,,,,0,0,0,2,4,0,4,0,15,0,15,0,,,,,,,,,,,,,,,,,543.6275620000001,544.1944868999999,544.1944868999999,544.7939418999999,0.6144975000001978,544.7939418999999,546.7935686999999,2.61409040000035,None,1,increament,0.6,25,standard,None,100,,,,,,,,m,24,232,fr,r,0,raw,2023-04-04_12h05.21.685,oddball,2022.2.5,60.26924683330714,
10,,,,,0,0,0,2,4,0,4,0,16,0,16,0,,,,,,,,,,,,,,,,,546.8105500000001,547.4106548,547.4106548,547.9940673000001,0.599042300000292,548.0106083999999,549.9937607000002,2.5987159000001157,None,1,increament,0.6,25,standard,None,100,,,,,,,,m,24,232,fr,r,0,raw,2023-04-04_12h05.21.685,oddball,2022.2.5,60.26924683330714,
10,,,,,0,0,0,2,4,0,4,0,17,0,17,0,,,,,,,,,,,,,,,,,550.0104191999999,550.5271306,550.5271306,551.1106444000002,0.59996000000001,551.1272545000002,553.1111260000002,2.6005188000003727,None,1,increament,0.6,25,standard,None,100,,,,,,,,m,24,232,fr,r,0,raw,2023-04-04_12h05.21.685,oddball,2022.2.5,60.26924683330714,
10,,,,,0,0,0,2,4,0,4,0,18,0,18,0,,,,,,,,,,,,,,,,,553.1276826000003,553.9278715,553.9278715,554.5280602000003,0.6154750999999123,554.5280602000003,556.5279433000001,2.6153502000001936,None,1,increament,0.6,25,standard,None,100,,,,,,,,m,24,232,fr,r,0,raw,2023-04-04_12h05.21.685,oddball,2022.2.5,60.26924683330714,
10,,,,,0,0,0,2,4,0,4,0,19,0,19,0,,,,,,,,,,,,,,,,,556.5443636,557.0942199000001,557.0942199000001,557.6779393000002,0.5996522999998888,557.6945737000001,559.6777053000001,2.599377999999888,None,1,increament,0.6,25,standard,None,100,,,,,,,,m,24,232,fr,r,0,raw,2023-04-04_12h05.21.685,oddball,2022.2.5,60.26924683330714,
10,,,,,0,0,0,2,4,0,4,0,20,0,20,0,,,,,,,,,,,,,,,,,559.6942395000001,560.3779253000002,560.3779253000002,560.9613361000002,0.5993605999997271,560.9780191,562.9615314000002,2.599477599999773,None,1,increament,0.6,25,standard,None,100,,,,,,,,m,24,232,fr,r,0,raw,2023-04-04_12h05.21.685,oddball,2022.2.5,60.26924683330714,
10,,,,,0,0,0,2,4,0,4,0,21,0,21,0,,,,,,,,,,,,,,,,,562.9781966999999,563.5283835,563.5283835,564.1279457,0.6148880999999164,564.1279457,566.1284965,2.615555100000165,None,1,increament,0.6,25,standard,None,100,,,,,,,,m,24,232,fr,r,0,raw,2023-04-04_12h05.21.685,oddball,2022.2.5,60.26924683330714,
10,,,,,0,0,0,2,4,0,4,0,22,0,22,0,,,,,,,,,,,,,,,,,566.1449345000001,566.6783979000002,566.6783979000002,567.5121029000002,0.8490677999998297,567.5284952000002,569.5115682999999,2.8483860000001187,j,1,increament,0.84,27,oddball,j,140,0.5169640000001436,,,,,,,m,24,232,fr,r,0,raw,2023-04-04_12h05.21.685,oddball,2022.2.5,60.26924683330714,
10,,,,,0,0,0,2,4,0,4,0,23,0,23,0,,,,,,,,,,,,,,,,,569.5280737000003,570.1447937000003,570.1447937000003,570.7281523000001,0.5993148000002293,570.7448182000003,572.728216,2.59942940000019,None,1,increament,0.6,25,standard,None,100,,,,,,,,m,24,232,fr,r,0,raw,2023-04-04_12h05.21.685,oddball,2022.2.5,60.26924683330714,
10,,,,,0,0,0,2,4,0,4,0,24,0,24,0,,,,,,,,,,,,,,,,,572.7449326000001,573.3785588999999,573.3785588999999,573.9784534999999,0.6153458999997383,573.9784534999999,575.9782518000002,2.6150751000000128,None,1,increament,0.6,25,standard,None,100,,,,,,,,m,24,232,fr,r,0,raw,2023-04-04_12h05.21.685,oddball,2022.2.5,60.26924683330714,
10,,,,,0,0,0,2,4,0,4,0,25,0,25,0,,,,,,,,,,,,,,,,,575.9949887000002,576.5950397000001,576.5950397000001,577.1782453999999,0.5995442000003095,577.1948092000002,579.1786439000002,2.59994880000022,None,1,increament,0.6,25,standard,None,100,,,,,,,,m,24,232,fr,r,0,raw,2023-04-04_12h05.21.685,oddball,2022.2.5,60.26924683330714,
10,,,,,0,0,0,2,4,0,4,0,26,0,26,0,,,,,,,,,,,,,,,,,579.1951832,579.8287337000002,579.8287337000002,580.4287578000003,0.6155106000001069,580.4287578000003,582.4289865999999,2.615732499999922,None,1,increament,0.6,25,standard,None,100,,,,,,,,m,24,232,fr,r,0,raw,2023-04-04_12h05.21.685,oddball,2022.2.5,60.26924683330714,
10,,,,,0,0,0,2,4,0,4,0,27,0,27,0,,,,,,,,,,,,,,,,,582.4455419999999,583.2122342000002,583.2122342000002,583.8122309,0.6152500999996846,583.8122309,585.8124008,2.6154265000000123,None,1,increament,0.6,25,standard,None,100,,,,,,,,m,24,232,fr,r,0,raw,2023-04-04_12h05.21.685,oddball,2022.2.5,60.26924683330714,
10,,,,,0,0,0,2,4,0,4,0,28,0,28,0,,,,,,,,,,,,,,,,,585.8288977000002,586.6622592000003,586.6622592000003,587.2621382000002,0.6149000999998862,587.2621382000002,589.2624985000002,2.615307600000051,None,1,increament,0.6,25,standard,None,100,,,,,,,,m,24,232,fr,r,0,raw,2023-04-04_12h05.21.685,oddball,2022.2.5,60.26924683330714,
10,,,,,0,0,0,2,4,0,4,0,29,0,29,0,,,,,,,,,,,,,,,,,589.279004,590.0124193000001,590.0124193000001,590.6124936000001,0.6154685000001336,590.6124936000001,592.6128626,2.61608090000027,None,1,increament,0.6,25,standard,None,100,,,,,,,,m,24,232,fr,r,0,raw,2023-04-04_12h05.21.685,oddball,2022.2.5,60.26924683330714,
10,,,,,0,0,0,2,5,0,5,0,0,0,0,0,,,,,,,,,,,,,,,603.8461281,603.8461281,605.3294654000001,606.1296302999999,606.1296302999999,606.7126805000003,0.6158088000001953,606.7296565000001,608.7127035000003,2.6153952999998182,None,1,decreament,0.6,21,standard,None,100,,592.6292852000001,0.002102800000102434,,,,,m,24,232,fr,r,0,raw,2023-04-04_12h05.21.685,oddball,2022.2.5,60.26924683330714,
10,,,,,0,0,0,2,5,0,5,0,1,0,1,0,,,,,,,,,,,,,,,,,608.7466036999999,609.4463642999999,609.4463642999999,610.0297042000002,0.5994616000002679,610.0463072000002,612.0294727,2.5992043999999623,None,1,decreament,0.6,21,standard,None,100,,,,,,,,m,24,232,fr,r,0,raw,2023-04-04_12h05.21.685,oddball,2022.2.5,60.26924683330714,
10,,,,,0,0,0,2,5,0,5,0,2,0,2,0,,,,,,,,,,,,,,,,,612.0460969000001,612.6132652000001,612.6132652000001,613.1964355,0.5995983000002525,613.2130431,615.1965515000002,2.599655700000312,None,1,decreament,0.6,21,standard,None,100,,,,,,,,m,24,232,fr,r,0,raw,2023-04-04_12h05.21.685,oddball,2022.2.5,60.26924683330714,
10,,,,,0,0,0,2,5,0,5,0,3,0,3,0,,,,,,,,,,,,,,,,,615.2130689,615.7966420000002,615.7966420000002,616.3799354000002,0.5994331000001694,616.3965496000001,618.3799892000002,2.5994825000002493,None,1,decreament,0.6,21,standard,None,100,,,,,,,,m,24,232,fr,r,0,raw,2023-04-04_12h05.21.685,oddball,2022.2.5,60.26924683330714,
10,,,,,0,0,0,2,5,0,5,0,4,0,4,0,,,,,,,,,,,,,,,,,618.3966891,619.0634939000001,619.0634939000001,619.6632640000003,0.6152492000001075,619.6632640000003,621.6636217,2.6156823999999688,None,1,decreament,0.6,21,standard,None,100,,,,,,,,m,24,232,fr,r,0,raw,2023-04-04_12h05.21.685,oddball,2022.2.5,60.26924683330714,
10,,,,,0,0,0,2,5,0,5,0,5,0,5,0,,,,,,,,,,,,,,,,,621.6802447,622.4803493,622.4803493,623.0805260000002,0.6153960999999981,623.0805260000002,625.0801935,2.6149459000002935,None,1,decreament,0.6,21,standard,None,100,,,,,,,,m,24,232,fr,r,0,raw,2023-04-04_12h05.21.685,oddball,2022.2.5,60.26924683330714,
10,,,,,0,0,0,2,5,0,5,0,6,0,6,0,,,,,,,,,,,,,,,,,625.0968109,625.7636581000002,625.7636581000002,626.2306708000001,0.48272289999977147,626.2471873,628.2303277999999,2.4822489999996833,None,0,decreament,0.48,24,oddball,j,80,,,,,,,,m,24,232,fr,r,0,raw,2023-04-04_12h05.21.685,oddball,2022.2.5,60.26924683330714,
10,,,,,0,0,0,2,5,0,5,0,7,0,7,0,,,,,,,,,,,,,,,,,628.2470133000002,628.7971769000001,628.7971769000001,629.3806734,0.5992274999998699,629.3972386,631.3803321999999,2.5988650999997844,None,1,decreament,0.6,21,standard,None,100,,,,,,,,m,24,232,fr,r,0,raw,2023-04-04_12h05.21.685,oddball,2022.2.5,60.26924683330714,
10,,,,,0,0,0,2,5,0,5,0,8,0,8,0,,,,,,,,,,,,,,,,,631.3972798,631.9971488000001,631.9971488000001,632.5808379,0.5998835999998846,632.5973395000001,634.5810593000001,2.600143300000127,None,1,decreament,0.6,21,standard,None,100,,,,,,,,m,24,232,fr,r,0,raw,2023-04-04_12h05.21.685,oddball,2022.2.5,60.26924683330714,
10,,,,,0,0,0,2,5,0,5,0,9,0,9,0,,,,,,,,,,,,,,,,,634.5976924000001,635.1478426000003,635.1478426000003,635.7478106000003,0.615566200000103,635.7478106000003,637.7474321,2.615061300000434,None,1,decreament,0.6,21,standard,None,100,,,,,,,,m,24,232,fr,r,0,raw,2023-04-04_12h05.21.685,oddball,2022.2.5,60.26924683330714,
10,,,,,0,0,0,2,5,0,5,0,10,0,10,0,,,,,,,,,,,,,,,,,637.7639501000003,638.3310019,638.3310019,638.9311733,0.6154281999997693,638.9311733,640.9307378000003,2.614898599999833,None,1,decreament,0.6,21,standard,None,100,,,,,,,,m,24,232,fr,r,0,raw,2023-04-04_12h05.21.685,oddball,2022.2.5,60.26924683330714,
10,,,,,0,0,0,2,5,0,5,0,11,0,11,0,,,,,,,,,,,,,,,,,640.9474808,641.6978303000001,641.6978303000001,642.0480408000003,0.3665068999998766,642.0646603,644.0475693000003,2.365921900000103,j,1,decreament,0.36,23,oddball,j,60,0.4567657000000054,,,,,,,m,24,232,fr,r,0,raw,2023-04-04_12h05.21.685,oddball,2022.2.5,60.26924683330714,
10,,,,,0,0,0,2,5,0,5,0,12,0,12,0,,,,,,,,,,,,,,,,,644.0643255,644.7146981999999,644.7146981999999,645.3146617000002,0.615363900000375,645.3146617000002,647.3143651,2.614900800000214,None,1,decreament,0.6,21,standard,None,100,,,,,,,,m,24,232,fr,r,0,raw,2023-04-04_12h05.21.685,oddball,2022.2.5,60.26924683330714,
10,,,,,0,0,0,2,5,0,5,0,13,0,13,0,,,,,,,,,,,,,,,,,647.3309979999999,648.1647459999999,648.1647459999999,648.7649248000002,0.6150941000000785,648.7649248000002,650.7648202,2.614926000000196,None,1,decreament,0.6,21,standard,None,100,,,,,,,,m,24,232,fr,r,0,raw,2023-04-04_12h05.21.685,oddball,2022.2.5,60.26924683330714,
10,,,,,0,0,0,2,5,0,5,0,14,0,14,0,,,,,,,,,,,,,,,,,650.7814309999999,651.7479099000002,651.7479099000002,652.3315875000003,0.5998645999998189,652.3478525999999,654.3319180000003,2.600196099999721,None,1,decreament,0.6,21,standard,None,100,,,,,,,,m,24,232,fr,r,0,raw,2023-04-04_12h05.21.685,oddball,2022.2.5,60.26924683330714,
10,,,,,0,0,0,2,5,0,5,0,15,0,15,0,,,,,,,,,,,,,,,,,654.3479603000001,655.0313079000002,655.0313079000002,655.6147094000003,0.5993115999999645,655.6320147000001,657.6148668000001,2.599625500000002,None,1,decreament,0.6,21,standard,None,100,,,,,,,,m,24,232,fr,r,0,raw,2023-04-04_12h05.21.685,oddball,2022.2.5,60.26924683330714,
10,,,,,0,0,0,2,5,0,5,0,16,0,16,0,,,,,,,,,,,,,,,,,657.6314789000003,658.1486977,658.1486977,658.7316291000002,0.5994372999998632,658.7481612000001,660.7315468000002,2.599347999999736,None,1,decreament,0.6,21,standard,None,100,,,,,,,,m,24,232,fr,r,0,raw,2023-04-04_12h05.21.685,oddball,2022.2.5,60.26924683330714,
10,,,,,0,0,0,2,5,0,5,0,17,0,17,0,,,,,,,,,,,,,,,,,660.7485912000002,661.3823563000001,661.3823563000001,661.9651388000002,0.5995550000002368,661.9818588000003,663.9650675000003,2.5994956999998067,None,1,decreament,0.6,21,standard,None,100,,,,,,,,m,24,232,fr,r,0,raw,2023-04-04_12h05.21.685,oddball,2022.2.5,60.26924683330714,
10,,,,,0,0,0,2,5,0,5,0,18,0,18,0,,,,,,,,,,,,,,,,,663.9823308,664.6320057000003,664.6320057000003,665.2150882000001,0.616117199999735,665.2327290000003,667.2153645000003,2.61503969999967,j,0,decreament,0.6,21,standard,None,100,0.5604740999995101,,,,,,,m,24,232,fr,r,0,raw,2023-04-04_12h05.21.685,oddball,2022.2.5,60.26924683330714,
10,,,,,0,0,0,2,5,0,5,0,19,0,19,0,,,,,,,,,,,,,,,,,667.2487458,667.7819189000002,667.7819189000002,668.3651180000002,0.5994500000001608,668.3820983,670.3651513,2.599496100000124,None,1,decreament,0.6,21,standard,None,100,,,,,,,,m,24,232,fr,r,0,raw,2023-04-04_12h05.21.685,oddball,2022.2.5,60.26924683330714,
10,,,,,0,0,0,2,5,0,5,0,20,0,20,0,,,,,,,,,,,,,,,,,670.3817800000002,670.9319903,670.9319903,671.5150133000002,0.599120099999709,671.5318629000003,673.5152773,2.5994117000000188,None,1,decreament,0.6,21,standard,None,100,,,,,,,,m,24,232,fr,r,0,raw,2023-04-04_12h05.21.685,oddball,2022.2.5,60.26924683330714,
10,,,,,0,0,0,2,5,0,5,0,21,0,21,0,,,,,,,,,,,,,,,,,673.5318276000003,674.1322604000002,674.1322604000002,674.3653687999999,0.2495386000000508,674.3824051000001,676.3654365000002,2.2496148000000176,j,1,decreament,0.24,22,oddball,j,40,0.47108079999975416,,,,,,,m,24,232,fr,r,0,raw,2023-04-04_12h05.21.685,oddball,2022.2.5,60.26924683330714,
10,,,,,0,0,0,2,5,0,5,0,22,0,22,0,,,,,,,,,,,,,,,,,676.382181,677.0657151999999,677.0657151999999,677.6654056000002,0.5994774000000689,677.6654056000002,679.6654435999999,2.5996414000001096,None,1,decreament,0.6,21,standard,None,100,,,,,,,,m,24,232,fr,r,0,raw,2023-04-04_12h05.21.685,oddball,2022.2.5,60.26924683330714,
10,,,,,0,0,0,2,5,0,5,0,23,0,23,0,,,,,,,,,,,,,,,,,679.6654435999999,680.2158136000003,680.2158136000003,680.7989663000003,0.5990962999999283,680.8153617000003,682.7990225000003,2.599085699999705,None,1,decreament,0.6,21,standard,None,100,,,,,,,,m,24,232,fr,r,0,raw,2023-04-04_12h05.21.685,oddball,2022.2.5,60.26924683330714,
10,,,,,0,0,0,2,5,0,5,0,24,0,24,0,,,,,,,,,,,,,,,,,682.8158543,683.4158897000002,683.4158897000002,683.9991391000003,0.5994104999999763,684.0157592999999,685.9991378,2.5994063999996797,None,1,decreament,0.6,21,standard,None,100,,,,,,,,m,24,232,fr,r,0,raw,2023-04-04_12h05.21.685,oddball,2022.2.5,60.26924683330714,
10,,,,,0,0,0,2,5,0,5,0,25,0,25,0,,,,,,,,,,,,,,,,,686.0158945000003,686.6326687000001,686.6326687000001,687.2325580000002,0.6152116000002934,687.2325580000002,689.2325399000001,2.6152011000003768,None,1,decreament,0.6,21,standard,None,100,,,,,,,,m,24,232,fr,r,0,raw,2023-04-04_12h05.21.685,oddball,2022.2.5,60.26924683330714,
10,,,,,0,0,0,2,5,0,5,0,26,0,26,0,,,,,,,,,,,,,,,,,689.2497395,690.0326786,690.0326786,690.6160355000002,0.5992650000002868,690.6326323000003,692.6159815999999,2.599203100000068,None,1,decreament,0.6,21,standard,None,100,,,,,,,,m,24,232,fr,r,0,raw,2023-04-04_12h05.21.685,oddball,2022.2.5,60.26924683330714,
10,,,,,0,0,0,2,5,0,5,0,27,0,27,0,,,,,,,,,,,,,,,,,692.6327366,693.2494687000003,693.2494687000003,693.8328552000003,0.5991533000001255,693.8494983999999,695.8329744000002,2.5992895999997927,None,1,decreament,0.6,21,standard,None,100,,,,,,,,m,24,232,fr,r,0,raw,2023-04-04_12h05.21.685,oddball,2022.2.5,60.26924683330714,
10,,,,,0,0,0,2,5,0,5,0,28,0,28,0,,,,,,,,,,,,,,,,,695.8497428999999,696.5328549999999,696.5328549999999,697.1162300999999,0.5997321999998348,697.1329926000003,699.1163412000001,2.599838599999657,None,1,decreament,0.6,21,standard,None,100,,,,,,,,m,24,232,fr,r,0,raw,2023-04-04_12h05.21.685,oddball,2022.2.5,60.26924683330714,
10,,,,,0,0,0,2,5,0,5,0,29,0,29,0,,,,,,,,,,,,,,,,,699.1330591000001,699.8331259000001,699.8331259000001,700.4163600000002,0.599473400000079,700.4330376000003,702.4164781,2.5995911999998498,None,1,decreament,0.6,21,standard,None,100,,,,,,,,m,24,232,fr,r,0,raw,2023-04-04_12h05.21.685,oddball,2022.2.5,60.26924683330714,
10,,,,,0,0,0,2,6,0,6,0,0,0,0,0,,,,,,,,,,,,,,,717.8337140000003,717.8337140000003,719.0337773000001,719.6509223000003,719.6509223000003,720.2344549,0.5999760999998216,720.2504904000002,722.2338579000002,2.5993797999999515,None,1,increament,0.6,25,standard,None,100,,702.4331965000001,0.001022700000248733,,,,,m,24,232,fr,r,0,raw,2023-04-04_12h05.21.685,oddball,2022.2.5,60.26924683330714,
10,,,,,0,0,0,2,6,0,6,0,1,0,1,0,,,,,,,,,,,,,,,,,722.2506562000003,723.0173236999999,723.0173236999999,723.6005536000002,0.6154956999998831,723.6172022999999,725.6007717000002,2.6156545999997434,None,1,increament,0.6,25,standard,None,100,,,,,,,,m,24,232,fr,r,0,raw,2023-04-04_12h05.21.685,oddball,2022.2.5,60.26924683330714,
10,,,,,0,0,0,2,6,0,6,0,2,0,2,0,,,,,,,,,,,,,,,,,725.6339601,726.3513542999999,726.3513542999999,726.9343650000001,0.5996423000001414,726.9508122000002,728.9342808000001,2.5994901999997637,None,1,increament,0.6,25,standard,None,100,,,,,,,,m,24,232,fr,r,0,raw,2023-04-04_12h05.21.685,oddball,2022.2.5,60.26924683330714,
10,,,,,0,0,0,2,6,0,6,0,3,0,3,0,,,,,,,,,,,,,,,,,728.9515965999999,729.6342852000002,729.6342852000002,730.2341488000002,0.5994516999999178,730.2341488000002,732.2344471000001,2.5988827999999558,None,1,increament,0.6,25,standard,None,100,,,,,,,,m,24,232,fr,r,0,raw,2023-04-04_12h05.21.685,oddball,2022.2.5,60.26924683330714,
10,,,,,0,0,0,2,6,0,6,0,4,0,4,0,,,,,,,,,,,,,,,,,732.2344471000001,732.9013043,732.9013043,733.5011331999999,0.5993062000002283,733.5011331999999,735.5009772000003,2.5992412000000513,None,1,increament,0.6,25,standard,None,100,,,,,,,,m,24,232,fr,r,0,raw,2023-04-04_12h05.21.685,oddball,2022.2.5,60.26924683330714,
10,,,,,0,0,0,2,6,0,6,0,5,0,5,0,,,,,,,,,,,,,,,,,735.5009772000003,736.2344797000001,736.2344797000001,737.0678849999999,0.8484325999997964,737.0846763,739.0684194,2.8489504999997735,j,1,increament,0.84,27,oddball,j,140,0.31006749999983185,,,,,,,m,24,232,fr,r,0,raw,2023-04-04_12h05.21.685,oddball,2022.2.5,60.26924683330714,
10,,,,,0,0,0,2,6,0,6,0,6,0,6,0,,,,,,,,,,,,,,,,,739.0844504000002,739.8682268000002,739.8682268000002,740.4511702,0.5992758000002141,740.4675679000002,742.4515178000001,2.599647200000163,None,1,increament,0.6,25,standard,None,100,,,,,,,,m,24,232,fr,r,0,raw,2023-04-04_12h05.21.685,oddball,2022.2.5,60.26924683330714,
10,,,,,0,0,0,2,6,0,6,0,7,0,7,0,,,,,,,,,,,,,,,,,742.4683973000001,743.2513656000001,743.2513656000001,743.8346524000003,0.5993247999999767,743.8519292000001,745.8347206000003,2.5993757000001096,None,1,increament,0.6,25,standard,None,100,,,,,,,,m,24,232,fr,r,0,raw,2023-04-04_12h05.21.685,oddball,2022.2.5,60.26924683330714,
10,,,,,0,0,0,2,6,0,6,0,8,0,8,0,,,,,,,,,,,,,,,,,745.8514789999999,746.5513100000003,746.5513100000003,747.1347536000003,0.5993478999998842,747.1515029000002,749.1355761,2.6001862000002802,None,1,increament,0.6,25,standard,None,100,,,,,,,,m,24,232,fr,r,0,raw,2023-04-04_12h05.21.685,oddball,2022.2.5,60.26924683330714,
10,,,,,0,0,0,2,6,0,6,0,9,0,9,0,,,,,,,,,,,,,,,,,749.1516664999999,749.8681006000002,749.8681006000002,750.5850350999999,0.7326514999999745,750.6022538000002,752.5849625999999,2.7325854999999137,None,0,increament,0.72,26,oddball,j,120,,,,,,,,m,24,232,fr,r,0,raw,2023-04-04_12h05.21.685,oddball,2022.2.5,60.26924683330714,
10,,,,,0,0,0,2,6,0,6,0,10,0,10,0,,,,,,,,,,,,,,,,,752.6018217000001,753.3018430000002,753.3018430000002,753.9016936000003,0.6146752999998171,753.9016936000003,755.9018999,2.614882200000011,None,1,increament,0.6,25,standard,None,100,,,,,,,,m,24,232,fr,r,0,raw,2023-04-04_12h05.21.685,oddball,2022.2.5,60.26924683330714,
10,,,,,0,0,0,2,6,0,6,0,11,0,11,0,,,,,,,,,,,,,,,,,755.9183980000003,756.5685097,756.5685097,757.1686082000001,0.6155053000002226,757.1686082000001,759.1686776000001,2.6155766000001677,None,1,increament,0.6,25,standard,None,100,,,,,,,,m,24,232,fr,r,0,raw,2023-04-04_12h05.21.685,oddball,2022.2.5,60.26924683330714,
10,,,,,0,0,0,2,6,0,6,0,12,0,12,0,,,,,,,,,,,,,,,,,759.1854387000003,759.9684265999999,759.9684265999999,760.5518259,0.5990593000001354,760.5684357,762.5528251999999,2.6000678000000335,None,1,increament,0.6,25,standard,None,100,,,,,,,,m,24,232,fr,r,0,raw,2023-04-04_12h05.21.685,oddball,2022.2.5,60.26924683330714,
10,,,,,0,0,0,2,6,0,6,0,13,0,13,0,,,,,,,,,,,,,,,,,762.5685778000002,763.1687519000002,763.1687519000002,763.7520883000002,0.5995232000000215,763.7688232999999,765.7521644000003,2.599608900000021,None,1,increament,0.6,25,standard,None,100,,,,,,,,m,24,232,fr,r,0,raw,2023-04-04_12h05.21.685,oddball,2022.2.5,60.26924683330714,
10,,,,,0,0,0,2,6,0,6,0,14,0,14,0,,,,,,,,,,,,,,,,,765.7687737000001,766.4022596,766.4022596,766.9856401000002,0.599619299999631,767.0025108,768.9855186,2.599494799999775,None,1,increament,0.6,25,standard,None,100,,,,,,,,m,24,232,fr,r,0,raw,2023-04-04_12h05.21.685,oddball,2022.2.5,60.26924683330714,
10,,,,,0,0,0,2,6,0,6,0,15,0,15,0,,,,,,,,,,,,,,,,,769.0024511000001,769.6025088000001,769.6025088000001,770.1864518000002,0.6000629000000117,770.2022778999999,772.1856822,2.5992936000002373,None,1,increament,0.6,25,standard,None,100,,,,,,,,m,24,232,fr,r,0,raw,2023-04-04_12h05.21.685,oddball,2022.2.5,60.26924683330714,
10,,,,,0,0,0,2,6,0,6,0,16,0,16,0,,,,,,,,,,,,,,,,,772.2024946000001,772.8196760000001,772.8196760000001,773.4025077000001,0.5992559000001165,773.4190711000001,775.4027074999999,2.5995155000000523,None,1,increament,0.6,25,standard,None,100,,,,,,,,m,24,232,fr,r,0,raw,2023-04-04_12h05.21.685,oddball,2022.2.5,60.26924683330714,
10,,,,,0,0,0,2,6,0,6,0,17,0,17,0,,,,,,,,,,,,,,,,,775.4197284000002,776.1024649999999,776.1024649999999,776.6859730000001,0.5992608000001383,776.7025321000001,778.6859690000001,2.5992599000001064,None,1,increament,0.6,25,standard,None,100,,,,,,,,m,24,232,fr,r,0,raw,2023-04-04_12h05.21.685,oddball,2022.2.5,60.26924683330714,
10,,,,,0,0,0,2,6,0,6,0,18,0,18,0,,,,,,,,,,,,,,,,,778.7026519000001,779.4693353000002,779.4693353000002,780.0526899000001,0.5991124000001946,780.0696185000002,782.0531489,2.599591099999998,None,1,increament,0.6,25,standard,None,100,,,,,,,,m,24,232,fr,r,0,raw,2023-04-04_12h05.21.685,oddball,2022.2.5,60.26924683330714,
10,,,,,0,0,0,2,6,0,6,0,19,0,19,0,,,,,,,,,,,,,,,,,782.0694011,782.7525959,782.7525959,783.3363468000002,0.5998982000000979,783.3532817,785.3364094000003,2.5998921000000337,None,1,increament,0.6,25,standard,None,100,,,,,,,,m,24,232,fr,r,0,raw,2023-04-04_12h05.21.685,oddball,2022.2.5,60.26924683330714,
10,,,,,0,0,0,2,6,0,6,0,20,0,20,0,,,,,,,,,,,,,,,,,785.3527833000003,786.0195719000003,786.0195719000003,786.6196038000003,0.5990084000000024,786.6196038000003,788.6196127000003,2.599046299999827,None,1,increament,0.6,25,standard,None,100,,,,,,,,m,24,232,fr,r,0,raw,2023-04-04_12h05.21.685,oddball,2022.2.5,60.26924683330714,
10,,,,,0,0,0,2,6,0,6,0,21,0,21,0,,,,,,,,,,,,,,,,,788.6196127000003,789.2698479000001,789.2698479000001,789.8536211,0.6000238000001445,789.8697734000002,791.8530301000001,2.599432699999852,None,1,increament,0.6,25,standard,None,100,,,,,,,,m,24,232,fr,r,0,raw,2023-04-04_12h05.21.685,oddball,2022.2.5,60.26924683330714,
10,,,,,0,0,0,2,6,0,6,0,22,0,22,0,,,,,,,,,,,,,,,,,791.8696809000003,792.5198806000003,792.5198806000003,793.4698799000003,0.9662654999997358,793.4865359,795.4705955,2.9669880999999805,j,1,increament,0.96,28,oddball,j,160,0.19515260000002854,,,,,,,m,24,232,fr,r,0,raw,2023-04-04_12h05.21.685,oddball,2022.2.5,60.26924683330714,
10,,,,,0,0,0,2,6,0,6,0,23,0,23,0,,,,,,,,,,,,,,,,,795.4865089,796.0701337999999,796.0701337999999,796.6532977000002,0.5993650000000343,796.6699404999999,798.6533718000001,2.599443000000065,None,1,increament,0.6,25,standard,None,100,,,,,,,,m,24,232,fr,r,0,raw,2023-04-04_12h05.21.685,oddball,2022.2.5,60.26924683330714,
10,,,,,0,0,0,2,6,0,6,0,24,0,24,0,,,,,,,,,,,,,,,,,798.6700205000002,799.3705419000003,799.3705419000003,799.9535655,0.5995913000001565,799.9700382999999,801.9534223,2.5994519999999284,None,1,increament,0.6,25,standard,None,100,,,,,,,,m,24,232,fr,r,0,raw,2023-04-04_12h05.21.685,oddball,2022.2.5,60.26924683330714,
10,,,,,0,0,0,2,6,0,6,0,25,0,25,0,,,,,,,,,,,,,,,,,801.9705410000001,802.7201640000003,802.7201640000003,803.3040839,0.599625300000298,803.3201736999999,805.3035083,2.599054900000283,None,1,increament,0.6,25,standard,None,100,,,,,,,,m,24,232,fr,r,0,raw,2023-04-04_12h05.21.685,oddball,2022.2.5,60.26924683330714,
10,,,,,0,0,0,2,6,0,6,0,26,0,26,0,,,,,,,,,,,,,,,,,805.3202371000002,805.9539988000001,805.9539988000001,806.5537791000002,0.615216700000019,806.5537791000002,808.5542364000003,2.6156661999998505,None,1,increament,0.6,25,standard,None,100,,,,,,,,m,24,232,fr,r,0,raw,2023-04-04_12h05.21.685,oddball,2022.2.5,60.26924683330714,
10,,,,,0,0,0,2,6,0,6,0,27,0,27,0,,,,,,,,,,,,,,,,,808.5704470999999,809.1871497000002,809.1871497000002,809.7707045000002,0.5993922000002385,809.7871436,811.7705969000003,2.599265600000308,None,1,increament,0.6,25,standard,None,100,,,,,,,,m,24,232,fr,r,0,raw,2023-04-04_12h05.21.685,oddball,2022.2.5,60.26924683330714,
10,,,,,0,0,0,2,6,0,6,0,28,0,28,0,,,,,,,,,,,,,,,,,811.7871786999999,812.5377496000001,812.5377496000001,813.1207741000003,0.5993935000001329,813.1371589999999,815.1207374999999,2.599362299999939,None,1,increament,0.6,25,standard,None,100,,,,,,,,m,24,232,fr,r,0,raw,2023-04-04_12h05.21.685,oddball,2022.2.5,60.26924683330714,
10,,,,,0,0,0,2,6,0,6,0,29,0,29,0,,,,,,,,,,,,,,,,,815.1378463000001,815.7208458,815.7208458,816.3046531,0.600089300000036,816.3207061000003,818.3041982,2.599644399999761,None,1,increament,0.6,25,standard,None,100,,,,,,,,m,24,232,fr,r,0,raw,2023-04-04_12h05.21.685,oddball,2022.2.5,60.26924683330714,
10,,,,,0,0,0,2,7,0,7,0,0,0,0,0,,,,,,,,,,,,,,,821.937653,821.937653,823.554322,824.3045485000002,824.3045485000002,824.8883354,0.5997239999996964,824.9049206,826.8883190000001,2.599642899999708,None,1,decreament,0.6,21,standard,None,100,,818.3209377000003,0.001447300000108953,,,,,m,24,232,fr,r,0,raw,2023-04-04_12h05.21.685,oddball,2022.2.5,60.26924683330714,
10,,,,,0,0,0,2,7,0,7,0,1,0,1,0,,,,,,,,,,,,,,,,,826.904563,827.6549798000001,827.6549798000001,828.2546596000002,0.6148527000000286,828.2546596000002,830.2545866,2.61470670000017,None,1,decreament,0.6,21,standard,None,100,,,,,,,,m,24,232,fr,r,0,raw,2023-04-04_12h05.21.685,oddball,2022.2.5,60.26924683330714,
10,,,,,0,0,0,2,7,0,7,0,2,0,2,0,,,,,,,,,,,,,,,,,830.2713013000002,830.8546694000001,830.8546694000001,831.4383981000001,0.6001096999998481,831.4545969000001,833.4385072,2.6002607999998872,None,1,decreament,0.6,21,standard,None,100,,,,,,,,m,24,232,fr,r,0,raw,2023-04-04_12h05.21.685,oddball,2022.2.5,60.26924683330714,
10,,,,,0,0,0,2,7,0,7,0,3,0,3,0,,,,,,,,,,,,,,,,,833.4549685000002,834.2214504000003,834.2214504000003,834.8051233000001,0.5998562999998285,834.8217089,836.8047691000002,2.599411599999712,None,1,decreament,0.6,21,standard,None,100,,,,,,,,m,24,232,fr,r,0,raw,2023-04-04_12h05.21.685,oddball,2022.2.5,60.26924683330714,
10,,,,,0,0,0,2,7,0,7,0,4,0,4,0,,,,,,,,,,,,,,,,,836.8217172,837.4554252000003,837.4554252000003,838.0549289999999,0.6148243000002367,838.0549289999999,840.0551962,2.6151574000000437,None,1,decreament,0.6,21,standard,None,100,,,,,,,,m,24,232,fr,r,0,raw,2023-04-04_12h05.21.685,oddball,2022.2.5,60.26924683330714,
10,,,,,0,0,0,2,7,0,7,0,5,0,5,0,,,,,,,,,,,,,,,,,840.0715198000003,840.7216696999999,840.7216696999999,841.3051266000002,0.5993084000001545,841.3216799000002,843.3050874999999,2.5992464000000837,None,1,decreament,0.6,21,standard,None,100,,,,,,,,m,24,232,fr,r,0,raw,2023-04-04_12h05.21.685,oddball,2022.2.5,60.26924683330714,
10,,,,,0,0,0,2,7,0,7,0,6,0,6,0,,,,,,,,,,,,,,,,,843.3218338000001,843.9551465,843.9551465,844.5388768000003,0.5999559000001682,844.5556243000001,846.5391290000002,2.6002238999999463,None,1,decreament,0.6,21,standard,None,100,,,,,,,,m,24,232,fr,r,0,raw,2023-04-04_12h05.21.685,oddball,2022.2.5,60.26924683330714,
10,,,,,0,0,0,2,7,0,7,0,7,0,7,0,,,,,,,,,,,,,,,,,846.5555822000001,847.1552339,847.1552339,847.7385693000001,0.5994841000001543,847.7551981000001,849.7386031000001,2.5995154000002003,None,1,decreament,0.6,21,standard,None,100,,,,,,,,m,24,232,fr,r,0,raw,2023-04-04_12h05.21.685,oddball,2022.2.5,60.26924683330714,
10,,,,,0,0,0,2,7,0,7,0,8,0,8,0,,,,,,,,,,,,,,,,,849.7552942000002,850.589023,850.589023,851.1885836000001,0.6149070000001302,851.1885836000001,853.1887405000002,2.615059199999905,None,1,decreament,0.6,21,standard,None,100,,,,,,,,m,24,232,fr,r,0,raw,2023-04-04_12h05.21.685,oddball,2022.2.5,60.26924683330714,
10,,,,,0,0,0,2,7,0,7,0,9,0,9,0,,,,,,,,,,,,,,,,,853.2054951,853.8054928000001,853.8054928000001,854.1555398999999,0.365932800000337,854.1720976000001,856.1551902000001,2.3655610000000706,j,1,decreament,0.36,23,oddball,j,60,0.5510458999999628,,,,,,,m,24,232,fr,r,0,raw,2023-04-04_12h05.21.685,oddball,2022.2.5,60.26924683330714,
10,,,,,0,0,0,2,7,0,7,0,10,0,10,0,,,,,,,,,,,,,,,,,856.171953,856.7558464000003,856.7558464000003,857.3389479000002,0.5995232999998734,857.3555094000003,859.3392182000002,2.5998028999997587,None,1,decreament,0.6,21,standard,None,100,,,,,,,,m,24,232,fr,r,0,raw,2023-04-04_12h05.21.685,oddball,2022.2.5,60.26924683330714,
10,,,,,0,0,0,2,7,0,7,0,11,0,11,0,,,,,,,,,,,,,,,,,859.3556470000003,859.9230910000001,859.9230910000001,860.5058594000002,0.5996276000000762,860.5225055999999,862.5059104000002,2.599671599999965,None,1,decreament,0.6,21,standard,None,100,,,,,,,,m,24,232,fr,r,0,raw,2023-04-04_12h05.21.685,oddball,2022.2.5,60.26924683330714,
10,,,,,0,0,0,2,7,0,7,0,12,0,12,0,,,,,,,,,,,,,,,,,862.5231556000003,863.2396635,863.2396635,863.8223312,0.5993521999998848,863.8391151000001,865.8226500000001,2.5996611000000485,None,1,decreament,0.6,21,standard,None,100,,,,,,,,m,24,232,fr,r,0,raw,2023-04-04_12h05.21.685,oddball,2022.2.5,60.26924683330714,
10,,,,,0,0,0,2,7,0,7,0,13,0,13,0,,,,,,,,,,,,,,,,,865.8397841000001,866.4392547000002,866.4392547000002,866.9060699000001,0.48141149999992194,866.9232471,868.9061741,2.4815230999997766,j,1,decreament,0.48,24,oddball,j,80,0.5096230000001469,,,,,,,m,24,232,fr,r,0,raw,2023-04-04_12h05.21.685,oddball,2022.2.5,60.26924683330714,
10,,,,,0,0,0,2,7,0,7,0,14,0,14,0,,,,,,,,,,,,,,,,,868.9226905,869.5059959,869.5059959,870.0894281999999,0.5990108000000873,870.1060997,872.0902353000001,2.599804899999981,None,1,decreament,0.6,21,standard,None,100,,,,,,,,m,24,232,fr,r,0,raw,2023-04-04_12h05.21.685,oddball,2022.2.5,60.26924683330714,
10,,,,,0,0,0,2,7,0,7,0,15,0,15,0,,,,,,,,,,,,,,,,,872.1060775000001,872.6397669000003,872.6397669000003,873.2235528000001,0.6001116999996157,873.2395301000001,875.2229830000001,2.5995566999999937,None,1,decreament,0.6,21,standard,None,100,,,,,,,,m,24,232,fr,r,0,raw,2023-04-04_12h05.21.685,oddball,2022.2.5,60.26924683330714,
10,,,,,0,0,0,2,7,0,7,0,16,0,16,0,,,,,,,,,,,,,,,,,875.2401292,875.8896554000003,875.8896554000003,876.4729694000002,0.5993032999999741,876.4901345000003,878.4731584000001,2.5994729000003645,None,1,decreament,0.6,21,standard,None,100,,,,,,,,m,24,232,fr,r,0,raw,2023-04-04_12h05.21.685,oddball,2022.2.5,60.26924683330714,
10,,,,,0,0,0,2,7,0,7,0,17,0,17,0,,,,,,,,,,,,,,,,,878.4895898,879.2729806000002,879.2729806000002,879.8565852000002,0.5994095999999445,879.8728437,881.8566020000003,2.5994344000000638,None,1,decreament,0.6,21,standard,None,100,,,,,,,,m,24,232,fr,r,0,raw,2023-04-04_12h05.21.685,oddball,2022.2.5,60.26924683330714,
10,,,,,0,0,0,2,7,0,7,0,18,0,18,0,,,,,,,,,,,,,,,,,881.8732643000003,882.5235178000003,882.5235178000003,883.1066555000002,0.5992486999998619,883.1235741999999,885.1065904000002,2.5991745999999694,None,1,decreament,0.6,21,standard,None,100,,,,,,,,m,24,232,fr,r,0,raw,2023-04-04_12h05.21.685,oddball,2022.2.5,60.26924683330714,
10,,,,,0,0,0,2,7,0,7,0,19,0,19,0,,,,,,,,,,,,,,,,,885.1232758000001,885.6733245,885.6733245,886.2567371,0.5995695000001433,886.2733394000002,888.2567403000003,2.599568399999953,None,1,decreament,0.6,21,standard,None,100,,,,,,,,m,24,232,fr,r,0,raw,2023-04-04_12h05.21.685,oddball,2022.2.5,60.26924683330714,
10,,,,,0,0,0,2,7,0,7,0,20,0,20,0,,,,,,,,,,,,,,,,,888.2734542000003,888.8739583000001,888.8739583000001,889.4572171,0.5994031999998697,889.4732251,891.4567627000001,2.5989352000001418,None,1,decreament,0.6,21,standard,None,100,,,,,,,,m,24,232,fr,r,0,raw,2023-04-04_12h05.21.685,oddball,2022.2.5,60.26924683330714,
10,,,,,0,0,0,2,7,0,7,0,21,0,21,0,,,,,,,,,,,,,,,,,891.4733384000001,892.1406376,892.1406376,892.3735568000002,0.24941069999977117,892.3909143999999,894.3736004000002,2.249467900000127,j,1,decreament,0.24,22,oddball,j,40,0.5324417999997877,,,,,,,m,24,232,fr,r,0,raw,2023-04-04_12h05.21.685,oddball,2022.2.5,60.26924683330714,
10,,,,,0,0,0,2,7,0,7,0,22,0,22,0,,,,,,,,,,,,,,,,,894.3900983000003,894.9575451999999,894.9575451999999,895.5411885000003,0.600171500000215,895.5571651,897.5404908999999,2.5994488000001184,None,1,decreament,0.6,21,standard,None,100,,,,,,,,m,24,232,fr,r,0,raw,2023-04-04_12h05.21.685,oddball,2022.2.5,60.26924683330714,
10,,,,,0,0,0,2,7,0,7,0,23,0,23,0,,,,,,,,,,,,,,,,,897.5578519000001,898.2242040000001,898.2242040000001,898.8072507000002,0.5995453000000452,898.8238167,900.8072996000001,2.5995928000002095,None,1,decreament,0.6,21,standard,None,100,,,,,,,,m,24,232,fr,r,0,raw,2023-04-04_12h05.21.685,oddball,2022.2.5,60.26924683330714,
10,,,,,0,0,0,2,7,0,7,0,24,0,24,0,,,,,,,,,,,,,,,,,900.8245360999999,901.3739795000001,901.3739795000001,901.9578650000003,0.6000784000002568,901.9737849000003,903.9573704,2.5995778999999857,None,1,decreament,0.6,21,standard,None,100,,,,,,,,m,24,232,fr,r,0,raw,2023-04-04_12h05.21.685,oddball,2022.2.5,60.26924683330714,
10,,,,,0,0,0,2,7,0,7,0,25,0,25,0,,,,,,,,,,,,,,,,,903.9741490000001,904.7574020000002,904.7574020000002,905.3408072000002,0.5994770000002063,905.3578345999999,907.3409354,2.599619999999959,None,1,decreament,0.6,21,standard,None,100,,,,,,,,m,24,232,fr,r,0,raw,2023-04-04_12h05.21.685,oddball,2022.2.5,60.26924683330714,
10,,,,,0,0,0,2,7,0,7,0,26,0,26,0,,,,,,,,,,,,,,,,,907.3574710000003,908.1741598000003,908.1741598000003,908.7743157,0.599248500000158,908.7743157,910.7743581,2.5989936000000853,None,1,decreament,0.6,21,standard,None,100,,,,,,,,m,24,232,fr,r,0,raw,2023-04-04_12h05.21.685,oddball,2022.2.5,60.26924683330714,
10,,,,,0,0,0,2,7,0,7,0,27,0,27,0,,,,,,,,,,,,,,,,,910.7743581,911.3743939999999,911.3743939999999,911.9745499,0.6156926999997268,911.9745499,913.9746141,2.615762299999915,None,1,decreament,0.6,21,standard,None,100,,,,,,,,m,24,232,fr,r,0,raw,2023-04-04_12h05.21.685,oddball,2022.2.5,60.26924683330714,
10,,,,,0,0,0,2,7,0,7,0,28,0,28,0,,,,,,,,,,,,,,,,,913.9912154000003,914.6078104000003,914.6078104000003,915.1911129,0.5993174000000181,915.2078028000001,917.1918507,2.5999794999997903,None,1,decreament,0.6,21,standard,None,100,,,,,,,,m,24,232,fr,r,0,raw,2023-04-04_12h05.21.685,oddball,2022.2.5,60.26924683330714,
10,,,,,0,0,0,2,7,0,7,0,29,0,29,0,,,,,,,,,,,,,,,,,917.2078513000001,917.8081282000003,917.8081282000003,918.3912327000003,0.5993396000003486,918.4079454000002,920.3918644999999,2.599966100000074,None,1,decreament,0.6,21,standard,None,100,,,,,,,,m,24,232,fr,r,0,raw,2023-04-04_12h05.21.685,oddball,2022.2.5,60.26924683330714,
10,,,,,0,0,0,2,8,0,8,0,0,0,0,0,,,,,,,,,,,,,,,937.9628022000002,937.9628022000002,940.7255537000001,941.5589759,941.5589759,942.1590633999999,0.6153921000000082,942.1590633999999,944.1587625000002,2.6150808999996116,None,1,increament,0.6,25,standard,None,100,,920.4080066000001,0.0010050999999293708,,,,,m,24,232,fr,r,0,raw,2023-04-04_12h05.21.685,oddball,2022.2.5,60.26924683330714,
10,,,,,0,0,0,2,8,0,8,0,1,0,1,0,,,,,,,,,,,,,,,,,944.1755802000002,944.8590323000003,944.8590323000003,945.4424087000002,0.5995581000001948,945.4588812000002,947.4424773999999,2.59967400000005,None,1,increament,0.6,25,standard,None,100,,,,,,,,m,24,232,fr,r,0,raw,2023-04-04_12h05.21.685,oddball,2022.2.5,60.26924683330714,
10,,,,,0,0,0,2,8,0,8,0,2,0,2,0,,,,,,,,,,,,,,,,,947.4592559000002,948.0092514000003,948.0092514000003,948.6095045000002,0.5990708999997878,948.6095045000002,950.6092629,2.59901839999975,None,1,increament,0.6,25,standard,None,100,,,,,,,,m,24,232,fr,r,0,raw,2023-04-04_12h05.21.685,oddball,2022.2.5,60.26924683330714,
10,,,,,0,0,0,2,8,0,8,0,3,0,3,0,,,,,,,,,,,,,,,,,950.6092629,951.3425034000002,951.3425034000002,951.9424076,0.6154431999998451,951.9424076,953.9426570999999,2.6156937000000653,None,1,increament,0.6,25,standard,None,100,,,,,,,,m,24,232,fr,r,0,raw,2023-04-04_12h05.21.685,oddball,2022.2.5,60.26924683330714,
10,,,,,0,0,0,2,8,0,8,0,4,0,4,0,,,,,,,,,,,,,,,,,953.9593297000001,954.5426975,954.5426975,955.1259482999999,0.599373900000046,955.1425506999999,957.1264214000003,2.5999127000000044,None,1,increament,0.6,25,standard,None,100,,,,,,,,m,24,232,fr,r,0,raw,2023-04-04_12h05.21.685,oddball,2022.2.5,60.26924683330714,
10,,,,,0,0,0,2,8,0,8,0,5,0,5,0,,,,,,,,,,,,,,,,,957.1430078000003,957.7595060000003,957.7595060000003,958.343112,0.5994111999998495,958.3598270000002,960.3434023,2.5995781000001443,None,1,increament,0.6,25,standard,None,100,,,,,,,,m,24,232,fr,r,0,raw,2023-04-04_12h05.21.685,oddball,2022.2.5,60.26924683330714,
10,,,,,0,0,0,2,8,0,8,0,6,0,6,0,,,,,,,,,,,,,,,,,960.3596769000001,961.1095525000001,961.1095525000001,961.6934034999999,0.5993139000001975,961.7095632,963.6928946000003,2.5988032999998723,None,1,increament,0.6,25,standard,None,100,,,,,,,,m,24,232,fr,r,0,raw,2023-04-04_12h05.21.685,oddball,2022.2.5,60.26924683330714,
10,,,,,0,0,0,2,8,0,8,0,7,0,7,0,,,,,,,,,,,,,,,,,963.7097451,964.3596390000002,964.3596390000002,964.9430851000002,0.5993181999997432,964.9601529000001,966.94337,2.599594199999956,None,1,increament,0.6,25,standard,None,100,,,,,,,,m,24,232,fr,r,0,raw,2023-04-04_12h05.21.685,oddball,2022.2.5,60.26924683330714,
10,,,,,0,0,0,2,8,0,8,0,8,0,8,0,,,,,,,,,,,,,,,,,966.9598013,967.6440093000001,967.6440093000001,968.2265336,0.5994934999998804,968.2431956,970.2263992000003,2.5993743999997605,None,1,increament,0.6,25,standard,None,100,,,,,,,,m,24,232,fr,r,0,raw,2023-04-04_12h05.21.685,oddball,2022.2.5,60.26924683330714,
10,,,,,0,0,0,2,8,0,8,0,9,0,9,0,,,,,,,,,,,,,,,,,970.2437666999999,970.8434661000001,970.8434661000001,971.4433606000002,0.6149003999998968,971.4433606000002,973.4435221000003,2.615042700000231,None,1,increament,0.6,25,standard,None,100,,,,,,,,m,24,232,fr,r,0,raw,2023-04-04_12h05.21.685,oddball,2022.2.5,60.26924683330714,
10,,,,,0,0,0,2,8,0,8,0,10,0,10,0,,,,,,,,,,,,,,,,,973.4601032,974.0601110000002,974.0601110000002,975.0100035,0.9661338000000796,975.0267027,977.0104024000002,2.966602899999998,j,1,increament,0.96,28,oddball,j,160,0.3227814999997918,,,,,,,m,24,232,fr,r,0,raw,2023-04-04_12h05.21.685,oddball,2022.2.5,60.26924683330714,
10,,,,,0,0,0,2,8,0,8,0,11,0,11,0,,,,,,,,,,,,,,,,,977.0269308000002,977.8271610000002,977.8271610000002,978.4266812999999,0.6147109000003184,978.4266812999999,980.4268169000002,2.61482500000011,None,1,increament,0.6,25,standard,None,100,,,,,,,,m,24,232,fr,r,0,raw,2023-04-04_12h05.21.685,oddball,2022.2.5,60.26924683330714,
10,,,,,0,0,0,2,8,0,8,0,12,0,12,0,,,,,,,,,,,,,,,,,980.4435547000003,981.1602772000001,981.1602772000001,981.7437304,0.5996420999999827,981.7603622000001,983.7437528,2.599645899999814,None,1,increament,0.6,25,standard,None,100,,,,,,,,m,24,232,fr,r,0,raw,2023-04-04_12h05.21.685,oddball,2022.2.5,60.26924683330714,
10,,,,,0,0,0,2,8,0,8,0,13,0,13,0,,,,,,,,,,,,,,,,,983.7610463000001,984.4102999000002,984.4102999000002,984.9937880000002,0.5991747999996733,985.0103714000002,986.9943293000001,2.599714199999653,None,1,increament,0.6,25,standard,None,100,,,,,,,,m,24,232,fr,r,0,raw,2023-04-04_12h05.21.685,oddball,2022.2.5,60.26924683330714,
10,,,,,0,0,0,2,8,0,8,0,14,0,14,0,,,,,,,,,,,,,,,,,987.0105232000001,987.8605618000001,987.8605618000001,988.6939501000002,0.849436699999842,988.7105941,990.6942567000001,2.849737399999867,None,0,increament,0.84,27,oddball,j,140,,,,,,,,m,24,232,fr,r,0,raw,2023-04-04_12h05.21.685,oddball,2022.2.5,60.26924683330714,
10,,,,,0,0,0,2,8,0,8,0,15,0,15,0,,,,,,,,,,,,,,,,,990.7106153,991.2440732,991.2440732,991.8274463000002,0.5991494999998395,991.8438226000003,993.8276205000002,2.599311200000102,None,1,increament,0.6,25,standard,None,100,,,,,,,,m,24,232,fr,r,0,raw,2023-04-04_12h05.21.685,oddball,2022.2.5,60.26924683330714,
10,,,,,0,0,0,2,8,0,8,0,16,0,16,0,,,,,,,,,,,,,,,,,993.8442760000003,994.4773531000001,994.4773531000001,995.0774145999999,0.6151930000000903,995.0774145999999,997.0776276000001,2.615477599999849,None,1,increament,0.6,25,standard,None,100,,,,,,,,m,24,232,fr,r,0,raw,2023-04-04_12h05.21.685,oddball,2022.2.5,60.26924683330714,
10,,,,,0,0,0,2,8,0,8,0,17,0,17,0,,,,,,,,,,,,,,,,,997.0942399,997.6111496000003,997.6111496000003,998.1947180000002,0.6000364999999874,998.2108549,1000.1944081000001,2.5997403000001214,None,1,increament,0.6,25,standard,None,100,,,,,,,,m,24,232,fr,r,0,raw,2023-04-04_12h05.21.685,oddball,2022.2.5,60.26924683330714,
10,,,,,0,0,0,2,8,0,8,0,18,0,18,0,,,,,,,,,,,,,,,,,1000.2117063000001,1000.8610186999999,1000.8610186999999,1001.4443955000002,0.5993088000000171,1001.4610274000001,1003.4447899000002,2.599699700000201,None,1,increament,0.6,25,standard,None,100,,,,,,,,m,24,232,fr,r,0,raw,2023-04-04_12h05.21.685,oddball,2022.2.5,60.26924683330714,
10,,,,,0,0,0,2,8,0,8,0,19,0,19,0,,,,,,,,,,,,,,,,,1003.4611862000002,1004.1445421000003,1004.1445421000003,1004.7279712,0.5996369999998024,1004.7453125000002,1006.7278519000001,2.5995122999997875,None,1,increament,0.6,25,standard,None,100,,,,,,,,m,24,232,fr,r,0,raw,2023-04-04_12h05.21.685,oddball,2022.2.5,60.26924683330714,
10,,,,,0,0,0,2,8,0,8,0,20,0,20,0,,,,,,,,,,,,,,,,,1006.7445559000003,1007.4612447,1007.4612447,1008.0445754000002,0.5993992000003345,1008.0617235,1010.0444106,2.5992197999999007,None,1,increament,0.6,25,standard,None,100,,,,,,,,m,24,232,fr,r,0,raw,2023-04-04_12h05.21.685,oddball,2022.2.5,60.26924683330714,
10,,,,,0,0,0,2,8,0,8,0,21,0,21,0,,,,,,,,,,,,,,,,,1010.0612074999999,1010.8280042000001,1010.8280042000001,1011.4116712,0.5993959000002178,1011.4279776000003,1013.4116323000003,2.599336199999925,None,1,increament,0.6,25,standard,None,100,,,,,,,,m,24,232,fr,r,0,raw,2023-04-04_12h05.21.685,oddball,2022.2.5,60.26924683330714,
10,,,,,0,0,0,2,8,0,8,0,22,0,22,0,,,,,,,,,,,,,,,,,1013.4282725000003,1014.0622659999999,1014.0622659999999,1014.6451133999999,0.5996886000002632,1014.6616895000002,1016.6451386000003,2.5997216000000662,None,1,increament,0.6,25,standard,None,100,,,,,,,,m,24,232,fr,r,0,raw,2023-04-04_12h05.21.685,oddball,2022.2.5,60.26924683330714,
10,,,,,0,0,0,2,8,0,8,0,23,0,23,0,,,,,,,,,,,,,,,,,1016.6623266000001,1017.3287249,1017.3287249,1017.9116592999999,0.5995384999996531,1017.9281914000003,1019.9116654,2.5995426999998017,None,1,increament,0.6,25,standard,None,100,,,,,,,,m,24,232,fr,r,0,raw,2023-04-04_12h05.21.685,oddball,2022.2.5,60.26924683330714,
10,,,,,0,0,0,2,8,0,8,0,24,0,24,0,,,,,,,,,,,,,,,,,1019.9290635000002,1020.4952600000001,1020.4952600000001,1021.0951055,0.6149231999997937,1021.0951055,1023.0954341000001,2.6152514000000338,None,1,increament,0.6,25,standard,None,100,,,,,,,,m,24,232,fr,r,0,raw,2023-04-04_12h05.21.685,oddball,2022.2.5,60.26924683330714,
10,,,,,0,0,0,2,8,0,8,0,25,0,25,0,,,,,,,,,,,,,,,,,1023.1116281,1023.7461636000003,1023.7461636000003,1024.3286148000002,0.59941549999985,1024.3453136000003,1026.3285395000003,2.59932549999985,None,1,increament,0.6,25,standard,None,100,,,,,,,,m,24,232,fr,r,0,raw,2023-04-04_12h05.21.685,oddball,2022.2.5,60.26924683330714,
10,,,,,0,0,0,2,8,0,8,0,26,0,26,0,,,,,,,,,,,,,,,,,1026.3454493,1027.0953601,1027.0953601,1027.812391,0.7330332000001363,1027.8289708000002,1029.8123196000001,2.7329617999998845,None,0,increament,0.72,26,oddball,j,120,,,,,,,,m,24,232,fr,r,0,raw,2023-04-04_12h05.21.685,oddball,2022.2.5,60.26924683330714,
10,,,,,0,0,0,2,8,0,8,0,27,0,27,0,,,,,,,,,,,,,,,,,1029.8287069000003,1030.379331,1030.379331,1030.9621639000002,0.5992804000002252,1030.9787608000001,1032.9622449000003,2.599349600000096,None,1,increament,0.6,25,standard,None,100,,,,,,,,m,24,232,fr,r,0,raw,2023-04-04_12h05.21.685,oddball,2022.2.5,60.26924683330714,
10,,,,,0,0,0,2,8,0,8,0,28,0,28,0,,,,,,,,,,,,,,,,,1032.9788823,1033.7122183000001,1033.7122183000001,1034.2956808,0.5992491000001792,1034.312317,1036.2964697000002,2.60004089999984,None,1,increament,0.6,25,standard,None,100,,,,,,,,m,24,232,fr,r,0,raw,2023-04-04_12h05.21.685,oddball,2022.2.5,60.26924683330714,
10,,,,,0,0,0,2,8,0,8,0,29,0,29,0,,,,,,,,,,,,,,,,,1036.3122726000001,1036.8790931000003,1036.8790931000003,1037.4626323000002,0.5998199999999088,1037.4796684000003,1039.4627578,2.599971600000117,None,1,increament,0.6,25,standard,None,100,,,,,,,,m,24,232,fr,r,0,raw,2023-04-04_12h05.21.685,oddball,2022.2.5,60.26924683330714,
10,,,,,0,0,0,2,9,0,9,0,0,0,0,0,,,,,,,,,,,,,,,1049.2678912000001,1049.2678912000001,1050.7293143000002,1051.3463101000002,1051.3463101000002,1051.9296705000002,0.5995858000001135,1051.9462684,1053.9296217,2.5995364000000336,None,1,decreament,0.6,21,standard,None,100,,1039.4792684,0.0011631000002125802,,,,,m,24,232,fr,r,0,raw,2023-04-04_12h05.21.685,oddball,2022.2.5,60.26924683330714,
10,,,,,0,0,0,2,9,0,9,0,1,0,1,0,,,,,,,,,,,,,,,,,1053.9462888000003,1054.6804232,1054.6804232,1055.26309,0.599478299999646,1055.2796737000003,1057.2632255000003,2.5996063999996295,None,1,decreament,0.6,21,standard,None,100,,,,,,,,m,24,232,fr,r,0,raw,2023-04-04_12h05.21.685,oddball,2022.2.5,60.26924683330714,
10,,,,,0,0,0,2,9,0,9,0,2,0,2,0,,,,,,,,,,,,,,,,,1057.2801169,1057.9299428,1057.9299428,1058.5132521,0.5993978999999854,1058.5304363,1060.5134764,2.5996241000002556,None,1,decreament,0.6,21,standard,None,100,,,,,,,,m,24,232,fr,r,0,raw,2023-04-04_12h05.21.685,oddball,2022.2.5,60.26924683330714,
10,,,,,0,0,0,2,9,0,9,0,3,0,3,0,,,,,,,,,,,,,,,,,1060.5299760000003,1061.1304759,1061.1304759,1061.7298921000001,0.6154989000001478,1061.7298921000001,1063.730744,2.6163218000001507,None,1,decreament,0.6,21,standard,None,100,,,,,,,,m,24,232,fr,r,0,raw,2023-04-04_12h05.21.685,oddball,2022.2.5,60.26924683330714,
10,,,,,0,0,0,2,9,0,9,0,4,0,4,0,,,,,,,,,,,,,,,,,1063.7467295000001,1064.3970184,1064.3970184,1064.9801525000003,0.5993880999999419,1064.9972183,1066.9802534,2.5994700000001103,None,1,decreament,0.6,21,standard,None,100,,,,,,,,m,24,232,fr,r,0,raw,2023-04-04_12h05.21.685,oddball,2022.2.5,60.26924683330714,
10,,,,,0,0,0,2,9,0,9,0,5,0,5,0,,,,,,,,,,,,,,,,,1066.9969254000002,1067.6969963000001,1067.6969963000001,1067.9300962000002,0.24817140000004656,1067.9467868000002,1069.9305321000002,2.2485851999999795,j,1,decreament,0.24,22,oddball,j,40,0.4897241999999551,,,,,,,m,24,232,fr,r,0,raw,2023-04-04_12h05.21.685,oddball,2022.2.5,60.26924683330714,
10,,,,,0,0,0,2,9,0,9,0,6,0,6,0,,,,,,,,,,,,,,,,,1069.9475882000002,1070.6637674000003,1070.6637674000003,1071.2476129000001,0.6001333999997769,1071.2635542000003,1073.2471101,2.5996405999999297,None,1,decreament,0.6,21,standard,None,100,,,,,,,,m,24,232,fr,r,0,raw,2023-04-04_12h05.21.685,oddball,2022.2.5,60.26924683330714,
10,,,,,0,0,0,2,9,0,9,0,7,0,7,0,,,,,,,,,,,,,,,,,1073.2637432000001,1074.0302674,1074.0302674,1074.6140826,0.6001924000001964,1074.6302273000001,1076.6136439000002,2.5997637000000395,None,1,decreament,0.6,21,standard,None,100,,,,,,,,m,24,232,fr,r,0,raw,2023-04-04_12h05.21.685,oddball,2022.2.5,60.26924683330714,
10,,,,,0,0,0,2,9,0,9,0,8,0,8,0,,,,,,,,,,,,,,,,,1076.6304643000003,1077.1804126000002,1077.1804126000002,1077.763947,0.5996181999998953,1077.7805261000003,1079.7638519000002,2.5995161999999254,None,1,decreament,0.6,21,standard,None,100,,,,,,,,m,24,232,fr,r,0,raw,2023-04-04_12h05.21.685,oddball,2022.2.5,60.26924683330714,
10,,,,,0,0,0,2,9,0,9,0,9,0,9,0,,,,,,,,,,,,,,,,,1079.7809358,1080.5148901000002,1080.5148901000002,1080.9806506,0.4824021999997967,1080.9975280000003,1082.9814184000002,2.483160599999792,None,0,decreament,0.48,24,oddball,j,80,,,,,,,,m,24,232,fr,r,0,raw,2023-04-04_12h05.21.685,oddball,2022.2.5,60.26924683330714,
10,,,,,0,0,0,2,9,0,9,0,10,0,10,0,,,,,,,,,,,,,,,,,1082.9974506000003,1083.5641671000003,1083.5641671000003,1084.1474451,0.5995087000001149,1084.1644389000003,1086.1475881000001,2.599658399999953,None,1,decreament,0.6,21,standard,None,100,,,,,,,,m,24,232,fr,r,0,raw,2023-04-04_12h05.21.685,oddball,2022.2.5,60.26924683330714,
10,,,,,0,0,0,2,9,0,9,0,11,0,11,0,,,,,,,,,,,,,,,,,1086.1643557000002,1086.9978286,1086.9978286,1087.5810195,0.5993304999997235,1087.5980377,1089.581145,2.599459499999739,None,1,decreament,0.6,21,standard,None,100,,,,,,,,m,24,232,fr,r,0,raw,2023-04-04_12h05.21.685,oddball,2022.2.5,60.26924683330714,
10,,,,,0,0,0,2,9,0,9,0,12,0,12,0,,,,,,,,,,,,,,,,,1089.5977200000002,1090.4148716,1090.4148716,1090.9977707000003,0.5994149000002835,1091.0143824000002,1092.9980046,2.599659900000006,None,1,decreament,0.6,21,standard,None,100,,,,,,,,m,24,232,fr,r,0,raw,2023-04-04_12h05.21.685,oddball,2022.2.5,60.26924683330714,
10,,,,,0,0,0,2,9,0,9,0,13,0,13,0,,,,,,,,,,,,,,,,,1093.0150160000003,1093.7479508000001,1093.7479508000001,1094.3313655000002,0.5998309999999947,1094.3486342,1096.3311573,2.5996021000000837,None,1,decreament,0.6,21,standard,None,100,,,,,,,,m,24,232,fr,r,0,raw,2023-04-04_12h05.21.685,oddball,2022.2.5,60.26924683330714,
10,,,,,0,0,0,2,9,0,9,0,14,0,14,0,,,,,,,,,,,,,,,,,1096.3479437,1097.1318177000003,1097.1318177000003,1097.7314568000002,0.6149005000002035,1097.7314568000002,1099.7314890000002,2.614930100000038,None,1,decreament,0.6,21,standard,None,100,,,,,,,,m,24,232,fr,r,0,raw,2023-04-04_12h05.21.685,oddball,2022.2.5,60.26924683330714,
10,,,,,0,0,0,2,9,0,9,0,15,0,15,0,,,,,,,,,,,,,,,,,1099.7480351,1100.2981546,1100.2981546,1100.8814305,0.5994356000001062,1100.8986563000003,1102.8813098,2.5993255000003046,None,1,decreament,0.6,21,standard,None,100,,,,,,,,m,24,232,fr,r,0,raw,2023-04-04_12h05.21.685,oddball,2022.2.5,60.26924683330714,
10,,,,,0,0,0,2,9,0,9,0,16,0,16,0,,,,,,,,,,,,,,,,,1102.8981520000002,1103.4649157,1103.4649157,1103.8151069,0.36565980000023046,1103.8316760000002,1105.8149978000001,2.3655518999999003,None,0,decreament,0.36,23,oddball,j,60,,,,,,,,m,24,232,fr,r,0,raw,2023-04-04_12h05.21.685,oddball,2022.2.5,60.26924683330714,
10,,,,,0,0,0,2,9,0,9,0,17,0,17,0,,,,,,,,,,,,,,,,,1105.8317218000002,1106.4149752000003,1106.4149752000003,1106.99833,0.5994424999998955,1107.0155811,1108.9981431,2.5992369999999028,None,1,decreament,0.6,21,standard,None,100,,,,,,,,m,24,232,fr,r,0,raw,2023-04-04_12h05.21.685,oddball,2022.2.5,60.26924683330714,
10,,,,,0,0,0,2,9,0,9,0,18,0,18,0,,,,,,,,,,,,,,,,,1109.0147087,1109.615629,1109.615629,1110.1981784,0.5990833000000748,1110.2147886000002,1112.1985433,2.599468599999909,None,1,decreament,0.6,21,standard,None,100,,,,,,,,m,24,232,fr,r,0,raw,2023-04-04_12h05.21.685,oddball,2022.2.5,60.26924683330714,
10,,,,,0,0,0,2,9,0,9,0,19,0,19,0,,,,,,,,,,,,,,,,,1112.2157646,1112.8654389000003,1112.8654389000003,1113.4486871,0.5996877000002314,1113.4651010000002,1115.4488204,2.599851999999828,None,1,decreament,0.6,21,standard,None,100,,,,,,,,m,24,232,fr,r,0,raw,2023-04-04_12h05.21.685,oddball,2022.2.5,60.26924683330714,
10,,,,,0,0,0,2,9,0,9,0,20,0,20,0,,,,,,,,,,,,,,,,,1115.4652331000002,1116.1487766,1116.1487766,1116.7321672000003,0.5997898000000532,1116.7487019,1118.7319528000003,2.599568900000122,None,1,decreament,0.6,21,standard,None,100,,,,,,,,m,24,232,fr,r,0,raw,2023-04-04_12h05.21.685,oddball,2022.2.5,60.26924683330714,
10,,,,,0,0,0,2,9,0,9,0,21,0,21,0,,,,,,,,,,,,,,,,,1118.7487782000003,1119.4324392000003,1119.4324392000003,1120.0154996,0.5994178999999349,1120.0323237000002,1122.0155858000003,2.59949830000005,None,1,decreament,0.6,21,standard,None,100,,,,,,,,m,24,232,fr,r,0,raw,2023-04-04_12h05.21.685,oddball,2022.2.5,60.26924683330714,
10,,,,,0,0,0,2,9,0,9,0,22,0,22,0,,,,,,,,,,,,,,,,,1122.0326169,1122.8324312,1122.8324312,1123.4162427,0.599883299999874,1123.4324482000002,1125.4158762000002,2.599517399999968,None,1,decreament,0.6,21,standard,None,100,,,,,,,,m,24,232,fr,r,0,raw,2023-04-04_12h05.21.685,oddball,2022.2.5,60.26924683330714,
10,,,,,0,0,0,2,9,0,9,0,23,0,23,0,,,,,,,,,,,,,,,,,1125.4327556000003,1126.1825416000001,1126.1825416000001,1126.7657773,0.5995020999998815,1126.782873,1128.7658474,2.599567599999773,None,1,decreament,0.6,21,standard,None,100,,,,,,,,m,24,232,fr,r,0,raw,2023-04-04_12h05.21.685,oddball,2022.2.5,60.26924683330714,
10,,,,,0,0,0,2,9,0,9,0,24,0,24,0,,,,,,,,,,,,,,,,,1128.7825059000002,1129.3492026,1129.3492026,1129.9325378000003,0.6156212999999298,1129.9492255,1131.9332563000003,2.615562499999669,None,1,decreament,0.6,21,standard,None,100,,,,,,,,m,24,232,fr,r,0,raw,2023-04-04_12h05.21.685,oddball,2022.2.5,60.26924683330714,
10,,,,,0,0,0,2,9,0,9,0,25,0,25,0,,,,,,,,,,,,,,,,,1131.9661952000001,1132.6827401,1132.6827401,1133.2659586,0.5994003999999222,1133.2831282000002,1135.2661505,2.599591799999871,None,1,decreament,0.6,21,standard,None,100,,,,,,,,m,24,232,fr,r,0,raw,2023-04-04_12h05.21.685,oddball,2022.2.5,60.26924683330714,
10,,,,,0,0,0,2,9,0,9,0,26,0,26,0,,,,,,,,,,,,,,,,,1135.2825235,1136.0660868,1136.0660868,1136.6495034,0.5994672000001628,1136.666052,1138.6496504000002,2.599615800000265,None,1,decreament,0.6,21,standard,None,100,,,,,,,,m,24,232,fr,r,0,raw,2023-04-04_12h05.21.685,oddball,2022.2.5,60.26924683330714,
10,,,,,0,0,0,2,9,0,9,0,27,0,27,0,,,,,,,,,,,,,,,,,1138.6661577,1139.4995823,1139.4995823,1140.0832668000003,0.599785299999894,1140.0995969,1142.0826834,2.5990828999997575,None,1,decreament,0.6,21,standard,None,100,,,,,,,,m,24,232,fr,r,0,raw,2023-04-04_12h05.21.685,oddball,2022.2.5,60.26924683330714,
10,,,,,0,0,0,2,9,0,9,0,28,0,28,0,,,,,,,,,,,,,,,,,1142.09935,1142.6159886,1142.6159886,1143.1998691,0.5995457000003626,1143.2166483,1145.2004419,2.6001485000001594,None,1,decreament,0.6,21,standard,None,100,,,,,,,,m,24,232,fr,r,0,raw,2023-04-04_12h05.21.685,oddball,2022.2.5,60.26924683330714,
10,,,,,0,0,0,2,9,0,9,0,29,0,29,0,,,,,,,,,,,,,,,,,1145.216104,1145.9167638,1145.9167638,1146.4999125,0.5996952999998939,1146.5164747,1148.4999007000001,2.5996752999999444,None,1,decreament,0.6,21,standard,None,100,,,,,,,,m,24,232,fr,r,0,raw,2023-04-04_12h05.21.685,oddball,2022.2.5,60.26924683330714,
0,,,,,0,1,1,0,0,0,0,0,0,0,0,0,,,,,,,,,,,,,,,1331.7615472000002,1331.7615472000002,1332.9236410000003,1333.4405794,1333.4405794,1334.0401931000001,0.6148092999997061,1334.0401931000001,1336.0405169,2.6151927999999316,None,1,increament,0.6,5,standard,None,100,,1328.5568051,0.0007028999998510699,1148.5546796000003,1328.5568051,,,m,24,232,fr,r,0,raw,2023-04-04_12h05.21.685,oddball,2022.2.5,60.26924683330714,
0,,,,,0,1,1,0,0,0,0,0,1,0,1,0,,,,,,,,,,,,,,,,,1336.0570207,1336.6742096000003,1336.6742096000003,1337.2738104,0.6147330999997394,1337.2738104,1339.2737559000002,2.6146617999997943,None,1,increament,0.6,5,standard,None,100,,,,,,,,m,24,232,fr,r,0,raw,2023-04-04_12h05.21.685,oddball,2022.2.5,60.26924683330714,
0,,,,,0,1,1,0,0,0,0,0,2,0,2,0,,,,,,,,,,,,,,,,,1339.2902640000002,1339.8903531,1339.8903531,1340.4739265000003,0.5999247999998261,1340.4905658000002,1342.4735969000003,2.5995625999998992,None,1,increament,0.6,5,standard,None,100,,,,,,,,m,24,232,fr,r,0,raw,2023-04-04_12h05.21.685,oddball,2022.2.5,60.26924683330714,
0,,,,,0,1,1,0,0,0,0,0,3,0,3,0,,,,,,,,,,,,,,,,,1342.4902615,1343.0074371,1343.0074371,1343.5903552,0.5992857999999615,1343.6071216,1345.5906597000003,2.5996024000000943,None,1,increament,0.6,5,standard,None,100,,,,,,,,m,24,232,fr,r,0,raw,2023-04-04_12h05.21.685,oddball,2022.2.5,60.26924683330714,
0,,,,,0,1,1,0,0,0,0,0,4,0,4,0,,,,,,,,,,,,,,,,,1345.6073407,1346.3907631000002,1346.3907631000002,1346.9743864000002,0.5994086999999126,1346.9909146,1348.9746188,2.5995757000000594,None,1,increament,0.6,5,standard,None,100,,,,,,,,m,24,232,fr,r,0,raw,2023-04-04_12h05.21.685,oddball,2022.2.5,60.26924683330714,
0,,,,,0,1,1,0,0,0,0,0,5,0,5,0,,,,,,,,,,,,,,,,,1348.9909938,1349.6577037000002,1349.6577037000002,1350.257497,0.6155148000002555,1350.257497,1352.2575595000003,2.615585700000338,None,1,increament,0.6,5,standard,None,100,,,,,,,,m,24,232,fr,r,0,raw,2023-04-04_12h05.21.685,oddball,2022.2.5,60.26924683330714,
0,,,,,0,1,1,0,0,0,0,0,6,0,6,0,,,,,,,,,,,,,,,,,1352.2742884,1352.8911859,1352.8911859,1353.4913629000002,0.5990062000000762,1353.4913629000002,1355.491157,2.59888490000003,None,1,increament,0.6,5,standard,None,100,,,,,,,,m,24,232,fr,r,0,raw,2023-04-04_12h05.21.685,oddball,2022.2.5,60.26924683330714,
0,,,,,0,1,1,0,0,0,0,0,7,0,7,0,,,,,,,,,,,,,,,,,1355.491157,1356.2245454,1356.2245454,1357.1744812000002,0.966186000000107,1357.1910724,1359.1745329,2.9662413000000925,j,1,increament,0.96,8,oddball,j,160,0.252551799999992,,,,,,,m,24,232,fr,r,0,raw,2023-04-04_12h05.21.685,oddball,2022.2.5,60.26924683330714,
