grating_freq,blocks_prac.thisRepN,blocks_prac.thisTrialN,blocks_prac.thisN,blocks_prac.thisIndex,blocks.thisRepN,blocks.thisTrialN,blocks.thisN,blocks.thisIndex,repeat_freq.thisRepN,repeat_freq.thisTrialN,repeat_freq.thisN,repeat_freq.thisIndex,trials.thisRepN,trials.thisTrialN,trials.thisN,trials.thisIndex,break_loop.thisRepN,break_loop.thisTrialN,break_loop.thisN,break_loop.thisIndex,rest_loop.thisRepN,rest_loop.thisTrialN,rest_loop.thisN,rest_loop.thisIndex,instruct_prac_text.started,instruct_prac_resp.started,b_instruct_text_2_.started,b_instruct_resp_2_.started,prac_done_text.started,prac_done_resp.started,instruct_text.started,instruct_resp.started,fixation.started,fixation.stopped,grating.started,blank.started,grating.stopped,resp.started,blank.stopped,resp.stopped,resp.keys,resp.corr,direction,duration,trigger,stim_type,corr_ans,scaling,resp.rt,rest_text.started,rest_resp.started,text_2.started,text_2.stopped,thx_txt.started,gender,age,participant,language,main_hand,nBlock_prac,file_suffix,date,expName,psychopyVersion,frameRate,
20,,,,,0,0,0,3,0,0,0,0,0,0,0,0,,,,,,,,,27.35409029998118,27.35409029998118,33.70442570000887,33.70442570000887,38.03421110002091,38.03421110002091,63.51815620000707,63.51815620000707,66.99378919997253,67.52365960000316,67.52365960000316,68.1097159999772,68.12647429999197,0.6155236000195146,70.12470990000293,2.63053399999626,None,1,decreament,0.6,41,standard,None,100,,,,,,,m,21,234,fr,r,0,raw,2023-04-11_15h54.10.132,oddball,2022.2.5,59.886084686786994,
20,,,,,0,0,0,3,0,0,0,0,1,0,1,0,,,,,,,,,,,,,,,,,70.14118129998678,70.82413869997254,70.82413869997254,71.40696940000635,71.42357470002025,0.5991918999934569,73.42214229999809,2.6143511999980547,None,1,decreament,0.6,41,standard,None,100,,,,,,,m,21,234,fr,r,0,raw,2023-04-11_15h54.10.132,oddball,2022.2.5,59.886084686786994,
20,,,,,0,0,0,3,0,0,0,0,2,0,2,0,,,,,,,,,,,,,,,,,73.4385123999673,74.00486599997384,74.00486599997384,74.58752359997015,74.6042561000213,0.6156189999892376,76.60277910000877,2.6306460999767296,None,1,decreament,0.6,41,standard,None,100,,,,,,,m,21,234,fr,r,0,raw,2023-04-11_15h54.10.132,oddball,2022.2.5,59.886084686786994,
20,,,,,0,0,0,3,0,0,0,0,3,0,3,0,,,,,,,,,,,,,,,,,76.63599149999209,77.28532570000971,77.28532570000971,77.88494079996599,77.88494079996599,0.6154094000230543,79.89995110000018,2.6304104000446387,None,1,decreament,0.6,41,standard,None,100,,,,,,,m,21,234,fr,r,0,raw,2023-04-11_15h54.10.132,oddball,2022.2.5,59.886084686786994,
20,,,,,0,0,0,3,0,0,0,0,4,0,4,0,,,,,,,,,,,,,,,,,79.91649799997685,80.49952999997186,80.49952999997186,81.09897709998768,81.09897709998768,0.6154481999692507,83.11409139999887,2.6305734000052325,None,1,decreament,0.6,41,standard,None,100,,,,,,,m,21,234,fr,r,0,raw,2023-04-11_15h54.10.132,oddball,2022.2.5,59.886084686786994,
20,,,,,0,0,0,3,0,0,0,0,5,0,5,0,,,,,,,,,,,,,,,,,83.13054699997883,83.81347779999487,83.81347779999487,84.41288740001619,84.41288740001619,0.5990043000201695,86.42784700001357,2.614094100019429,None,1,decreament,0.6,41,standard,None,100,,,,,,,m,21,234,fr,r,0,raw,2023-04-11_15h54.10.132,oddball,2022.2.5,59.886084686786994,
20,,,,,0,0,0,3,0,0,0,0,6,0,6,0,,,,,,,,,,,,,,,,,86.42784700001357,86.97742289997404,86.97742289997404,87.57695259997854,87.57695259997854,0.5994387000100687,89.59220020001521,2.6144224000163376,None,1,decreament,0.6,41,standard,None,100,,,,,,,m,21,234,fr,r,0,raw,2023-04-11_15h54.10.132,oddball,2022.2.5,59.886084686786994,
20,,,,,0,0,0,3,0,0,0,0,7,0,7,0,,,,,,,,,,,,,,,,,89.59220020001521,90.14146189996973,90.14146189996973,90.74115099996561,90.74115099996561,0.6157497999956831,92.75594980001915,2.6305166999809444,None,1,decreament,0.6,41,standard,None,100,,,,,,,m,21,234,fr,r,0,raw,2023-04-11_15h54.10.132,oddball,2022.2.5,59.886084686786994,
20,,,,,0,0,0,3,0,0,0,0,8,0,8,0,,,,,,,,,,,,,,,,,92.77267229999416,93.3221822999767,93.3221822999767,93.9051459999755,93.9217212999938,0.5992280999780633,95.92018080002163,2.6142671999987215,None,1,decreament,0.6,41,standard,None,100,,,,,,,m,21,234,fr,r,0,raw,2023-04-11_15h54.10.132,oddball,2022.2.5,59.886084686786994,
20,,,,,0,0,0,3,0,0,0,0,9,0,9,0,,,,,,,,,,,,,,,,,95.93679040001007,96.51963439997053,96.51963439997053,97.11911709996639,97.11911709996639,0.6154839000082575,99.13422349997563,2.630590300017502,None,1,decreament,0.6,41,standard,None,100,,,,,,,m,21,234,fr,r,0,raw,2023-04-11_15h54.10.132,oddball,2022.2.5,59.886084686786994,
20,,,,,0,0,0,3,0,0,0,0,10,0,10,0,,,,,,,,,,,,,,,,,99.15080050000688,99.85026229999494,99.85026229999494,100.44989240000723,100.44989240000723,0.6157414999906905,102.46482539997669,2.630679699999746,None,1,decreament,0.6,41,standard,None,100,,,,,,,m,21,234,fr,r,0,raw,2023-04-11_15h54.10.132,oddball,2022.2.5,59.886084686786994,
20,,,,,0,0,0,3,0,0,0,0,11,0,11,0,,,,,,,,,,,,,,,,,102.48140200000489,103.28108089999296,103.28108089999296,103.88040899997577,103.88040899997577,0.6155870999791659,105.89528409997001,2.6304408999858424,None,1,decreament,0.6,41,standard,None,100,,,,,,,m,21,234,fr,r,0,raw,2023-04-11_15h54.10.132,oddball,2022.2.5,59.886084686786994,
20,,,,,0,0,0,3,0,0,0,0,12,0,12,0,,,,,,,,,,,,,,,,,105.91178939997917,106.49478710000403,106.49478710000403,107.09429560002172,107.09429560002172,0.5991433999733999,109.10913320002146,2.6139874000218697,None,1,decreament,0.6,41,standard,None,100,,,,,,,m,21,234,fr,r,0,raw,2023-04-11_15h54.10.132,oddball,2022.2.5,59.886084686786994,
20,,,,,0,0,0,3,0,0,0,0,13,0,13,0,,,,,,,,,,,,,,,,,109.10913320002146,109.65890609996859,109.65890609996859,110.24208860000363,110.25833420001436,0.5992925000027753,112.2567820000113,2.6139953999663703,None,1,decreament,0.6,41,standard,None,100,,,,,,,m,21,234,fr,r,0,raw,2023-04-11_15h54.10.132,oddball,2022.2.5,59.886084686786994,
20,,,,,0,0,0,3,0,0,0,0,14,0,14,0,,,,,,,,,,,,,,,,,112.27360810001846,113.00608089996967,113.00608089996967,113.60571019997587,113.60571019997587,0.6157038999954239,115.62068709998857,2.6305708999861963,None,1,decreament,0.6,41,standard,None,100,,,,,,,m,21,234,fr,r,0,raw,2023-04-11_15h54.10.132,oddball,2022.2.5,59.886084686786994,
20,,,,,0,0,0,3,0,0,0,0,15,0,15,0,,,,,,,,,,,,,,,,,115.63714920001803,116.3199732999783,116.3199732999783,116.90272359998198,116.91954299999634,0.6157543000299484,118.91794000001391,2.6306385999778286,None,1,decreament,0.6,41,standard,None,100,,,,,,,m,21,234,fr,r,0,raw,2023-04-11_15h54.10.132,oddball,2022.2.5,59.886084686786994,
20,,,,,0,0,0,3,0,0,0,0,16,0,16,0,,,,,,,,,,,,,,,,,118.95114929997362,119.58409969997592,119.58409969997592,120.18357230001129,120.18357230001129,0.6154361999942921,122.19854770001257,2.6303894000011496,j,0,decreament,0.6,41,standard,None,100,0.9286383000435308,,,,,,m,21,234,fr,r,0,raw,2023-04-11_15h54.10.132,oddball,2022.2.5,59.886084686786994,
20,,,,,0,0,0,3,0,0,0,0,17,0,17,0,,,,,,,,,,,,,,,,,122.21518479997758,122.86457049997989,122.86457049997989,123.09787549998146,123.11459559999639,0.24933970003621653,125.11285450001014,2.2642958000069484,j,1,decreament,0.24,42,oddball,j,40,0.5308506000437774,,,,,,m,21,234,fr,r,0,raw,2023-04-11_15h54.10.132,oddball,2022.2.5,59.886084686786994,
20,,,,,0,0,0,3,0,0,0,0,18,0,18,0,,,,,,,,,,,,,,,,,125.12964230001671,125.69561449997127,125.69561449997127,126.2951180000091,126.2951180000091,0.6153918000054546,128.3101276999805,2.630396299995482,None,1,decreament,0.6,41,standard,None,100,,,,,,,m,21,234,fr,r,0,raw,2023-04-11_15h54.10.132,oddball,2022.2.5,59.886084686786994,
20,,,,,0,0,0,3,0,0,0,0,19,0,19,0,,,,,,,,,,,,,,,,,128.32710890000453,128.89305969997076,128.89305969997076,129.47621649998473,129.4924148999853,0.5992632999550551,131.49072509998223,2.6139012000057846,None,1,decreament,0.6,41,standard,None,100,,,,,,,m,21,234,fr,r,0,raw,2023-04-11_15h54.10.132,oddball,2022.2.5,59.886084686786994,
20,,,,,0,0,0,3,0,0,0,0,20,0,20,0,,,,,,,,,,,,,,,,,131.50734219996957,132.09034340002108,132.09034340002108,132.6900769000058,132.6900769000058,0.6154705000226386,134.70498569996562,2.63038010004675,None,1,decreament,0.6,41,standard,None,100,,,,,,,m,21,234,fr,r,0,raw,2023-04-11_15h54.10.132,oddball,2022.2.5,59.886084686786994,
20,,,,,0,0,0,3,0,0,0,0,21,0,21,0,,,,,,,,,,,,,,,,,134.7215695999912,135.35437989997445,135.35437989997445,135.9537821999984,135.9537821999984,0.6153434999869205,137.96888419997413,2.6304474999778904,None,1,decreament,0.6,41,standard,None,100,,,,,,,m,21,234,fr,r,0,raw,2023-04-11_15h54.10.132,oddball,2022.2.5,59.886084686786994,
20,,,,,0,0,0,3,0,0,0,0,22,0,22,0,,,,,,,,,,,,,,,,,137.9856116999872,138.7017539999797,138.7017539999797,139.30103679996682,139.30103679996682,0.6151694000000134,141.31628480000654,2.630412200000137,None,1,decreament,0.6,41,standard,None,100,,,,,,,m,21,234,fr,r,0,raw,2023-04-11_15h54.10.132,oddball,2022.2.5,59.886084686786994,
20,,,,,0,0,0,3,0,0,0,0,23,0,23,0,,,,,,,,,,,,,,,,,141.3328332999954,141.91576709999936,141.91576709999936,142.2654940999928,142.28196180000668,0.36566400004085153,144.28046869998798,2.380662400042638,None,0,decreament,0.36,43,oddball,j,60,,,,,,,m,21,234,fr,r,0,raw,2023-04-11_15h54.10.132,oddball,2022.2.5,59.886084686786994,
20,,,,,0,0,0,3,0,0,0,0,24,0,24,0,,,,,,,,,,,,,,,,,144.2970675000106,144.94658629997866,144.94658629997866,145.54605569998967,145.54605569998967,0.6152788000181317,147.56099660001928,2.6302588999969885,None,1,decreament,0.6,41,standard,None,100,,,,,,,m,21,234,fr,r,0,raw,2023-04-11_15h54.10.132,oddball,2022.2.5,59.886084686786994,
20,,,,,0,0,0,3,0,0,0,0,25,0,25,0,,,,,,,,,,,,,,,,,147.57760369998869,148.27693970000837,148.27693970000837,148.87648989999434,148.87648989999434,0.599014800041914,150.8916145999683,2.6141196000389755,None,1,decreament,0.6,41,standard,None,100,,,,,,,m,21,234,fr,r,0,raw,2023-04-11_15h54.10.132,oddball,2022.2.5,59.886084686786994,
20,,,,,0,0,0,3,0,0,0,0,26,0,26,0,,,,,,,,,,,,,,,,,150.8916145999683,151.4744597999961,151.4744597999961,152.07387239998206,152.07387239998206,0.614911500015296,154.08908010000596,2.6301448000012897,None,1,decreament,0.6,41,standard,None,100,,,,,,,m,21,234,fr,r,0,raw,2023-04-11_15h54.10.132,oddball,2022.2.5,59.886084686786994,
20,,,,,0,0,0,3,0,0,0,0,27,0,27,0,,,,,,,,,,,,,,,,,154.10571460000938,154.7218389000045,154.7218389000045,155.18812850001268,155.20487570000114,0.4823664999566972,157.2031413000077,2.4973731999634765,j,1,decreament,0.48,44,oddball,j,80,1.0476413000142202,,,,,,m,21,234,fr,r,0,raw,2023-04-11_15h54.10.132,oddball,2022.2.5,59.886084686786994,
20,,,,,0,0,0,3,0,0,0,0,28,0,28,0,,,,,,,,,,,,,,,,,157.21976120001636,157.8693801999907,157.8693801999907,158.46869040001184,158.46869040001184,0.6154194000409916,160.48378989996854,2.6304941000416875,None,1,decreament,0.6,41,standard,None,100,,,,,,,m,21,234,fr,r,0,raw,2023-04-11_15h54.10.132,oddball,2022.2.5,59.886084686786994,
20,,,,,0,0,0,3,0,0,0,0,29,0,29,0,,,,,,,,,,,,,,,,,160.50044689996867,161.18323119997513,161.18323119997513,161.7827804000117,161.7827804000117,0.6155386000173166,163.7981662999955,2.6309235999942757,None,1,decreament,0.6,41,standard,None,100,,,,,,,m,21,234,fr,r,0,raw,2023-04-11_15h54.10.132,oddball,2022.2.5,59.886084686786994,
20,,,,,0,0,0,3,1,0,1,0,0,0,0,0,,,,,,,,,,,,,,,166.12885669997195,166.12885669997195,167.22826200001873,167.86098320002202,167.86098320002202,168.46061529999133,168.46061529999133,0.6152376999962144,170.4757717999746,2.630394499981776,None,1,increament,0.6,45,standard,None,100,,163.81434400001308,0.0009475999977439642,,,,m,21,234,fr,r,0,raw,2023-04-11_15h54.10.132,oddball,2022.2.5,59.886084686786994,
20,,,,,0,0,0,3,1,0,1,0,1,0,1,0,,,,,,,,,,,,,,,,,170.4922509000171,171.17500669998117,171.17500669998117,171.77457140001934,171.77457140001934,0.6153990000020713,173.78955300000962,2.6303211000049487,None,1,increament,0.6,45,standard,None,100,,,,,,,m,21,234,fr,r,0,raw,2023-04-11_15h54.10.132,oddball,2022.2.5,59.886084686786994,
20,,,,,0,0,0,3,1,0,1,0,2,0,2,0,,,,,,,,,,,,,,,,,173.80611140001565,174.3557231000159,174.3557231000159,174.95525679999264,174.95525679999264,0.5990123000228778,176.97058289998677,2.613630199979525,None,1,increament,0.6,45,standard,None,100,,,,,,,m,21,234,fr,r,0,raw,2023-04-11_15h54.10.132,oddball,2022.2.5,59.886084686786994,
20,,,,,0,0,0,3,1,0,1,0,3,0,3,0,,,,,,,,,,,,,,,,,176.97058289998677,177.6863334000227,177.6863334000227,178.28594049997628,178.28594049997628,0.5990261000115424,180.3007062000106,2.613914499990642,None,1,increament,0.6,45,standard,None,100,,,,,,,m,21,234,fr,r,0,raw,2023-04-11_15h54.10.132,oddball,2022.2.5,59.886084686786994,
20,,,,,0,0,0,3,1,0,1,0,4,0,4,0,,,,,,,,,,,,,,,,,180.3007062000106,180.91703929996584,180.91703929996584,181.49992490001023,181.51647919998504,0.599278100009542,183.51494849997107,2.6143089999677613,None,1,increament,0.6,45,standard,None,100,,,,,,,m,21,234,fr,r,0,raw,2023-04-11_15h54.10.132,oddball,2022.2.5,59.886084686786994,
20,,,,,0,0,0,3,1,0,1,0,5,0,5,0,,,,,,,,,,,,,,,,,183.53162600001087,184.08136589999776,184.08136589999776,184.6806585000013,184.6806585000013,0.6154837000067346,186.69574260001536,2.6305790999904275,None,1,increament,0.6,45,standard,None,100,,,,,,,m,21,234,fr,r,0,raw,2023-04-11_15h54.10.132,oddball,2022.2.5,59.886084686786994,
20,,,,,0,0,0,3,1,0,1,0,6,0,6,0,,,,,,,,,,,,,,,,,186.71202849998372,187.4784402999794,187.4784402999794,188.07782940001925,188.07782940001925,0.6152407999616116,190.09294619999127,2.630356799985748,None,1,increament,0.6,45,standard,None,100,,,,,,,m,21,234,fr,r,0,raw,2023-04-11_15h54.10.132,oddball,2022.2.5,59.886084686786994,
20,,,,,0,0,0,3,1,0,1,0,7,0,7,0,,,,,,,,,,,,,,,,,190.1094826000044,190.85891249997076,190.85891249997076,191.45830040000146,191.45830040000146,0.6153383000055328,193.47341699997196,2.630438900028821,None,1,increament,0.6,45,standard,None,100,,,,,,,m,21,234,fr,r,0,raw,2023-04-11_15h54.10.132,oddball,2022.2.5,59.886084686786994,
20,,,,,0,0,0,3,1,0,1,0,8,0,8,0,,,,,,,,,,,,,,,,,193.49003169999924,194.08957680000458,194.08957680000458,194.68929639999988,194.68929639999988,0.6156729999929667,196.70412249997025,2.630475400015712,None,1,increament,0.6,45,standard,None,100,,,,,,,m,21,234,fr,r,0,raw,2023-04-11_15h54.10.132,oddball,2022.2.5,59.886084686786994,
20,,,,,0,0,0,3,1,0,1,0,9,0,9,0,,,,,,,,,,,,,,,,,196.72069450002164,197.45366930001182,197.45366930001182,198.0529200999881,198.0529200999881,0.6149978999746963,200.0680352000054,2.6301173000247218,None,1,increament,0.6,45,standard,None,100,,,,,,,m,21,234,fr,r,0,raw,2023-04-11_15h54.10.132,oddball,2022.2.5,59.886084686786994,
20,,,,,0,0,0,3,1,0,1,0,10,0,10,0,,,,,,,,,,,,,,,,,200.08472990000155,200.78396460000658,200.78396460000658,201.38347040000372,201.38347040000372,0.6154196000425145,203.39844929997344,2.6303903000080027,None,1,increament,0.6,45,standard,None,100,,,,,,,m,21,234,fr,r,0,raw,2023-04-11_15h54.10.132,oddball,2022.2.5,59.886084686786994,
20,,,,,0,0,0,3,1,0,1,0,11,0,11,0,,,,,,,,,,,,,,,,,203.4151058999705,204.13119809998898,204.13119809998898,204.73065769998357,204.73065769998357,0.6152538000023924,206.74581529997522,2.6304002999677323,None,1,increament,0.6,45,standard,None,100,,,,,,,m,21,234,fr,r,0,raw,2023-04-11_15h54.10.132,oddball,2022.2.5,59.886084686786994,
20,,,,,0,0,0,3,1,0,1,0,12,0,12,0,,,,,,,,,,,,,,,,,206.76245089998702,207.4617467999924,207.4617467999924,208.06144069996662,208.06144069996662,0.6154798999777995,210.0763208999997,2.6303608999587595,None,1,increament,0.6,45,standard,None,100,,,,,,,m,21,234,fr,r,0,raw,2023-04-11_15h54.10.132,oddball,2022.2.5,59.886084686786994,
20,,,,,0,0,0,3,1,0,1,0,13,0,13,0,,,,,,,,,,,,,,,,,210.0929670999758,210.7596347000217,210.7596347000217,211.35870450001676,211.35870450001676,0.6153448999975808,213.37350370001514,2.630120199988596,None,1,increament,0.6,45,standard,None,100,,,,,,,m,21,234,fr,r,0,raw,2023-04-11_15h54.10.132,oddball,2022.2.5,59.886084686786994,
20,,,,,0,0,0,3,1,0,1,0,14,0,14,0,,,,,,,,,,,,,,,,,213.39033540000673,214.08981370000402,214.08981370000402,214.68929369997932,214.68929369997932,0.6154247999656945,216.70428090001224,2.630379999987781,None,1,increament,0.6,45,standard,None,100,,,,,,,m,21,234,fr,r,0,raw,2023-04-11_15h54.10.132,oddball,2022.2.5,59.886084686786994,
20,,,,,0,0,0,3,1,0,1,0,15,0,15,0,,,,,,,,,,,,,,,,,216.7208762000082,217.27058539999416,217.27058539999416,218.10316339996643,218.11988740001107,0.8487372999661602,220.11805509997066,2.8636338000069372,j,1,increament,0.84,47,oddball,j,140,0.9267067000037059,,,,,,m,21,234,fr,r,0,raw,2023-04-11_15h54.10.132,oddball,2022.2.5,59.886084686786994,
20,,,,,0,0,0,3,1,0,1,0,16,0,16,0,,,,,,,,,,,,,,,,,220.1347848000005,220.6845310999779,220.6845310999779,221.28379090002272,221.28379090002272,0.615322700003162,223.29878999997163,2.630311199987773,None,1,increament,0.6,45,standard,None,100,,,,,,,m,21,234,fr,r,0,raw,2023-04-11_15h54.10.132,oddball,2022.2.5,59.886084686786994,
20,,,,,0,0,0,3,1,0,1,0,17,0,17,0,,,,,,,,,,,,,,,,,223.3154639999848,223.94830190000357,223.94830190000357,224.5478398000123,224.5478398000123,0.5991626000031829,226.56283180002356,2.6138528999872506,None,1,increament,0.6,45,standard,None,100,,,,,,,m,21,234,fr,r,0,raw,2023-04-11_15h54.10.132,oddball,2022.2.5,59.886084686786994,
20,,,,,0,0,0,3,1,0,1,0,18,0,18,0,,,,,,,,,,,,,,,,,226.56283180002356,227.09589100000449,227.09589100000449,227.69534969999222,227.69534969999222,0.6152879999717698,229.71037069999147,2.6303070000139996,None,1,increament,0.6,45,standard,None,100,,,,,,,m,21,234,fr,r,0,raw,2023-04-11_15h54.10.132,oddball,2022.2.5,59.886084686786994,
20,,,,,0,0,0,3,1,0,1,0,19,0,19,0,,,,,,,,,,,,,,,,,229.72685400000773,230.45965149998665,230.45965149998665,231.05912240000907,231.05912240000907,0.6153601999976672,233.07414879999124,2.630360799957998,None,1,increament,0.6,45,standard,None,100,,,,,,,m,21,234,fr,r,0,raw,2023-04-11_15h54.10.132,oddball,2022.2.5,59.886084686786994,
20,,,,,0,0,0,3,1,0,1,0,20,0,20,0,,,,,,,,,,,,,,,,,233.0908664999879,233.70700090000173,233.70700090000173,234.3064589999849,234.3064589999849,0.6154556999681517,236.32161729998188,2.630614899971988,None,1,increament,0.6,45,standard,None,100,,,,,,,m,21,234,fr,r,0,raw,2023-04-11_15h54.10.132,oddball,2022.2.5,59.886084686786994,
20,,,,,0,0,0,3,1,0,1,0,21,0,21,0,,,,,,,,,,,,,,,,,236.33821929997066,236.9710637999815,236.9710637999815,237.57056650001323,237.57056650001323,0.6152488000225276,239.5855048999656,2.6301694000139832,None,1,increament,0.6,45,standard,None,100,,,,,,,m,21,234,fr,r,0,raw,2023-04-11_15h54.10.132,oddball,2022.2.5,59.886084686786994,
20,,,,,0,0,0,3,1,0,1,0,22,0,22,0,,,,,,,,,,,,,,,,,239.60216780001065,240.15174960001605,240.15174960001605,241.10119219997432,241.11763579997933,0.9654849999933504,243.11594599997625,2.980214499984868,None,0,increament,0.96,48,oddball,j,160,,,,,,,m,21,234,fr,r,0,raw,2023-04-11_15h54.10.132,oddball,2022.2.5,59.886084686786994,
20,,,,,0,0,0,3,1,0,1,0,23,0,23,0,,,,,,,,,,,,,,,,,243.13259469997138,243.71540069999173,243.71540069999173,244.3150081000058,244.3150081000058,0.615544400003273,246.330128600006,2.6306704999879003,None,1,increament,0.6,45,standard,None,100,,,,,,,m,21,234,fr,r,0,raw,2023-04-11_15h54.10.132,oddball,2022.2.5,59.886084686786994,
20,,,,,0,0,0,3,1,0,1,0,24,0,24,0,,,,,,,,,,,,,,,,,246.3465127000236,246.97964629996568,246.97964629996568,247.578984999971,247.578984999971,0.6152691000024788,249.59422279999126,2.6305307999718934,None,1,increament,0.6,45,standard,None,100,,,,,,,m,21,234,fr,r,0,raw,2023-04-11_15h54.10.132,oddball,2022.2.5,59.886084686786994,
20,,,,,0,0,0,3,1,0,1,0,25,0,25,0,,,,,,,,,,,,,,,,,249.61088639998343,250.24365969997598,250.24365969997598,250.82669439999154,250.84272999997484,0.5993606999982148,252.84125290001975,2.6139327000128105,None,1,increament,0.6,45,standard,None,100,,,,,,,m,21,234,fr,r,0,raw,2023-04-11_15h54.10.132,oddball,2022.2.5,59.886084686786994,
20,,,,,0,0,0,3,1,0,1,0,26,0,26,0,,,,,,,,,,,,,,,,,252.8578145999927,253.47408820001874,253.47408820001874,254.1900370999938,254.20683749997988,0.7319090999662876,256.20529090001946,2.747170999995433,j,1,increament,0.72,46,oddball,j,120,1.0374923000345007,,,,,,m,21,234,fr,r,0,raw,2023-04-11_15h54.10.132,oddball,2022.2.5,59.886084686786994,
20,,,,,0,0,0,3,1,0,1,0,27,0,27,0,,,,,,,,,,,,,,,,,256.221828299982,256.8544415999786,256.8544415999786,257.4544548999984,257.4544548999984,0.6157680999604054,259.46929759997874,2.630588700005319,None,1,increament,0.6,45,standard,None,100,,,,,,,m,21,234,fr,r,0,raw,2023-04-11_15h54.10.132,oddball,2022.2.5,59.886084686786994,
20,,,,,0,0,0,3,1,0,1,0,28,0,28,0,,,,,,,,,,,,,,,,,259.4857304000179,260.05223929998465,260.05223929998465,260.65150719997473,260.65150719997473,0.6153583000414073,262.6664311999921,2.6302665999974124,None,1,increament,0.6,45,standard,None,100,,,,,,,m,21,234,fr,r,0,raw,2023-04-11_15h54.10.132,oddball,2022.2.5,59.886084686786994,
20,,,,,0,0,0,3,1,0,1,0,29,0,29,0,,,,,,,,,,,,,,,,,262.68302130000666,263.4158666000003,263.4158666000003,264.0153911000234,264.0153911000234,0.615181399974972,266.03035030001774,2.6301519999979064,None,1,increament,0.6,45,standard,None,100,,,,,,,m,21,234,fr,r,0,raw,2023-04-11_15h54.10.132,oddball,2022.2.5,59.886084686786994,
20,,,,,0,0,0,3,2,0,2,0,0,0,0,0,,,,,,,,,,,,,,,267.0295915000024,267.0295915000024,267.82894969999325,268.5283056999906,268.5283056999906,269.1279087999719,269.1279087999719,0.6154917000094429,271.14301759999944,2.6305706999846734,None,1,decreament,0.6,41,standard,None,100,,266.0471358000068,0.0007724000024609268,,,,m,21,234,fr,r,0,raw,2023-04-11_15h54.10.132,oddball,2022.2.5,59.886084686786994,
20,,,,,0,0,0,3,2,0,2,0,1,0,1,0,,,,,,,,,,,,,,,,,271.15946950000944,271.7924064999679,271.7924064999679,272.37523890001466,272.3920807999675,0.5991394000011496,274.3902718999889,2.6141653999802656,None,1,decreament,0.6,41,standard,None,100,,,,,,,m,21,234,fr,r,0,raw,2023-04-11_15h54.10.132,oddball,2022.2.5,59.886084686786994,
20,,,,,0,0,0,3,2,0,2,0,2,0,2,0,,,,,,,,,,,,,,,,,274.4069813999813,274.9397299999837,274.9397299999837,275.5392630000133,275.5392630000133,0.6155502999899909,277.5542086000205,2.6304710999829695,None,1,decreament,0.6,41,standard,None,100,,,,,,,m,21,234,fr,r,0,raw,2023-04-11_15h54.10.132,oddball,2022.2.5,59.886084686786994,
20,,,,,0,0,0,3,2,0,2,0,3,0,3,0,,,,,,,,,,,,,,,,,277.570862099994,278.12052779999794,278.12052779999794,278.7199620999745,278.7199620999745,0.6155408000340685,280.73517150001135,2.630775600031484,None,1,decreament,0.6,41,standard,None,100,,,,,,,m,21,234,fr,r,0,raw,2023-04-11_15h54.10.132,oddball,2022.2.5,59.886084686786994,
20,,,,,0,0,0,3,2,0,2,0,4,0,4,0,,,,,,,,,,,,,,,,,280.7517489999882,281.36783649999416,281.36783649999416,281.9673931999714,281.9673931999714,0.6152952000265941,283.98246490000747,2.6303475000313483,None,1,decreament,0.6,41,standard,None,100,,,,,,,m,21,234,fr,r,0,raw,2023-04-11_15h54.10.132,oddball,2022.2.5,59.886084686786994,
20,,,,,0,0,0,3,2,0,2,0,5,0,5,0,,,,,,,,,,,,,,,,,283.99901959998533,284.61506969999755,284.61506969999755,285.2146372999996,285.2146372999996,0.5990119999623857,287.2294915000093,2.613828299974557,None,1,decreament,0.6,41,standard,None,100,,,,,,,m,21,234,fr,r,0,raw,2023-04-11_15h54.10.132,oddball,2022.2.5,59.886084686786994,
20,,,,,0,0,0,3,2,0,2,0,6,0,6,0,,,,,,,,,,,,,,,,,287.2294915000093,287.8626069999882,287.8626069999882,288.0956718000234,288.1121996999718,0.24893350002821535,290.110478800023,2.2637420000392012,j,1,decreament,0.24,42,oddball,j,40,1.505126400035806,,,,,,m,21,234,fr,r,0,raw,2023-04-11_15h54.10.132,oddball,2022.2.5,59.886084686786994,
20,,,,,0,0,0,3,2,0,2,0,7,0,7,0,,,,,,,,,,,,,,,,,290.1273121999693,290.71015339996666,290.71015339996666,291.3096397999907,291.3096397999907,0.6155715999775566,293.32457820000127,2.6305048000067472,None,1,decreament,0.6,41,standard,None,100,,,,,,,m,21,234,fr,r,0,raw,2023-04-11_15h54.10.132,oddball,2022.2.5,59.886084686786994,
20,,,,,0,0,0,3,2,0,2,0,8,0,8,0,,,,,,,,,,,,,,,,,293.34137659997214,294.0073537999997,294.0073537999997,294.6068720999756,294.6068720999756,0.5990379000431858,296.6221017999924,2.6139095000107773,None,1,decreament,0.6,41,standard,None,100,,,,,,,m,21,234,fr,r,0,raw,2023-04-11_15h54.10.132,oddball,2022.2.5,59.886084686786994,
20,,,,,0,0,0,3,2,0,2,0,9,0,9,0,,,,,,,,,,,,,,,,,296.6221017999924,297.28801119996933,297.28801119996933,297.8876125999959,297.8876125999959,0.6155328000313602,299.90259349998087,2.630489100003615,None,1,decreament,0.6,41,standard,None,100,,,,,,,m,21,234,fr,r,0,raw,2023-04-11_15h54.10.132,oddball,2022.2.5,59.886084686786994,
20,,,,,0,0,0,3,2,0,2,0,10,0,10,0,,,,,,,,,,,,,,,,,299.9192333999672,300.4855540000135,300.4855540000135,301.08485689997906,301.08485689997906,0.5990869000088423,303.09993939998094,2.6142730000428855,None,1,decreament,0.6,41,standard,None,100,,,,,,,m,21,234,fr,r,0,raw,2023-04-11_15h54.10.132,oddball,2022.2.5,59.886084686786994,
20,,,,,0,0,0,3,2,0,2,0,11,0,11,0,,,,,,,,,,,,,,,,,303.09993939998094,303.7660596999922,303.7660596999922,304.23237049998716,304.24909539998043,0.4824619999853894,306.24730579997413,2.4973865999490954,None,0,decreament,0.48,44,oddball,j,80,,,,,,,m,21,234,fr,r,0,raw,2023-04-11_15h54.10.132,oddball,2022.2.5,59.886084686786994,
20,,,,,0,0,0,3,2,0,2,0,12,0,12,0,,,,,,,,,,,,,,,,,306.26395200000843,306.99675079999724,306.99675079999724,307.5962857999839,307.5962857999839,0.6154769000131637,309.61128890002146,2.630453400022816,None,1,decreament,0.6,41,standard,None,100,,,,,,,m,21,234,fr,r,0,raw,2023-04-11_15h54.10.132,oddball,2022.2.5,59.886084686786994,
20,,,,,0,0,0,3,2,0,2,0,13,0,13,0,,,,,,,,,,,,,,,,,309.627959800011,310.34402329998557,310.34402329998557,310.94337659998564,310.94337659998564,0.6152080000028946,312.95843910000985,2.63025780004682,None,1,decreament,0.6,41,standard,None,100,,,,,,,m,21,234,fr,r,0,raw,2023-04-11_15h54.10.132,oddball,2022.2.5,59.886084686786994,
20,,,,,0,0,0,3,2,0,2,0,14,0,14,0,,,,,,,,,,,,,,,,,312.97528969997074,313.6080877999775,313.6080877999775,314.207640299981,314.207640299981,0.6156442000064999,316.2225577000063,2.6305613999720663,None,1,decreament,0.6,41,standard,None,100,,,,,,,m,21,234,fr,r,0,raw,2023-04-11_15h54.10.132,oddball,2022.2.5,59.886084686786994,
20,,,,,0,0,0,3,2,0,2,0,15,0,15,0,,,,,,,,,,,,,,,,,316.2395036999951,316.7886581000057,316.7886581000057,317.38820290000876,317.38820290000876,0.5991281000315212,319.4032180000213,2.6138635000097565,None,1,decreament,0.6,41,standard,None,100,,,,,,,m,21,234,fr,r,0,raw,2023-04-11_15h54.10.132,oddball,2022.2.5,59.886084686786994,
20,,,,,0,0,0,3,2,0,2,0,16,0,16,0,,,,,,,,,,,,,,,,,319.4032180000213,320.15275319997454,320.15275319997454,320.7355929000187,320.75206789997173,0.5992294999887235,322.7504745000042,2.614093900017906,None,1,decreament,0.6,41,standard,None,100,,,,,,,m,21,234,fr,r,0,raw,2023-04-11_15h54.10.132,oddball,2022.2.5,59.886084686786994,
20,,,,,0,0,0,3,2,0,2,0,17,0,17,0,,,,,,,,,,,,,,,,,322.76725610002177,323.46676959999604,323.46676959999604,324.06624680000823,324.06624680000823,0.6151683999923989,326.08144540002104,2.6303449999541044,None,1,decreament,0.6,41,standard,None,100,,,,,,,m,21,234,fr,r,0,raw,2023-04-11_15h54.10.132,oddball,2022.2.5,59.886084686786994,
20,,,,,0,0,0,3,2,0,2,0,18,0,18,0,,,,,,,,,,,,,,,,,326.0981350999791,326.71385120000923,326.71385120000923,327.31341469998006,327.31341469998006,0.615008199994918,329.3283376999898,2.6299117999733426,None,1,decreament,0.6,41,standard,None,100,,,,,,,m,21,234,fr,r,0,raw,2023-04-11_15h54.10.132,oddball,2022.2.5,59.886084686786994,
20,,,,,0,0,0,3,2,0,2,0,19,0,19,0,,,,,,,,,,,,,,,,,329.3452058999683,329.91131950001,329.91131950001,330.51099420001265,330.51099420001265,0.6151412000181153,332.5258941000211,2.6300517999916337,None,1,decreament,0.6,41,standard,None,100,,,,,,,m,21,234,fr,r,0,raw,2023-04-11_15h54.10.132,oddball,2022.2.5,59.886084686786994,
20,,,,,0,0,0,3,2,0,2,0,20,0,20,0,,,,,,,,,,,,,,,,,332.5424438000191,333.3085233999882,333.3085233999882,333.9080406000139,333.9080406000139,0.6150560000096448,335.92289089999394,2.6299209000426345,j,0,decreament,0.6,41,standard,None,100,1.136376200011,,,,,,m,21,234,fr,r,0,raw,2023-04-11_15h54.10.132,oddball,2022.2.5,59.886084686786994,
20,,,,,0,0,0,3,2,0,2,0,21,0,21,0,,,,,,,,,,,,,,,,,335.9400127999834,336.6558467000141,336.6558467000141,337.25550089997705,337.25550089997705,0.6156895000021905,339.2703062000219,2.6305143000208773,None,1,decreament,0.6,41,standard,None,100,,,,,,,m,21,234,fr,r,0,raw,2023-04-11_15h54.10.132,oddball,2022.2.5,59.886084686786994,
20,,,,,0,0,0,3,2,0,2,0,22,0,22,0,,,,,,,,,,,,,,,,,339.286925399967,339.8865663000033,339.8865663000033,340.23618730000453,340.25286940002115,0.36583470000186935,342.25123579998035,2.380896600021515,j,1,decreament,0.36,43,oddball,j,60,1.152428500005044,,,,,,m,21,234,fr,r,0,raw,2023-04-11_15h54.10.132,oddball,2022.2.5,59.886084686786994,
20,,,,,0,0,0,3,2,0,2,0,23,0,23,0,,,,,,,,,,,,,,,,,342.26787400001194,342.78401559998747,342.78401559998747,343.3836922000046,343.3836922000046,0.6153793000266887,345.3987199999974,2.6303959999931976,None,1,decreament,0.6,41,standard,None,100,,,,,,,m,21,234,fr,r,0,raw,2023-04-11_15h54.10.132,oddball,2022.2.5,59.886084686786994,
20,,,,,0,0,0,3,2,0,2,0,24,0,24,0,,,,,,,,,,,,,,,,,345.4152316999971,346.0147439999855,346.0147439999855,346.6142343999818,346.6142343999818,0.6153700999566354,348.6292414999916,2.6303776999702677,None,1,decreament,0.6,41,standard,None,100,,,,,,,m,21,234,fr,r,0,raw,2023-04-11_15h54.10.132,oddball,2022.2.5,59.886084686786994,
20,,,,,0,0,0,3,2,0,2,0,25,0,25,0,,,,,,,,,,,,,,,,,348.6459741999861,349.2121460000053,349.2121460000053,349.79515670001274,349.81153429998085,0.5992501999717206,351.8100165000069,2.6141126999864355,None,1,decreament,0.6,41,standard,None,100,,,,,,,m,21,234,fr,r,0,raw,2023-04-11_15h54.10.132,oddball,2022.2.5,59.886084686786994,
20,,,,,0,0,0,3,2,0,2,0,26,0,26,0,,,,,,,,,,,,,,,,,351.82690129999537,352.47620400000596,352.47620400000596,353.0756873000064,353.0756873000064,0.6157065000152215,355.0906307999976,2.630634800007101,None,1,decreament,0.6,41,standard,None,100,,,,,,,m,21,234,fr,r,0,raw,2023-04-11_15h54.10.132,oddball,2022.2.5,59.886084686786994,
20,,,,,0,0,0,3,2,0,2,0,27,0,27,0,,,,,,,,,,,,,,,,,355.1074782999931,355.70680519996677,355.70680519996677,356.30623709998326,356.30623709998326,0.6152176999603398,358.321357799985,2.6303285000030883,None,1,decreament,0.6,41,standard,None,100,,,,,,,m,21,234,fr,r,0,raw,2023-04-11_15h54.10.132,oddball,2022.2.5,59.886084686786994,
20,,,,,0,0,0,3,2,0,2,0,28,0,28,0,,,,,,,,,,,,,,,,,358.33793729997706,358.8708249999909,358.8708249999909,359.4703084999928,359.4703084999928,0.6153776000137441,361.4854480000213,2.6305080999736674,None,1,decreament,0.6,41,standard,None,100,,,,,,,m,21,234,fr,r,0,raw,2023-04-11_15h54.10.132,oddball,2022.2.5,59.886084686786994,
20,,,,,0,0,0,3,2,0,2,0,29,0,29,0,,,,,,,,,,,,,,,,,361.50197779998416,362.21806729998207,362.21806729998207,362.8012788000051,362.8176464000135,0.5993009000085294,364.8159723000135,2.613962800009176,None,1,decreament,0.6,41,standard,None,100,,,,,,,m,21,234,fr,r,0,raw,2023-04-11_15h54.10.132,oddball,2022.2.5,59.886084686786994,
20,,,,,0,0,0,3,3,0,3,0,0,0,0,0,,,,,,,,,,,,,,,366.18163870001445,366.18163870001445,368.26323400001274,368.92947749997256,368.92947749997256,369.5288438000134,369.5288438000134,0.615573699993547,371.5440126999747,2.63071779999882,None,1,increament,0.6,45,standard,None,100,,364.8325771000236,0.0007957000052556396,,,,m,21,234,fr,r,0,raw,2023-04-11_15h54.10.132,oddball,2022.2.5,59.886084686786994,
20,,,,,0,0,0,3,3,0,3,0,1,0,1,0,,,,,,,,,,,,,,,,,371.560456599982,372.36007970001083,372.36007970001083,372.95928880001884,372.95928880001884,0.6150373999844305,374.9744308000081,2.6301860999665223,None,1,increament,0.6,45,standard,None,100,,,,,,,m,21,234,fr,r,0,raw,2023-04-11_15h54.10.132,oddball,2022.2.5,59.886084686786994,
20,,,,,0,0,0,3,3,0,3,0,2,0,2,0,,,,,,,,,,,,,,,,,374.9909468999831,375.6403733000043,375.6403733000043,376.2400304999901,376.2400304999901,0.6152783999568783,378.25500070001,2.630228199996054,None,1,increament,0.6,45,standard,None,100,,,,,,,m,21,234,fr,r,0,raw,2023-04-11_15h54.10.132,oddball,2022.2.5,59.886084686786994,
20,,,,,0,0,0,3,3,0,3,0,3,0,3,0,,,,,,,,,,,,,,,,,378.27160709997406,378.937732899969,378.937732899969,379.5371461000177,379.5371461000177,0.599159499979578,381.5522593000205,2.6136749000288546,None,1,increament,0.6,45,standard,None,100,,,,,,,m,21,234,fr,r,0,raw,2023-04-11_15h54.10.132,oddball,2022.2.5,59.886084686786994,
20,,,,,0,0,0,3,3,0,3,0,4,0,4,0,,,,,,,,,,,,,,,,,381.5522593000205,382.2684027000214,382.2684027000214,382.8677286999882,382.8677286999882,0.6149552999995649,384.88290029997006,2.6301486999727786,None,1,increament,0.6,45,standard,None,100,,,,,,,m,21,234,fr,r,0,raw,2023-04-11_15h54.10.132,oddball,2022.2.5,59.886084686786994,
20,,,,,0,0,0,3,3,0,3,0,5,0,5,0,,,,,,,,,,,,,,,,,384.8995507999789,385.48246570001356,385.48246570001356,386.08177699998487,386.08177699998487,0.6154423999832943,388.09686749998946,2.630525699991267,None,1,increament,0.6,45,standard,None,100,,,,,,,m,21,234,fr,r,0,raw,2023-04-11_15h54.10.132,oddball,2022.2.5,59.886084686786994,
20,,,,,0,0,0,3,3,0,3,0,6,0,6,0,,,,,,,,,,,,,,,,,388.1135681999731,388.79643370001577,388.79643370001577,389.39581519999774,389.39581519999774,0.5990082999924198,391.41104540001834,2.614291600009892,None,1,increament,0.6,45,standard,None,100,,,,,,,m,21,234,fr,r,0,raw,2023-04-11_15h54.10.132,oddball,2022.2.5,59.886084686786994,
20,,,,,0,0,0,3,3,0,3,0,7,0,7,0,,,,,,,,,,,,,,,,,391.41104540001834,392.077085500001,392.077085500001,392.67639639996924,392.67639639996924,0.6152503000339493,394.6914574999828,2.630300500022713,None,1,increament,0.6,45,standard,None,100,,,,,,,m,21,234,fr,r,0,raw,2023-04-11_15h54.10.132,oddball,2022.2.5,59.886084686786994,
20,,,,,0,0,0,3,3,0,3,0,8,0,8,0,,,,,,,,,,,,,,,,,394.7080625999952,395.3910323000164,395.3910323000164,395.990500600019,395.990500600019,0.6154056999948807,398.0054869999876,2.6303707999759354,None,1,increament,0.6,45,standard,None,100,,,,,,,m,21,234,fr,r,0,raw,2023-04-11_15h54.10.132,oddball,2022.2.5,59.886084686786994,
20,,,,,0,0,0,3,3,0,3,0,9,0,9,0,,,,,,,,,,,,,,,,,398.0220072999946,398.7380956999841,398.7380956999841,399.32097729999805,399.33786620001774,0.615838999976404,401.33615160000045,2.6307208000216633,None,1,increament,0.6,45,standard,None,100,,,,,,,m,21,234,fr,r,0,raw,2023-04-11_15h54.10.132,oddball,2022.2.5,59.886084686786994,
20,,,,,0,0,0,3,3,0,3,0,10,0,10,0,,,,,,,,,,,,,,,,,401.36932389996946,402.06878799997503,402.06878799997503,402.6684105999884,402.6684105999884,0.615535200049635,404.6832603000221,2.630349200044293,None,1,increament,0.6,45,standard,None,100,,,,,,,m,21,234,fr,r,0,raw,2023-04-11_15h54.10.132,oddball,2022.2.5,59.886084686786994,
20,,,,,0,0,0,3,3,0,3,0,11,0,11,0,,,,,,,,,,,,,,,,,404.69998440000927,405.31599679996725,405.31599679996725,405.91558550001355,405.91558550001355,0.615370300016366,407.9304826000007,2.63026850001188,None,1,increament,0.6,45,standard,None,100,,,,,,,m,21,234,fr,r,0,raw,2023-04-11_15h54.10.132,oddball,2022.2.5,59.886084686786994,
20,,,,,0,0,0,3,3,0,3,0,12,0,12,0,,,,,,,,,,,,,,,,,407.94720549997874,408.6467812000192,408.6467812000192,409.2460102000041,409.2460102000041,0.6154089000192471,411.2611347999773,2.6305235999752767,None,1,increament,0.6,45,standard,None,100,,,,,,,m,21,234,fr,r,0,raw,2023-04-11_15h54.10.132,oddball,2022.2.5,59.886084686786994,
20,,,,,0,0,0,3,3,0,3,0,13,0,13,0,,,,,,,,,,,,,,,,,411.27787009999156,411.9772028999869,411.9772028999869,412.5767825000221,412.5767825000221,0.6155220000073314,414.5916867000051,2.630404199997429,None,1,increament,0.6,45,standard,None,100,,,,,,,m,21,234,fr,r,0,raw,2023-04-11_15h54.10.132,oddball,2022.2.5,59.886084686786994,
20,,,,,0,0,0,3,3,0,3,0,14,0,14,0,,,,,,,,,,,,,,,,,414.60838390002027,415.3911643999745,415.3911643999745,416.10703189997,416.1239332999685,0.7319830000051297,418.1222179000033,2.7471619000425562,None,0,increament,0.72,46,oddball,j,120,,,,,,,m,21,234,fr,r,0,raw,2023-04-11_15h54.10.132,oddball,2022.2.5,59.886084686786994,
20,,,,,0,0,0,3,3,0,3,0,15,0,15,0,,,,,,,,,,,,,,,,,418.13880860002246,418.95478979998734,418.95478979998734,419.55432150000706,419.55432150000706,0.6152951999683864,421.5692290000152,2.6301728999824263,None,1,increament,0.6,45,standard,None,100,,,,,,,m,21,234,fr,r,0,raw,2023-04-11_15h54.10.132,oddball,2022.2.5,59.886084686786994,
20,,,,,0,0,0,3,3,0,3,0,16,0,16,0,,,,,,,,,,,,,,,,,421.58593250002014,422.2190319999936,422.2190319999936,422.8183158999891,422.8183158999891,0.6152583000366576,424.8334564999677,2.630403000046499,None,1,increament,0.6,45,standard,None,100,,,,,,,m,21,234,fr,r,0,raw,2023-04-11_15h54.10.132,oddball,2022.2.5,59.886084686786994,
20,,,,,0,0,0,3,3,0,3,0,17,0,17,0,,,,,,,,,,,,,,,,,424.8498853999772,425.4494678999763,425.4494678999763,426.04903910000576,426.04903910000576,0.6153286999906413,428.0640965999919,2.630395899992436,None,1,increament,0.6,45,standard,None,100,,,,,,,m,21,234,fr,r,0,raw,2023-04-11_15h54.10.132,oddball,2022.2.5,59.886084686786994,
20,,,,,0,0,0,3,3,0,3,0,18,0,18,0,,,,,,,,,,,,,,,,,428.08092269999906,428.83019050001167,428.83019050001167,429.779404299974,429.7958445000113,0.9653989999787882,431.79429980000714,2.9802926999982446,None,0,increament,0.96,48,oddball,j,160,,,,,,,m,21,234,fr,r,0,raw,2023-04-11_15h54.10.132,oddball,2022.2.5,59.886084686786994,
20,,,,,0,0,0,3,3,0,3,0,19,0,19,0,,,,,,,,,,,,,,,,,431.81098429998383,432.4105630000122,432.4105630000122,433.0100416999776,433.0100416999776,0.6153040999779478,435.02507380000316,2.630321800010279,None,1,increament,0.6,45,standard,None,100,,,,,,,m,21,234,fr,r,0,raw,2023-04-11_15h54.10.132,oddball,2022.2.5,59.886084686786994,
20,,,,,0,0,0,3,3,0,3,0,20,0,20,0,,,,,,,,,,,,,,,,,435.04160639998736,435.6576858999906,435.6576858999906,436.2573184000212,436.2573184000212,0.6154090000200085,438.27242110000225,2.630482900014613,None,1,increament,0.6,45,standard,None,100,,,,,,,m,21,234,fr,r,0,raw,2023-04-11_15h54.10.132,oddball,2022.2.5,59.886084686786994,
20,,,,,0,0,0,3,3,0,3,0,21,0,21,0,,,,,,,,,,,,,,,,,438.2888932999922,438.87190059997374,438.87190059997374,439.4715409000055,439.4715409000055,0.6157180999871343,441.4863063999801,2.630488399998285,None,1,increament,0.6,45,standard,None,100,,,,,,,m,21,234,fr,r,0,raw,2023-04-11_15h54.10.132,oddball,2022.2.5,59.886084686786994,
20,,,,,0,0,0,3,3,0,3,0,22,0,22,0,,,,,,,,,,,,,,,,,441.5030650999979,442.2191739999689,442.2191739999689,442.81866920000175,442.81866920000175,0.5991403000080027,444.8334955999744,2.6140941999619827,None,1,increament,0.6,45,standard,None,100,,,,,,,m,21,234,fr,r,0,raw,2023-04-11_15h54.10.132,oddball,2022.2.5,59.886084686786994,
20,,,,,0,0,0,3,3,0,3,0,23,0,23,0,,,,,,,,,,,,,,,,,444.8334955999744,445.549790799967,445.549790799967,446.1492358999676,446.1492358999676,0.6154834000044502,448.1642315000063,2.630497900012415,None,1,increament,0.6,45,standard,None,100,,,,,,,m,21,234,fr,r,0,raw,2023-04-11_15h54.10.132,oddball,2022.2.5,59.886084686786994,
20,,,,,0,0,0,3,3,0,3,0,24,0,24,0,,,,,,,,,,,,,,,,,448.18099989998154,448.86365939996904,448.86365939996904,449.4465118999942,449.4631060999818,0.599141399958171,451.4614380999701,2.614062999957241,None,1,increament,0.6,45,standard,None,100,,,,,,,m,21,234,fr,r,0,raw,2023-04-11_15h54.10.132,oddball,2022.2.5,59.886084686786994,
20,,,,,0,0,0,3,3,0,3,0,25,0,25,0,,,,,,,,,,,,,,,,,451.4779342999682,452.0443807999836,452.0443807999836,452.64388089999557,452.64388089999557,0.6149744999711402,454.659032800002,2.6300996999489143,None,1,increament,0.6,45,standard,None,100,,,,,,,m,21,234,fr,r,0,raw,2023-04-11_15h54.10.132,oddball,2022.2.5,59.886084686786994,
20,,,,,0,0,0,3,3,0,3,0,26,0,26,0,,,,,,,,,,,,,,,,,454.67541889997665,455.2750027999864,455.2750027999864,455.87452969996957,455.87452969996957,0.6153428999823518,457.88958869996713,2.630406000011135,j,0,increament,0.6,45,standard,None,100,0.5293561000144109,,,,,,m,21,234,fr,r,0,raw,2023-04-11_15h54.10.132,oddball,2022.2.5,59.886084686786994,
20,,,,,0,0,0,3,3,0,3,0,27,0,27,0,,,,,,,,,,,,,,,,,457.90634169999976,458.5057009999873,458.5057009999873,459.10530280001694,459.10530280001694,0.6155266999849118,461.1201340999687,2.630359300004784,None,1,increament,0.6,45,standard,None,100,,,,,,,m,21,234,fr,r,0,raw,2023-04-11_15h54.10.132,oddball,2022.2.5,59.886084686786994,
20,,,,,0,0,0,3,3,0,3,0,28,0,28,0,,,,,,,,,,,,,,,,,461.13689899997553,461.9861746999668,461.9861746999668,462.56905210000696,462.58555499999784,0.5991863000090234,464.5839973000111,2.6141462000086904,None,1,increament,0.6,45,standard,None,100,,,,,,,m,21,234,fr,r,0,raw,2023-04-11_15h54.10.132,oddball,2022.2.5,59.886084686786994,
20,,,,,0,0,0,3,3,0,3,0,29,0,29,0,,,,,,,,,,,,,,,,,464.60062969999854,465.2833813999896,465.2833813999896,466.11608669999987,466.13286670000525,0.8487036000005901,468.1311961999745,2.8637913999846205,j,1,increament,0.84,47,oddball,j,140,0.5458228000206873,,,,,,m,21,234,fr,r,0,raw,2023-04-11_15h54.10.132,oddball,2022.2.5,59.886084686786994,
20,,,,,0,0,0,3,4,0,4,0,0,0,0,0,,,,,,,,,,,,,,,469.39670749998186,469.39670749998186,470.1960098000127,470.89549929997884,470.89549929997884,471.4949607999879,471.4949607999879,0.615263799962122,473.50995019997936,2.630253899958916,None,1,decreament,0.6,41,standard,None,100,,468.14776750002056,0.0007863999926485121,,,,m,21,234,fr,r,0,raw,2023-04-11_15h54.10.132,oddball,2022.2.5,59.886084686786994,
20,,,,,0,0,0,3,4,0,4,0,1,0,1,0,,,,,,,,,,,,,,,,,473.52669709996553,474.19298310001614,474.19298310001614,474.79245509998873,474.79245509998873,0.6153620000113733,476.8074029000127,2.630308600026183,None,1,decreament,0.6,41,standard,None,100,,,,,,,m,21,234,fr,r,0,raw,2023-04-11_15h54.10.132,oddball,2022.2.5,59.886084686786994,
20,,,,,0,0,0,3,4,0,4,0,2,0,2,0,,,,,,,,,,,,,,,,,476.823999300017,477.55670489999466,477.55670489999466,478.1561662000022,478.1561662000022,0.6155099999741651,480.1713195000193,2.630672400002368,None,1,decreament,0.6,41,standard,None,100,,,,,,,m,21,234,fr,r,0,raw,2023-04-11_15h54.10.132,oddball,2022.2.5,59.886084686786994,
20,,,,,0,0,0,3,4,0,4,0,3,0,3,0,,,,,,,,,,,,,,,,,480.18797700002324,480.93731130001834,480.93731130001834,481.53685620002216,481.53685620002216,0.6152160000056028,483.55160800000886,2.6299744000425562,None,1,decreament,0.6,41,standard,None,100,,,,,,,m,21,234,fr,r,0,raw,2023-04-11_15h54.10.132,oddball,2022.2.5,59.886084686786994,
20,,,,,0,0,0,3,4,0,4,0,4,0,4,0,,,,,,,,,,,,,,,,,483.56834479997633,484.26802020001924,484.26802020001924,484.8672449999722,484.8672449999722,0.5990212999749929,486.88233789999504,2.6139059999841265,None,1,decreament,0.6,41,standard,None,100,,,,,,,m,21,234,fr,r,0,raw,2023-04-11_15h54.10.132,oddball,2022.2.5,59.886084686786994,
20,,,,,0,0,0,3,4,0,4,0,5,0,5,0,,,,,,,,,,,,,,,,,486.88233789999504,487.5652406999725,487.5652406999725,488.16469000000507,488.16469000000507,0.6155073000118136,490.17983899998944,2.63067600002978,None,1,decreament,0.6,41,standard,None,100,,,,,,,m,21,234,fr,r,0,raw,2023-04-11_15h54.10.132,oddball,2022.2.5,59.886084686786994,
20,,,,,0,0,0,3,4,0,4,0,6,0,6,0,,,,,,,,,,,,,,,,,490.1962197999819,490.94575169996824,490.94575169996824,491.1787863000063,491.19545800000196,0.24919270002283156,493.19389479997335,2.2643096999963745,None,0,decreament,0.24,42,oddball,j,40,,,,,,,m,21,234,fr,r,0,raw,2023-04-11_15h54.10.132,oddball,2022.2.5,59.886084686786994,
20,,,,,0,0,0,3,4,0,4,0,7,0,7,0,,,,,,,,,,,,,,,,,493.2104823999689,493.8599927999894,493.8599927999894,494.459604499978,494.459604499978,0.6157653999980539,496.4745896999957,2.630755699996371,None,1,decreament,0.6,41,standard,None,100,,,,,,,m,21,234,fr,r,0,raw,2023-04-11_15h54.10.132,oddball,2022.2.5,59.886084686786994,
20,,,,,0,0,0,3,4,0,4,0,8,0,8,0,,,,,,,,,,,,,,,,,496.49109859997407,497.1572201999952,497.1572201999952,497.7567084999755,497.7567084999755,0.6153897999902256,499.7716788999969,2.6303601000108756,None,1,decreament,0.6,41,standard,None,100,,,,,,,m,21,234,fr,r,0,raw,2023-04-11_15h54.10.132,oddball,2022.2.5,59.886084686786994,
20,,,,,0,0,0,3,4,0,4,0,9,0,9,0,,,,,,,,,,,,,,,,,499.7884079000214,500.4546522999881,500.4546522999881,501.0540862000198,501.0540862000198,0.6155402999720536,503.06917350000003,2.630617299990263,None,1,decreament,0.6,41,standard,None,100,,,,,,,m,21,234,fr,r,0,raw,2023-04-11_15h54.10.132,oddball,2022.2.5,59.886084686786994,
20,,,,,0,0,0,3,4,0,4,0,10,0,10,0,,,,,,,,,,,,,,,,,503.0856723000179,503.7687205999973,503.7687205999973,504.2347372000222,504.25143920001574,0.48190919996704906,506.2498530999874,2.4970284000155516,None,0,decreament,0.48,44,oddball,j,80,,,,,,,m,21,234,fr,r,0,raw,2023-04-11_15h54.10.132,oddball,2022.2.5,59.886084686786994,
20,,,,,0,0,0,3,4,0,4,0,11,0,11,0,,,,,,,,,,,,,,,,,506.26653740002075,506.932469899999,506.932469899999,507.5321388000157,507.5321388000157,0.6154106999747455,509.5470602000132,2.6303321999730542,None,1,decreament,0.6,41,standard,None,100,,,,,,,m,21,234,fr,r,0,raw,2023-04-11_15h54.10.132,oddball,2022.2.5,59.886084686786994,
20,,,,,0,0,0,3,4,0,4,0,12,0,12,0,,,,,,,,,,,,,,,,,509.56379250000464,510.2466086000204,510.2466086000204,510.84598059998825,510.84598059998825,0.6153533000033349,512.8610731000081,2.6304402999812737,None,1,decreament,0.6,41,standard,None,100,,,,,,,m,21,234,fr,r,0,raw,2023-04-11_15h54.10.132,oddball,2022.2.5,59.886084686786994,
20,,,,,0,0,0,3,4,0,4,0,13,0,13,0,,,,,,,,,,,,,,,,,512.877880199987,513.7103449999704,513.7103449999704,514.3099188000197,514.3099188000197,0.6155662999954075,516.3248642999679,2.6305169999832287,None,1,decreament,0.6,41,standard,None,100,,,,,,,m,21,234,fr,r,0,raw,2023-04-11_15h54.10.132,oddball,2022.2.5,59.886084686786994,
20,,,,,0,0,0,3,4,0,4,0,14,0,14,0,,,,,,,,,,,,,,,,,516.3415555999964,517.0243759999867,517.0243759999867,517.6238536000019,517.6238536000019,0.5990903999772854,519.6387793999747,2.6140438999864273,None,1,decreament,0.6,41,standard,None,100,,,,,,,m,21,234,fr,r,0,raw,2023-04-11_15h54.10.132,oddball,2022.2.5,59.886084686786994,
20,,,,,0,0,0,3,4,0,4,0,15,0,15,0,,,,,,,,,,,,,,,,,519.6387793999747,520.2050306000165,520.2050306000165,520.7878838999895,520.8047688999795,0.5991484000114724,522.8028506999835,2.614110099966638,None,1,decreament,0.6,41,standard,None,100,,,,,,,m,21,234,fr,r,0,raw,2023-04-11_15h54.10.132,oddball,2022.2.5,59.886084686786994,
20,,,,,0,0,0,3,4,0,4,0,16,0,16,0,,,,,,,,,,,,,,,,,522.8195821999689,523.4190030000173,523.4190030000173,524.0184640000225,524.0184640000225,0.6153340999735519,526.0336873999913,2.630530699971132,None,1,decreament,0.6,41,standard,None,100,,,,,,,m,21,234,fr,r,0,raw,2023-04-11_15h54.10.132,oddball,2022.2.5,59.886084686786994,
20,,,,,0,0,0,3,4,0,4,0,17,0,17,0,,,,,,,,,,,,,,,,,526.0502880999702,526.8997121999855,526.8997121999855,527.4991853999672,527.4991853999672,0.6152956999721937,529.5139222000143,2.6300034999730997,None,1,decreament,0.6,41,standard,None,100,,,,,,,m,21,234,fr,r,0,raw,2023-04-11_15h54.10.132,oddball,2022.2.5,59.886084686786994,
20,,,,,0,0,0,3,4,0,4,0,18,0,18,0,,,,,,,,,,,,,,,,,529.5305633000098,530.1968492000015,530.1968492000015,530.5465237000026,530.5632380999741,0.3658368000178598,532.5615481999703,2.3808602999779396,None,0,decreament,0.36,43,oddball,j,60,,,,,,,m,21,234,fr,r,0,raw,2023-04-11_15h54.10.132,oddball,2022.2.5,59.886084686786994,
20,,,,,0,0,0,3,4,0,4,0,19,0,19,0,,,,,,,,,,,,,,,,,532.5781796000083,533.2109745999915,533.2109745999915,533.8105093999766,533.8105093999766,0.6153246000176296,535.8255929999868,2.6304141000146046,None,1,decreament,0.6,41,standard,None,100,,,,,,,m,21,234,fr,r,0,raw,2023-04-11_15h54.10.132,oddball,2022.2.5,59.886084686786994,
20,,,,,0,0,0,3,4,0,4,0,20,0,20,0,,,,,,,,,,,,,,,,,535.8423065000097,536.6083202000009,536.6083202000009,537.2077383999713,537.2077383999713,0.6155437999987043,539.2226176999975,2.630425399984233,None,1,decreament,0.6,41,standard,None,100,,,,,,,m,21,234,fr,r,0,raw,2023-04-11_15h54.10.132,oddball,2022.2.5,59.886084686786994,
20,,,,,0,0,0,3,4,0,4,0,21,0,21,0,,,,,,,,,,,,,,,,,539.2394421999925,539.8388904000167,539.8388904000167,540.438466200023,540.438466200023,0.6153951000305824,542.4534094000119,2.6303319000289775,None,1,decreament,0.6,41,standard,None,100,,,,,,,m,21,234,fr,r,0,raw,2023-04-11_15h54.10.132,oddball,2022.2.5,59.886084686786994,
20,,,,,0,0,0,3,4,0,4,0,22,0,22,0,,,,,,,,,,,,,,,,,542.4700237999787,543.1699471999891,543.1699471999891,543.7523788000108,543.7692215999705,0.5991257000132464,545.7674947999767,2.6142245000228286,None,1,decreament,0.6,41,standard,None,100,,,,,,,m,21,234,fr,r,0,raw,2023-04-11_15h54.10.132,oddball,2022.2.5,59.886084686786994,
20,,,,,0,0,0,3,4,0,4,0,23,0,23,0,,,,,,,,,,,,,,,,,545.784000899992,546.6167389000184,546.6167389000184,547.2161928999703,547.2161928999703,0.615470299962908,549.2312505000154,2.6305197999463417,None,1,decreament,0.6,41,standard,None,100,,,,,,,m,21,234,fr,r,0,raw,2023-04-11_15h54.10.132,oddball,2022.2.5,59.886084686786994,
20,,,,,0,0,0,3,4,0,4,0,24,0,24,0,,,,,,,,,,,,,,,,,549.2477596999961,549.8473206000053,549.8473206000053,550.4468563999981,550.4468563999981,0.615318899974227,552.4618725000182,2.63030149997212,None,1,decreament,0.6,41,standard,None,100,,,,,,,m,21,234,fr,r,0,raw,2023-04-11_15h54.10.132,oddball,2022.2.5,59.886084686786994,
20,,,,,0,0,0,3,4,0,4,0,25,0,25,0,,,,,,,,,,,,,,,,,552.478516299976,553.2279491000227,553.2279491000227,553.827492100012,553.827492100012,0.6155030999798328,555.8424029999878,2.63041169999633,None,1,decreament,0.6,41,standard,None,100,,,,,,,m,21,234,fr,r,0,raw,2023-04-11_15h54.10.132,oddball,2022.2.5,59.886084686786994,
20,,,,,0,0,0,3,4,0,4,0,26,0,26,0,,,,,,,,,,,,,,,,,555.8590411000187,556.4917619000189,556.4917619000189,557.0747437999817,557.0914090999868,0.6155826000031084,559.0896957999794,2.6305965000065044,None,1,decreament,0.6,41,standard,None,100,,,,,,,m,21,234,fr,r,0,raw,2023-04-11_15h54.10.132,oddball,2022.2.5,59.886084686786994,
20,,,,,0,0,0,3,4,0,4,0,27,0,27,0,,,,,,,,,,,,,,,,,559.123083500017,559.7559005999938,559.7559005999938,560.3387595000095,560.3554585999809,0.6155791999772191,562.3536984999664,2.6305409999913536,None,1,decreament,0.6,41,standard,None,100,,,,,,,m,21,234,fr,r,0,raw,2023-04-11_15h54.10.132,oddball,2022.2.5,59.886084686786994,
20,,,,,0,0,0,3,4,0,4,0,28,0,28,0,,,,,,,,,,,,,,,,,562.3869678999763,563.0863989000209,563.0863989000209,563.6860085999942,563.6860085999942,0.6153568000299856,565.7008650000207,2.6302058000001125,None,1,decreament,0.6,41,standard,None,100,,,,,,,m,21,234,fr,r,0,raw,2023-04-11_15h54.10.132,oddball,2022.2.5,59.886084686786994,
20,,,,,0,0,0,3,4,0,4,0,29,0,29,0,,,,,,,,,,,,,,,,,565.7177010999876,566.4836757999728,566.4836757999728,567.0830485000042,567.0830485000042,0.5990259000100195,569.0982591999928,2.61381780001102,None,1,decreament,0.6,41,standard,None,100,,,,,,,m,21,234,fr,r,0,raw,2023-04-11_15h54.10.132,oddball,2022.2.5,59.886084686786994,
20,,,,,0,0,0,3,5,0,5,0,0,0,0,0,,,,,,,,,,,,,,,570.4803944000159,570.4803944000159,571.2963363999734,571.995869699982,571.995869699982,572.5786625000183,572.5953817999689,0.5990228999871761,574.5937860999838,2.614158199983649,None,1,increament,0.6,45,standard,None,100,,569.0982591999928,0.0006278000073507428,,,,m,21,234,fr,r,0,raw,2023-04-11_15h54.10.132,oddball,2022.2.5,59.886084686786994,
20,,,,,0,0,0,3,5,0,5,0,1,0,1,0,,,,,,,,,,,,,,,,,574.6102921999991,575.2431326999795,575.2431326999795,575.8427010999876,575.8427010999876,0.6156018000328913,577.8578511999804,2.6307619000435807,None,1,increament,0.6,45,standard,None,100,,,,,,,m,21,234,fr,r,0,raw,2023-04-11_15h54.10.132,oddball,2022.2.5,59.886084686786994,
20,,,,,0,0,0,3,5,0,5,0,2,0,2,0,,,,,,,,,,,,,,,,,577.8743811000022,578.6571447000024,578.6571447000024,579.2566040999955,579.2566040999955,0.5991198999690823,581.2714600000181,2.614175399998203,None,1,increament,0.6,45,standard,None,100,,,,,,,m,21,234,fr,r,0,raw,2023-04-11_15h54.10.132,oddball,2022.2.5,59.886084686786994,
20,,,,,0,0,0,3,5,0,5,0,3,0,3,0,,,,,,,,,,,,,,,,,581.2714600000181,581.9043789000134,581.9043789000134,582.5039874999784,582.5039874999784,0.6157112999935634,584.5187596000032,2.6304847999708727,None,1,increament,0.6,45,standard,None,100,,,,,,,m,21,234,fr,r,0,raw,2023-04-11_15h54.10.132,oddball,2022.2.5,59.886084686786994,
20,,,,,0,0,0,3,5,0,5,0,4,0,4,0,,,,,,,,,,,,,,,,,584.5354877000209,585.1516594999703,585.1516594999703,585.7511834999896,585.7511834999896,0.6155402000294998,587.7660925000091,2.630456699989736,None,1,increament,0.6,45,standard,None,100,,,,,,,m,21,234,fr,r,0,raw,2023-04-11_15h54.10.132,oddball,2022.2.5,59.886084686786994,
20,,,,,0,0,0,3,5,0,5,0,5,0,5,0,,,,,,,,,,,,,,,,,587.7827133999672,588.4655496000196,588.4655496000196,589.0650241000112,589.0650241000112,0.615379499970004,591.0801841000211,2.630528699955903,None,1,increament,0.6,45,standard,None,100,,,,,,,m,21,234,fr,r,0,raw,2023-04-11_15h54.10.132,oddball,2022.2.5,59.886084686786994,
20,,,,,0,0,0,3,5,0,5,0,6,0,6,0,,,,,,,,,,,,,,,,,591.0968726999708,591.7129291999736,591.7129291999736,592.6622476999764,592.678933600022,0.9653502000146545,594.6772010999848,2.980307600053493,j,1,increament,0.96,48,oddball,j,160,1.5325966000091285,,,,,,m,21,234,fr,r,0,raw,2023-04-11_15h54.10.132,oddball,2022.2.5,59.886084686786994,
20,,,,,0,0,0,3,5,0,5,0,7,0,7,0,,,,,,,,,,,,,,,,,594.6938528000028,595.2267251000158,595.2267251000158,595.8262784999679,595.8262784999679,0.6154402999673039,597.8413591000135,2.6305321999825537,None,1,increament,0.6,45,standard,None,100,,,,,,,m,21,234,fr,r,0,raw,2023-04-11_15h54.10.132,oddball,2022.2.5,59.886084686786994,
20,,,,,0,0,0,3,5,0,5,0,8,0,8,0,,,,,,,,,,,,,,,,,597.8577994999941,598.3909141999902,598.3909141999902,598.9903865999659,598.9903865999659,0.6151796000194736,601.0052980000037,2.6300586000434123,None,1,increament,0.6,45,standard,None,100,,,,,,,m,21,234,fr,r,0,raw,2023-04-11_15h54.10.132,oddball,2022.2.5,59.886084686786994,
20,,,,,0,0,0,3,5,0,5,0,9,0,9,0,,,,,,,,,,,,,,,,,601.0220624000067,601.6546935000224,601.6546935000224,602.254303099995,602.254303099995,0.6155588999972679,604.2694557000068,2.630909300001804,None,1,increament,0.6,45,standard,None,100,,,,,,,m,21,234,fr,r,0,raw,2023-04-11_15h54.10.132,oddball,2022.2.5,59.886084686786994,
20,,,,,0,0,0,3,5,0,5,0,10,0,10,0,,,,,,,,,,,,,,,,,604.286106900021,605.035379900015,605.035379900015,605.6349771000096,605.6349771000096,0.6156655999948271,607.649740999972,2.6304147000191733,None,1,increament,0.6,45,standard,None,100,,,,,,,m,21,234,fr,r,0,raw,2023-04-11_15h54.10.132,oddball,2022.2.5,59.886084686786994,
20,,,,,0,0,0,3,5,0,5,0,11,0,11,0,,,,,,,,,,,,,,,,,607.6665631000069,608.1993010999868,608.1993010999868,608.79885989998,608.79885989998,0.5990171000012197,610.8139419999789,2.6140062999911606,None,1,increament,0.6,45,standard,None,100,,,,,,,m,21,234,fr,r,0,raw,2023-04-11_15h54.10.132,oddball,2022.2.5,59.886084686786994,
20,,,,,0,0,0,3,5,0,5,0,12,0,12,0,,,,,,,,,,,,,,,,,610.8139419999789,611.5633936999948,611.5633936999948,612.1629250000115,612.1629250000115,0.6156066000112332,614.1778216999955,2.630698500026483,None,1,increament,0.6,45,standard,None,100,,,,,,,m,21,234,fr,r,0,raw,2023-04-11_15h54.10.132,oddball,2022.2.5,59.886084686786994,
20,,,,,0,0,0,3,5,0,5,0,13,0,13,0,,,,,,,,,,,,,,,,,614.194554799993,614.7440037999768,614.7440037999768,615.5767842999776,615.5933744999929,0.8484773000236601,617.5915502000134,2.8632342999917455,None,0,increament,0.84,47,oddball,j,140,,,,,,,m,21,234,fr,r,0,raw,2023-04-11_15h54.10.132,oddball,2022.2.5,59.886084686786994,
20,,,,,0,0,0,3,5,0,5,0,14,0,14,0,,,,,,,,,,,,,,,,,617.6083489999874,618.274499399995,618.274499399995,618.8740057999967,618.8740057999967,0.615718699991703,620.8891528999666,2.630869399989024,None,1,increament,0.6,45,standard,None,100,,,,,,,m,21,234,fr,r,0,raw,2023-04-11_15h54.10.132,oddball,2022.2.5,59.886084686786994,
20,,,,,0,0,0,3,5,0,5,0,15,0,15,0,,,,,,,,,,,,,,,,,620.9057441999903,621.5219802000211,621.5219802000211,622.1212891999749,622.1212891999749,0.6153504999820143,624.1361865000217,2.630236800003331,None,1,increament,0.6,45,standard,None,100,,,,,,,m,21,234,fr,r,0,raw,2023-04-11_15h54.10.132,oddball,2022.2.5,59.886084686786994,
20,,,,,0,0,0,3,5,0,5,0,16,0,16,0,,,,,,,,,,,,,,,,,624.1529173000017,624.7524527999922,624.7524527999922,625.3518689000048,625.3518689000048,0.5990073999855667,627.3669467999716,2.6139819999807514,None,1,increament,0.6,45,standard,None,100,,,,,,,m,21,234,fr,r,0,raw,2023-04-11_15h54.10.132,oddball,2022.2.5,59.886084686786994,
20,,,,,0,0,0,3,5,0,5,0,17,0,17,0,,,,,,,,,,,,,,,,,627.3669467999716,628.1830896000029,628.1830896000029,628.7824762000237,628.7824762000237,0.6153458000044338,630.7976085999981,2.6304937999811955,None,1,increament,0.6,45,standard,None,100,,,,,,,m,21,234,fr,r,0,raw,2023-04-11_15h54.10.132,oddball,2022.2.5,59.886084686786994,
20,,,,,0,0,0,3,5,0,5,0,18,0,18,0,,,,,,,,,,,,,,,,,630.8142627999769,631.5469249999733,631.5469249999733,632.1464637999889,632.1464637999889,0.6155495999846607,634.1615418000147,2.6306103999959305,None,1,increament,0.6,45,standard,None,100,,,,,,,m,21,234,fr,r,0,raw,2023-04-11_15h54.10.132,oddball,2022.2.5,59.886084686786994,
20,,,,,0,0,0,3,5,0,5,0,19,0,19,0,,,,,,,,,,,,,,,,,634.1779756000033,634.7276391999912,634.7276391999912,635.3270935000037,635.3270935000037,0.615047900006175,637.3426116000046,2.6305768999736756,None,1,increament,0.6,45,standard,None,100,,,,,,,m,21,234,fr,r,0,raw,2023-04-11_15h54.10.132,oddball,2022.2.5,59.886084686786994,
20,,,,,0,0,0,3,5,0,5,0,20,0,20,0,,,,,,,,,,,,,,,,,637.3591864000191,638.0083579000202,638.0083579000202,638.6078677999903,638.6078677999903,0.599073400022462,640.6226940000197,2.614094600023236,None,1,increament,0.6,45,standard,None,100,,,,,,,m,21,234,fr,r,0,raw,2023-04-11_15h54.10.132,oddball,2022.2.5,59.886084686786994,
20,,,,,0,0,0,3,5,0,5,0,21,0,21,0,,,,,,,,,,,,,,,,,640.6226940000197,641.32210390002,641.32210390002,641.9051592000178,641.9215850000037,0.599222099990584,643.9200889000203,2.6141512999893166,None,1,increament,0.6,45,standard,None,100,,,,,,,m,21,234,fr,r,0,raw,2023-04-11_15h54.10.132,oddball,2022.2.5,59.886084686786994,
20,,,,,0,0,0,3,5,0,5,0,22,0,22,0,,,,,,,,,,,,,,,,,643.9366739999969,644.5196276999777,644.5196276999777,645.1190292999963,645.1190292999963,0.5990098000038415,647.1341385999694,2.613802499952726,None,1,increament,0.6,45,standard,None,100,,,,,,,m,21,234,fr,r,0,raw,2023-04-11_15h54.10.132,oddball,2022.2.5,59.886084686786994,
20,,,,,0,0,0,3,5,0,5,0,23,0,23,0,,,,,,,,,,,,,,,,,647.1341385999694,647.8336561999749,647.8336561999749,648.4331431000028,648.4331431000028,0.615440400026273,650.4481701999903,2.6303891999996267,None,1,increament,0.6,45,standard,None,100,,,,,,,m,21,234,fr,r,0,raw,2023-04-11_15h54.10.132,oddball,2022.2.5,59.886084686786994,
20,,,,,0,0,0,3,5,0,5,0,24,0,24,0,,,,,,,,,,,,,,,,,650.4646751999971,651.1308860999998,651.1308860999998,651.7304735999787,651.7304735999787,0.6157972000073642,653.7451858000131,2.630495899997186,None,1,increament,0.6,45,standard,None,100,,,,,,,m,21,234,fr,r,0,raw,2023-04-11_15h54.10.132,oddball,2022.2.5,59.886084686786994,
20,,,,,0,0,0,3,5,0,5,0,25,0,25,0,,,,,,,,,,,,,,,,,653.7619185000076,654.3614323000074,654.3614323000074,654.9610155000119,654.9610155000119,0.6155322000267915,656.9759951999877,2.630474300007336,j,0,increament,0.6,45,standard,None,100,0.5498318999889307,,,,,,m,21,234,fr,r,0,raw,2023-04-11_15h54.10.132,oddball,2022.2.5,59.886084686786994,
20,,,,,0,0,0,3,5,0,5,0,26,0,26,0,,,,,,,,,,,,,,,,,656.9931136000087,657.7255589999841,657.7255589999841,658.3249107999727,658.3249107999727,0.599021400033962,660.3400188999949,2.613948500016704,None,1,increament,0.6,45,standard,None,100,,,,,,,m,21,234,fr,r,0,raw,2023-04-11_15h54.10.132,oddball,2022.2.5,59.886084686786994,
20,,,,,0,0,0,3,5,0,5,0,27,0,27,0,,,,,,,,,,,,,,,,,660.3400188999949,660.9227761999937,660.9227761999937,661.5055940999882,661.5222805999801,0.6156095000333153,663.520756700018,2.630643100012094,None,1,increament,0.6,45,standard,None,100,,,,,,,m,21,234,fr,r,0,raw,2023-04-11_15h54.10.132,oddball,2022.2.5,59.886084686786994,
20,,,,,0,0,0,3,5,0,5,0,28,0,28,0,,,,,,,,,,,,,,,,,663.5538353999727,664.1368850999861,664.1368850999861,664.8529089000076,664.8695374999661,0.7322860999847762,666.8678320000181,2.7472094999975525,None,0,increament,0.72,46,oddball,j,120,,,,,,,m,21,234,fr,r,0,raw,2023-04-11_15h54.10.132,oddball,2022.2.5,59.886084686786994,
20,,,,,0,0,0,3,5,0,5,0,29,0,29,0,,,,,,,,,,,,,,,,,666.8846258000121,667.4176847999915,667.4176847999915,668.0001946999691,668.01700599998,0.6156852000276558,670.0154419000028,2.6306757000274956,None,1,increament,0.6,45,standard,None,100,,,,,,,m,21,234,fr,r,0,raw,2023-04-11_15h54.10.132,oddball,2022.2.5,59.886084686786994,
20,,,,,0,0,0,3,6,0,6,0,0,0,0,0,,,,,,,,,,,,,,,690.4319263999932,690.4319263999932,691.8141757000121,692.4803657999728,692.4803657999728,693.0794538999908,693.0794538999908,0.6153190999757499,695.094769999967,2.6306475999881513,None,1,decreament,0.6,41,standard,None,100,,670.0486550999922,0.0009755000355653465,,,,m,21,234,fr,r,0,raw,2023-04-11_15h54.10.132,oddball,2022.2.5,59.886084686786994,
20,,,,,0,0,0,3,6,0,6,0,1,0,1,0,,,,,,,,,,,,,,,,,695.1112820999697,695.7773402999737,695.7773402999737,696.3770178999985,696.3770178999985,0.6152790999622084,698.3919247000013,2.630181399988942,None,1,decreament,0.6,41,standard,None,100,,,,,,,m,21,234,fr,r,0,raw,2023-04-11_15h54.10.132,oddball,2022.2.5,59.886084686786994,
20,,,,,0,0,0,3,6,0,6,0,2,0,2,0,,,,,,,,,,,,,,,,,698.4086757000186,699.0083266000147,699.0083266000147,699.6076661999687,699.6076661999687,0.6153841000050306,701.6225282999803,2.630239700025413,None,1,decreament,0.6,41,standard,None,100,,,,,,,m,21,234,fr,r,0,raw,2023-04-11_15h54.10.132,oddball,2022.2.5,59.886084686786994,
20,,,,,0,0,0,3,6,0,6,0,3,0,3,0,,,,,,,,,,,,,,,,,701.6393513000221,702.2721022000187,702.2721022000187,702.8716548999655,702.8716548999655,0.6154643999761902,704.8865907000145,2.6304027999867685,None,1,decreament,0.6,41,standard,None,100,,,,,,,m,21,234,fr,r,0,raw,2023-04-11_15h54.10.132,oddball,2022.2.5,59.886084686786994,
20,,,,,0,0,0,3,6,0,6,0,4,0,4,0,,,,,,,,,,,,,,,,,704.9032461000024,705.5694550999906,705.5694550999906,706.152411499992,706.1687834999757,0.6152971999836154,708.1672673000139,2.6306276999530382,None,1,decreament,0.6,41,standard,None,100,,,,,,,m,21,234,fr,r,0,raw,2023-04-11_15h54.10.132,oddball,2022.2.5,59.886084686786994,
20,,,,,0,0,0,3,6,0,6,0,5,0,5,0,,,,,,,,,,,,,,,,,708.2005929999868,708.8501753999735,708.8501753999735,709.4496163000003,709.4496163000003,0.6155603000079282,711.464605199988,2.6305402999860235,None,1,decreament,0.6,41,standard,None,100,,,,,,,m,21,234,fr,r,0,raw,2023-04-11_15h54.10.132,oddball,2022.2.5,59.886084686786994,
20,,,,,0,0,0,3,6,0,6,0,6,0,6,0,,,,,,,,,,,,,,,,,711.4811681999709,712.1640133999754,712.1640133999754,712.7635047999793,712.7635047999793,0.6151799000217579,714.7786689000204,2.630334199988283,None,1,decreament,0.6,41,standard,None,100,,,,,,,m,21,234,fr,r,0,raw,2023-04-11_15h54.10.132,oddball,2022.2.5,59.886084686786994,
20,,,,,0,0,0,3,6,0,6,0,7,0,7,0,,,,,,,,,,,,,,,,,714.7952497000224,715.5115540999686,715.5115540999686,716.1108253999846,716.1108253999846,0.6154189999797381,718.1258010999882,2.6303804999915883,None,1,decreament,0.6,41,standard,None,100,,,,,,,m,21,234,fr,r,0,raw,2023-04-11_15h54.10.132,oddball,2022.2.5,59.886084686786994,
20,,,,,0,0,0,3,6,0,6,0,8,0,8,0,,,,,,,,,,,,,,,,,718.1425651999889,718.9084601000068,718.9084601000068,719.5079445000156,719.5079445000156,0.6152203000383452,721.5229990999796,2.630275600007735,None,1,decreament,0.6,41,standard,None,100,,,,,,,m,21,234,fr,r,0,raw,2023-04-11_15h54.10.132,oddball,2022.2.5,59.886084686786994,
20,,,,,0,0,0,3,6,0,6,0,9,0,9,0,,,,,,,,,,,,,,,,,721.539710299985,722.2557224999764,722.2557224999764,722.6054773000069,722.6220605999697,0.36546309996629134,724.6207021999871,2.3806839999742806,j,1,decreament,0.36,43,oddball,j,60,1.7733167000114918,,,,,,m,21,234,fr,r,0,raw,2023-04-11_15h54.10.132,oddball,2022.2.5,59.886084686786994,
20,,,,,0,0,0,3,6,0,6,0,10,0,10,0,,,,,,,,,,,,,,,,,724.6370763999876,725.1699592000223,725.1699592000223,725.7695531999925,725.7695531999925,0.6153696999535896,727.7845607000054,2.6303690999629907,None,1,decreament,0.6,41,standard,None,100,,,,,,,m,21,234,fr,r,0,raw,2023-04-11_15h54.10.132,oddball,2022.2.5,59.886084686786994,
20,,,,,0,0,0,3,6,0,6,0,11,0,11,0,,,,,,,,,,,,,,,,,727.8012605999829,728.5007535999757,728.5007535999757,729.1001332000014,729.1001332000014,0.6153974999906495,731.11511720001,2.630396099993959,None,1,decreament,0.6,41,standard,None,100,,,,,,,m,21,234,fr,r,0,raw,2023-04-11_15h54.10.132,oddball,2022.2.5,59.886084686786994,
20,,,,,0,0,0,3,6,0,6,0,12,0,12,0,,,,,,,,,,,,,,,,,731.13201880001,731.8478367999778,731.8478367999778,732.4477244999725,732.4477244999725,0.5991521999821998,734.462314000004,2.6137917999876663,None,1,decreament,0.6,41,standard,None,100,,,,,,,m,21,234,fr,r,0,raw,2023-04-11_15h54.10.132,oddball,2022.2.5,59.886084686786994,
20,,,,,0,0,0,3,6,0,6,0,13,0,13,0,,,,,,,,,,,,,,,,,734.462314000004,735.2450699000037,735.2450699000037,735.8445021000225,735.8445021000225,0.6150885000242852,737.8596969000064,2.630315500020515,None,1,decreament,0.6,41,standard,None,100,,,,,,,m,21,234,fr,r,0,raw,2023-04-11_15h54.10.132,oddball,2022.2.5,59.886084686786994,
20,,,,,0,0,0,3,6,0,6,0,14,0,14,0,,,,,,,,,,,,,,,,,737.8763894999865,738.60894559999,738.60894559999,739.20854219998,739.20854219998,0.615629900014028,741.223875799973,2.6309509000275284,None,1,decreament,0.6,41,standard,None,100,,,,,,,m,21,234,fr,r,0,raw,2023-04-11_15h54.10.132,oddball,2022.2.5,59.886084686786994,
20,,,,,0,0,0,3,6,0,6,0,15,0,15,0,,,,,,,,,,,,,,,,,741.2402928000083,741.9730151999975,741.9730151999975,742.4392531000194,742.4559541000053,0.48246069997549057,744.4544090999989,2.4976050999830477,None,0,decreament,0.48,44,oddball,j,80,,,,,,,m,21,234,fr,r,0,raw,2023-04-11_15h54.10.132,oddball,2022.2.5,59.886084686786994,
20,,,,,0,0,0,3,6,0,6,0,16,0,16,0,,,,,,,,,,,,,,,,,744.4708987000049,745.2202819999657,745.2202819999657,745.8202881999896,745.8202881999896,0.6158396999817342,747.8347539000097,2.6303317000274546,None,1,decreament,0.6,41,standard,None,100,,,,,,,m,21,234,fr,r,0,raw,2023-04-11_15h54.10.132,oddball,2022.2.5,59.886084686786994,
20,,,,,0,0,0,3,6,0,6,0,17,0,17,0,,,,,,,,,,,,,,,,,747.851478800003,748.650917699968,748.650917699968,749.2506400999846,749.2506400999846,0.61575769999763,751.2655091999914,2.6306158999796025,None,1,decreament,0.6,41,standard,None,100,,,,,,,m,21,234,fr,r,0,raw,2023-04-11_15h54.10.132,oddball,2022.2.5,59.886084686786994,
20,,,,,0,0,0,3,6,0,6,0,18,0,18,0,,,,,,,,,,,,,,,,,751.2818256000173,751.9481132000219,751.9481132000219,752.5476223999867,752.5476223999867,0.6155213000020012,754.5626014000154,2.6304921999690123,None,1,decreament,0.6,41,standard,None,100,,,,,,,m,21,234,fr,r,0,raw,2023-04-11_15h54.10.132,oddball,2022.2.5,59.886084686786994,
20,,,,,0,0,0,3,6,0,6,0,19,0,19,0,,,,,,,,,,,,,,,,,754.5792492000037,755.1953879999928,755.1953879999928,755.794968799979,755.794968799979,0.6155474000261165,757.8099291999824,2.630497300007846,None,1,decreament,0.6,41,standard,None,100,,,,,,,m,21,234,fr,r,0,raw,2023-04-11_15h54.10.132,oddball,2022.2.5,59.886084686786994,
20,,,,,0,0,0,3,6,0,6,0,20,0,20,0,,,,,,,,,,,,,,,,,757.826522999967,758.4926095000119,758.4926095000119,759.0922034999821,759.0922034999821,0.6155576000455767,761.1072832000209,2.630646500037983,None,1,decreament,0.6,41,standard,None,100,,,,,,,m,21,234,fr,r,0,raw,2023-04-11_15h54.10.132,oddball,2022.2.5,59.886084686786994,
20,,,,,0,0,0,3,6,0,6,0,21,0,21,0,,,,,,,,,,,,,,,,,761.1237171000103,761.7399785000016,761.7399785000016,762.3395410999656,762.3395410999656,0.6152978999889456,764.3548335999949,2.630569499975536,None,1,decreament,0.6,41,standard,None,100,,,,,,,m,21,234,fr,r,0,raw,2023-04-11_15h54.10.132,oddball,2022.2.5,59.886084686786994,
20,,,,,0,0,0,3,6,0,6,0,22,0,22,0,,,,,,,,,,,,,,,,,764.371169799997,765.0873676000047,765.0873676000047,765.6701923999935,765.686839299975,0.5991016000043601,767.6851233000052,2.6140264000277966,None,1,decreament,0.6,41,standard,None,100,,,,,,,m,21,234,fr,r,0,raw,2023-04-11_15h54.10.132,oddball,2022.2.5,59.886084686786994,
20,,,,,0,0,0,3,6,0,6,0,23,0,23,0,,,,,,,,,,,,,,,,,767.7018065999728,768.4513289000024,768.4513289000024,769.050792999973,769.050792999973,0.6155476000276394,771.0657576000085,2.630482900014613,None,1,decreament,0.6,41,standard,None,100,,,,,,,m,21,234,fr,r,0,raw,2023-04-11_15h54.10.132,oddball,2022.2.5,59.886084686786994,
20,,,,,0,0,0,3,6,0,6,0,24,0,24,0,,,,,,,,,,,,,,,,,771.0822493999731,771.7151354000089,771.7151354000089,772.3145833999733,772.3145833999733,0.6149825999746099,774.3297300999984,2.6301166999619454,None,1,decreament,0.6,41,standard,None,100,,,,,,,m,21,234,fr,r,0,raw,2023-04-11_15h54.10.132,oddball,2022.2.5,59.886084686786994,
20,,,,,0,0,0,3,6,0,6,0,25,0,25,0,,,,,,,,,,,,,,,,,774.3463062000228,774.9291973999934,774.9291973999934,775.5287333999877,775.5287333999877,0.6154559999704361,777.543732399994,2.6304533999646083,None,1,decreament,0.6,41,standard,None,100,,,,,,,m,21,234,fr,r,0,raw,2023-04-11_15h54.10.132,oddball,2022.2.5,59.886084686786994,
20,,,,,0,0,0,3,6,0,6,0,26,0,26,0,,,,,,,,,,,,,,,,,777.5602851000149,778.1930953999981,778.1930953999981,778.7926223999821,778.7926223999821,0.6154033999773674,780.8075979999849,2.630373599997256,None,1,decreament,0.6,41,standard,None,100,,,,,,,m,21,234,fr,r,0,raw,2023-04-11_15h54.10.132,oddball,2022.2.5,59.886084686786994,
20,,,,,0,0,0,3,6,0,6,0,27,0,27,0,,,,,,,,,,,,,,,,,780.8243116000085,781.3906419000123,781.3906419000123,781.9901013000053,781.9901013000053,0.5990017000003718,784.0048720000195,2.614093700016383,None,1,decreament,0.6,41,standard,None,100,,,,,,,m,21,234,fr,r,0,raw,2023-04-11_15h54.10.132,oddball,2022.2.5,59.886084686786994,
20,,,,,0,0,0,3,6,0,6,0,28,0,28,0,,,,,,,,,,,,,,,,,784.0048720000195,784.5214547999785,784.5214547999785,784.754276200023,784.7711224000086,0.24895450001349673,786.769509900012,2.2642166999867186,j,1,decreament,0.24,42,oddball,j,40,0.6710333999944851,,,,,,m,21,234,fr,r,0,raw,2023-04-11_15h54.10.132,oddball,2022.2.5,59.886084686786994,
20,,,,,0,0,0,3,6,0,6,0,29,0,29,0,,,,,,,,,,,,,,,,,786.7861558999866,787.3857198000187,787.3857198000187,787.9851998999948,787.9851998999948,0.6154183000326157,790.0001717999694,2.6303826000075787,None,1,decreament,0.6,41,standard,None,100,,,,,,,m,21,234,fr,r,0,raw,2023-04-11_15h54.10.132,oddball,2022.2.5,59.886084686786994,
20,,,,,0,0,0,3,7,0,7,0,0,0,0,0,,,,,,,,,,,,,,,791.1117216999992,791.1117216999992,792.6646605000133,793.2974809000152,793.2974809000152,793.8968753999798,793.8968753999798,0.615417700028047,795.9119123999844,2.6304452000185847,None,1,increament,0.6,45,standard,None,100,,790.0168283999665,0.0008371999720111489,,,,m,21,234,fr,r,0,raw,2023-04-11_15h54.10.132,oddball,2022.2.5,59.886084686786994,
20,,,,,0,0,0,3,7,0,7,0,1,0,1,0,,,,,,,,,,,,,,,,,795.9285778999911,796.5281262000208,796.5281262000208,797.1276406999677,797.1276406999677,0.6154278999892995,799.1425456000143,2.6303151000174694,None,1,increament,0.6,45,standard,None,100,,,,,,,m,21,234,fr,r,0,raw,2023-04-11_15h54.10.132,oddball,2022.2.5,59.886084686786994,
20,,,,,0,0,0,3,7,0,7,0,2,0,2,0,,,,,,,,,,,,,,,,,799.1593074999982,799.9587850999669,799.9587850999669,800.5582014999818,800.5582014999818,0.6155050999950618,802.5732836999814,2.6305938999867067,None,1,increament,0.6,45,standard,None,100,,,,,,,m,21,234,fr,r,0,raw,2023-04-11_15h54.10.132,oddball,2022.2.5,59.886084686786994,
20,,,,,0,0,0,3,7,0,7,0,3,0,3,0,,,,,,,,,,,,,,,,,802.5898248999729,803.239267099998,803.239267099998,803.8386210000026,803.8386210000026,0.5991679000435397,805.8537504000124,2.6138825000380166,None,1,increament,0.6,45,standard,None,100,,,,,,,m,21,234,fr,r,0,raw,2023-04-11_15h54.10.132,oddball,2022.2.5,59.886084686786994,
20,,,,,0,0,0,3,7,0,7,0,4,0,4,0,,,,,,,,,,,,,,,,,805.8537504000124,806.4533440999803,806.4533440999803,807.0528356999857,807.0528356999857,0.6154509999905713,809.0679930999759,2.6306015999871306,None,1,increament,0.6,45,standard,None,100,,,,,,,m,21,234,fr,r,0,raw,2023-04-11_15h54.10.132,oddball,2022.2.5,59.886084686786994,
20,,,,,0,0,0,3,7,0,7,0,5,0,5,0,,,,,,,,,,,,,,,,,809.0843832999817,809.6007869999739,809.6007869999739,810.2002535000211,810.2002535000211,0.6155375000089407,812.2152178999968,2.630507099966053,None,1,increament,0.6,45,standard,None,100,,,,,,,m,21,234,fr,r,0,raw,2023-04-11_15h54.10.132,oddball,2022.2.5,59.886084686786994,
20,,,,,0,0,0,3,7,0,7,0,6,0,6,0,,,,,,,,,,,,,,,,,812.2319684000104,812.9812122000149,812.9812122000149,813.5807563000126,813.5807563000126,0.6153330000233836,815.595882499998,2.6304537000251003,j,0,increament,0.6,45,standard,None,100,0.43110279995016754,,,,,,m,21,234,fr,r,0,raw,2023-04-11_15h54.10.132,oddball,2022.2.5,59.886084686786994,
20,,,,,0,0,0,3,7,0,7,0,7,0,7,0,,,,,,,,,,,,,,,,,815.6123916999786,816.3284044999746,816.3284044999746,816.9280307000154,816.9280307000154,0.6153735000407323,818.9430873999954,2.6304272999987006,None,1,increament,0.6,45,standard,None,100,,,,,,,m,21,234,fr,r,0,raw,2023-04-11_15h54.10.132,oddball,2022.2.5,59.886084686786994,
20,,,,,0,0,0,3,7,0,7,0,8,0,8,0,,,,,,,,,,,,,,,,,818.9597846000106,819.5260700000217,819.5260700000217,820.1253561999765,820.1253561999765,0.6152794000227004,822.140400299977,2.6303190999897197,None,1,increament,0.6,45,standard,None,100,,,,,,,m,21,234,fr,r,0,raw,2023-04-11_15h54.10.132,oddball,2022.2.5,59.886084686786994,
20,,,,,0,0,0,3,7,0,7,0,9,0,9,0,,,,,,,,,,,,,,,,,822.157153600012,822.7066178999958,822.7066178999958,823.3061749999761,823.3061749999761,0.6156041999929585,825.3211240000091,2.630551000009291,None,1,increament,0.6,45,standard,None,100,,,,,,,m,21,234,fr,r,0,raw,2023-04-11_15h54.10.132,oddball,2022.2.5,59.886084686786994,
20,,,,,0,0,0,3,7,0,7,0,10,0,10,0,,,,,,,,,,,,,,,,,825.3377902000211,825.9039237999823,825.9039237999823,826.8532400999684,826.8697145999759,0.9654050000244752,828.8683296999661,2.98050260002492,None,0,increament,0.96,48,oddball,j,160,,,,,,,m,21,234,fr,r,0,raw,2023-04-11_15h54.10.132,oddball,2022.2.5,59.886084686786994,
20,,,,,0,0,0,3,7,0,7,0,11,0,11,0,,,,,,,,,,,,,,,,,828.8848576999735,829.451411099988,829.451411099988,830.0506351999938,830.0506351999938,0.6151960999704897,832.0655839999672,2.6301236000144854,None,1,increament,0.6,45,standard,None,100,,,,,,,m,21,234,fr,r,0,raw,2023-04-11_15h54.10.132,oddball,2022.2.5,59.886084686786994,
20,,,,,0,0,0,3,7,0,7,0,12,0,12,0,,,,,,,,,,,,,,,,,832.0822690000059,832.6984777000034,832.6984777000034,833.2979639999685,833.2979639999685,0.615609799977392,835.3127978999983,2.6304259999888018,None,1,increament,0.6,45,standard,None,100,,,,,,,m,21,234,fr,r,0,raw,2023-04-11_15h54.10.132,oddball,2022.2.5,59.886084686786994,
20,,,,,0,0,0,3,7,0,7,0,13,0,13,0,,,,,,,,,,,,,,,,,835.3296483000158,836.0289627999882,836.0289627999882,836.6284208999714,836.6284208999714,0.6153882999788038,838.6436614000122,2.6306400999892503,None,1,increament,0.6,45,standard,None,100,,,,,,,m,21,234,fr,r,0,raw,2023-04-11_15h54.10.132,oddball,2022.2.5,59.886084686786994,
20,,,,,0,0,0,3,7,0,7,0,14,0,14,0,,,,,,,,,,,,,,,,,838.6601566000027,839.3595562999835,839.3595562999835,839.9590140000219,839.9590140000219,0.5990021000034176,841.974394400022,2.6140350999776274,None,1,increament,0.6,45,standard,None,100,,,,,,,m,21,234,fr,r,0,raw,2023-04-11_15h54.10.132,oddball,2022.2.5,59.886084686786994,
20,,,,,0,0,0,3,7,0,7,0,15,0,15,0,,,,,,,,,,,,,,,,,841.974394400022,842.5236856999691,842.5236856999691,843.3563760999823,843.3729913000134,0.8488292999682017,845.3714403000195,2.8638651999644935,None,0,increament,0.84,47,oddball,j,140,,,,,,,m,21,234,fr,r,0,raw,2023-04-11_15h54.10.132,oddball,2022.2.5,59.886084686786994,
20,,,,,0,0,0,3,7,0,7,0,16,0,16,0,,,,,,,,,,,,,,,,,845.3878494999954,846.1705004000105,846.1705004000105,846.7534569000127,846.7701936999802,0.6156948999851011,848.7684066999936,2.6308187000104226,None,1,increament,0.6,45,standard,None,100,,,,,,,m,21,234,fr,r,0,raw,2023-04-11_15h54.10.132,oddball,2022.2.5,59.886084686786994,
20,,,,,0,0,0,3,7,0,7,0,17,0,17,0,,,,,,,,,,,,,,,,,848.8017868999741,849.4346865999978,849.4346865999978,850.0342683999916,850.0342683999916,0.6149760999833234,852.0491029999685,2.6297898999764584,None,1,increament,0.6,45,standard,None,100,,,,,,,m,21,234,fr,r,0,raw,2023-04-11_15h54.10.132,oddball,2022.2.5,59.886084686786994,
20,,,,,0,0,0,3,7,0,7,0,18,0,18,0,,,,,,,,,,,,,,,,,852.0658821999677,852.7985920999781,852.7985920999781,853.3980805000174,853.3980805000174,0.6157022999832407,855.4130678999936,2.630673699954059,None,1,increament,0.6,45,standard,None,100,,,,,,,m,21,234,fr,r,0,raw,2023-04-11_15h54.10.132,oddball,2022.2.5,59.886084686786994,
20,,,,,0,0,0,3,7,0,7,0,19,0,19,0,,,,,,,,,,,,,,,,,855.4296529999701,856.0625557000167,856.0625557000167,856.6454605999752,856.6620560999727,0.5990849999943748,858.6604800000205,2.614093599957414,None,1,increament,0.6,45,standard,None,100,,,,,,,m,21,234,fr,r,0,raw,2023-04-11_15h54.10.132,oddball,2022.2.5,59.886084686786994,
20,,,,,0,0,0,3,7,0,7,0,20,0,20,0,,,,,,,,,,,,,,,,,858.6772333999979,859.3932411000133,859.3932411000133,859.9761032999959,859.9928106999723,0.615571899979841,861.9910934999934,2.6306251999922097,None,1,increament,0.6,45,standard,None,100,,,,,,,m,21,234,fr,r,0,raw,2023-04-11_15h54.10.132,oddball,2022.2.5,59.886084686786994,
20,,,,,0,0,0,3,7,0,7,0,21,0,21,0,,,,,,,,,,,,,,,,,862.024389499973,862.7571541999932,862.7571541999932,863.3398766000173,863.3566109999665,0.5991138000390492,865.3550293999724,2.614277000015136,None,1,increament,0.6,45,standard,None,100,,,,,,,m,21,234,fr,r,0,raw,2023-04-11_15h54.10.132,oddball,2022.2.5,59.886084686786994,
20,,,,,0,0,0,3,7,0,7,0,22,0,22,0,,,,,,,,,,,,,,,,,865.3715938999667,866.0044567000004,866.0044567000004,866.6042127999826,866.6042127999826,0.6156772000249475,868.6188857000088,2.630334000044968,None,1,increament,0.6,45,standard,None,100,,,,,,,m,21,234,fr,r,0,raw,2023-04-11_15h54.10.132,oddball,2022.2.5,59.886084686786994,
20,,,,,0,0,0,3,7,0,7,0,23,0,23,0,,,,,,,,,,,,,,,,,868.6356378999772,869.1685921999742,869.1685921999742,869.7680732000154,869.7680732000154,0.6155258999788202,871.7830364999827,2.6304637999855913,None,1,increament,0.6,45,standard,None,100,,,,,,,m,21,234,fr,r,0,raw,2023-04-11_15h54.10.132,oddball,2022.2.5,59.886084686786994,
20,,,,,0,0,0,3,7,0,7,0,24,0,24,0,,,,,,,,,,,,,,,,,871.7995801999932,872.4160800999962,872.4160800999962,873.0153582000057,873.0153582000057,0.6154690000112168,875.0303033000091,2.630386000033468,None,1,increament,0.6,45,standard,None,100,,,,,,,m,21,234,fr,r,0,raw,2023-04-11_15h54.10.132,oddball,2022.2.5,59.886084686786994,
20,,,,,0,0,0,3,7,0,7,0,25,0,25,0,,,,,,,,,,,,,,,,,875.0469530000119,875.6631764000049,875.6631764000049,876.2627128000022,876.2627128000022,0.5990810999646783,878.2776233999757,2.613989199977368,None,1,increament,0.6,45,standard,None,100,,,,,,,m,21,234,fr,r,0,raw,2023-04-11_15h54.10.132,oddball,2022.2.5,59.886084686786994,
20,,,,,0,0,0,3,7,0,7,0,26,0,26,0,,,,,,,,,,,,,,,,,878.2776233999757,878.8440188000095,878.8440188000095,879.4434182000114,879.4434182000114,0.61575510003604,881.4584385000053,2.630794299999252,None,1,increament,0.6,45,standard,None,100,,,,,,,m,21,234,fr,r,0,raw,2023-04-11_15h54.10.132,oddball,2022.2.5,59.886084686786994,
20,,,,,0,0,0,3,7,0,7,0,27,0,27,0,,,,,,,,,,,,,,,,,881.4749379999703,882.0911431999994,882.0911431999994,882.6907849999843,882.6907849999843,0.6156168000306934,884.7057578999666,2.6305638999911025,None,1,increament,0.6,45,standard,None,100,,,,,,,m,21,234,fr,r,0,raw,2023-04-11_15h54.10.132,oddball,2022.2.5,59.886084686786994,
20,,,,,0,0,0,3,7,0,7,0,28,0,28,0,,,,,,,,,,,,,,,,,884.7224098999868,885.3551226999843,885.3551226999843,886.0712172000203,886.0878230999806,0.7323196000070311,888.086280699994,2.7474044999689795,None,0,increament,0.72,46,oddball,j,120,,,,,,,m,21,234,fr,r,0,raw,2023-04-11_15h54.10.132,oddball,2022.2.5,59.886084686786994,
20,,,,,0,0,0,3,7,0,7,0,29,0,29,0,,,,,,,,,,,,,,,,,888.1028260000166,888.885732499999,888.885732499999,889.4851687999908,889.4851687999908,0.6156173000345007,891.5001574999769,2.6306280000135303,None,1,increament,0.6,45,standard,None,100,,,,,,,m,21,234,fr,r,0,raw,2023-04-11_15h54.10.132,oddball,2022.2.5,59.886084686786994,
20,,,,,0,0,0,3,8,0,8,0,0,0,0,0,,,,,,,,,,,,,,,892.8490426000208,892.8490426000208,895.8298585999873,896.3461687000236,896.3461687000236,896.945566200011,896.945566200011,0.6156073999591172,898.9606050999719,2.6306435999576934,None,1,decreament,0.6,41,standard,None,100,,891.5167803000077,0.0008374999742954969,,,,m,21,234,fr,r,0,raw,2023-04-11_15h54.10.132,oddball,2022.2.5,59.886084686786994,
20,,,,,0,0,0,3,8,0,8,0,1,0,1,0,,,,,,,,,,,,,,,,,898.9772142000147,899.5770317999995,899.5770317999995,900.1762638000073,900.1762638000073,0.6150008999975398,902.1914288999978,2.6301748999976553,None,1,decreament,0.6,41,standard,None,100,,,,,,,m,21,234,fr,r,0,raw,2023-04-11_15h54.10.132,oddball,2022.2.5,59.886084686786994,
20,,,,,0,0,0,3,8,0,8,0,2,0,2,0,,,,,,,,,,,,,,,,,902.2079625999904,902.974146499997,902.974146499997,903.5735646999674,903.5735646999674,0.61537179996958,905.588620399998,2.63042519998271,None,1,decreament,0.6,41,standard,None,100,,,,,,,m,21,234,fr,r,0,raw,2023-04-11_15h54.10.132,oddball,2022.2.5,59.886084686786994,
20,,,,,0,0,0,3,8,0,8,0,3,0,3,0,,,,,,,,,,,,,,,,,905.605178400001,906.1714556000079,906.1714556000079,906.7709764000028,906.7709764000028,0.6154416000354104,908.7858182999771,2.630282600002829,None,1,decreament,0.6,41,standard,None,100,,,,,,,m,21,234,fr,r,0,raw,2023-04-11_15h54.10.132,oddball,2022.2.5,59.886084686786994,
20,,,,,0,0,0,3,8,0,8,0,4,0,4,0,,,,,,,,,,,,,,,,,908.8025310999947,909.3688765999977,909.3688765999977,909.9684434999945,909.9684434999945,0.5991126999724656,911.9832943999791,2.614093700016383,None,1,decreament,0.6,41,standard,None,100,,,,,,,m,21,234,fr,r,0,raw,2023-04-11_15h54.10.132,oddball,2022.2.5,59.886084686786994,
20,,,,,0,0,0,3,8,0,8,0,5,0,5,0,,,,,,,,,,,,,,,,,911.9832943999791,912.6161463999888,912.6161463999888,913.1990228000213,913.2157619000063,0.5990213999757543,915.2140063999686,2.6139883999712765,None,1,decreament,0.6,41,standard,None,100,,,,,,,m,21,234,fr,r,0,raw,2023-04-11_15h54.10.132,oddball,2022.2.5,59.886084686786994,
20,,,,,0,0,0,3,8,0,8,0,6,0,6,0,,,,,,,,,,,,,,,,,915.2306586999912,915.8801272999845,915.8801272999845,916.1133831000188,916.1300552000175,0.249284399964381,918.1281446000212,2.264017099980265,None,0,decreament,0.24,42,oddball,j,40,,,,,,,m,21,234,fr,r,0,raw,2023-04-11_15h54.10.132,oddball,2022.2.5,59.886084686786994,
20,,,,,0,0,0,3,8,0,8,0,7,0,7,0,,,,,,,,,,,,,,,,,918.1448050999898,918.7611141999951,918.7611141999951,919.3604223000002,919.3604223000002,0.6154220000025816,921.3755071000196,2.630512000003364,None,1,decreament,0.6,41,standard,None,100,,,,,,,m,21,234,fr,r,0,raw,2023-04-11_15h54.10.132,oddball,2022.2.5,59.886084686786994,
20,,,,,0,0,0,3,8,0,8,0,8,0,8,0,,,,,,,,,,,,,,,,,921.3920655999682,922.0750658999896,922.0750658999896,922.6744932999718,922.6744932999718,0.6154496000381187,924.6895865999977,2.630555700045079,None,1,decreament,0.6,41,standard,None,100,,,,,,,m,21,234,fr,r,0,raw,2023-04-11_15h54.10.132,oddball,2022.2.5,59.886084686786994,
20,,,,,0,0,0,3,8,0,8,0,9,0,9,0,,,,,,,,,,,,,,,,,924.7061182999751,925.3887345999829,925.3887345999829,925.9884326999891,925.9884326999891,0.6151177000137977,928.0035321000032,2.6301955999806523,None,1,decreament,0.6,41,standard,None,100,,,,,,,m,21,234,fr,r,0,raw,2023-04-11_15h54.10.132,oddball,2022.2.5,59.886084686786994,
20,,,,,0,0,0,3,8,0,8,0,10,0,10,0,,,,,,,,,,,,,,,,,928.0201776999747,928.7029465999804,928.7029465999804,929.1692987999995,929.1857193000033,0.4822934999829158,931.1840176999685,2.496994999994058,None,0,decreament,0.48,44,oddball,j,80,,,,,,,m,21,234,fr,r,0,raw,2023-04-11_15h54.10.132,oddball,2022.2.5,59.886084686786994,
20,,,,,0,0,0,3,8,0,8,0,11,0,11,0,,,,,,,,,,,,,,,,,931.2009270999697,931.9335504000192,931.9335504000192,932.5164363000076,932.5331646999693,0.5990103000076488,934.531503700011,2.614075799996499,None,1,decreament,0.6,41,standard,None,100,,,,,,,m,21,234,fr,r,0,raw,2023-04-11_15h54.10.132,oddball,2022.2.5,59.886084686786994,
20,,,,,0,0,0,3,8,0,8,0,12,0,12,0,,,,,,,,,,,,,,,,,934.5481471999665,935.1809833999723,935.1809833999723,935.7803480000002,935.7803480000002,0.6154062999994494,937.7953823999851,2.6304454999626614,None,1,decreament,0.6,41,standard,None,100,,,,,,,m,21,234,fr,r,0,raw,2023-04-11_15h54.10.132,oddball,2022.2.5,59.886084686786994,
20,,,,,0,0,0,3,8,0,8,0,13,0,13,0,,,,,,,,,,,,,,,,,937.8121056999662,938.6280740000075,938.6280740000075,939.2276436999673,939.2276436999673,0.615393000014592,941.2426645000232,2.630397000000812,None,1,decreament,0.6,41,standard,None,100,,,,,,,m,21,234,fr,r,0,raw,2023-04-11_15h54.10.132,oddball,2022.2.5,59.886084686786994,
20,,,,,0,0,0,3,8,0,8,0,14,0,14,0,,,,,,,,,,,,,,,,,941.259206000017,941.9919897000073,941.9919897000073,942.5915824999684,942.5915824999684,0.59902800002601,944.6066309000016,2.613985000003595,None,1,decreament,0.6,41,standard,None,100,,,,,,,m,21,234,fr,r,0,raw,2023-04-11_15h54.10.132,oddball,2022.2.5,59.886084686786994,
20,,,,,0,0,0,3,8,0,8,0,15,0,15,0,,,,,,,,,,,,,,,,,944.6066309000016,945.1727097000112,945.1727097000112,945.7720123999752,945.7720123999752,0.6151471000048332,947.787160900014,2.630277600022964,None,1,decreament,0.6,41,standard,None,100,,,,,,,m,21,234,fr,r,0,raw,2023-04-11_15h54.10.132,oddball,2022.2.5,59.886084686786994,
20,,,,,0,0,0,3,8,0,8,0,16,0,16,0,,,,,,,,,,,,,,,,,947.8038357999758,948.5033380999812,948.5033380999812,949.1027911999845,949.1027911999845,0.6151298999902792,951.1179092999664,2.6302588999969885,None,1,decreament,0.6,41,standard,None,100,,,,,,,m,21,234,fr,r,0,raw,2023-04-11_15h54.10.132,oddball,2022.2.5,59.886084686786994,
20,,,,,0,0,0,3,8,0,8,0,17,0,17,0,,,,,,,,,,,,,,,,,951.1345338000101,951.8172479000059,951.8172479000059,952.4167636000202,952.4167636000202,0.6155994000146165,954.4320667000138,2.630889800027944,None,1,decreament,0.6,41,standard,None,100,,,,,,,m,21,234,fr,r,0,raw,2023-04-11_15h54.10.132,oddball,2022.2.5,59.886084686786994,
20,,,,,0,0,0,3,8,0,8,0,18,0,18,0,,,,,,,,,,,,,,,,,954.4483333000098,955.1146952999989,955.1146952999989,955.7139216000214,955.7139216000214,0.6152985999942757,957.729216000007,2.6305863999878056,None,1,decreament,0.6,41,standard,None,100,,,,,,,m,21,234,fr,r,0,raw,2023-04-11_15h54.10.132,oddball,2022.2.5,59.886084686786994,
20,,,,,0,0,0,3,8,0,8,0,19,0,19,0,,,,,,,,,,,,,,,,,957.7460127000231,958.3285844000056,958.3285844000056,958.9113544999855,958.9281727999914,0.5992105000186712,960.926452899992,2.6143142000073567,None,1,decreament,0.6,41,standard,None,100,,,,,,,m,21,234,fr,r,0,raw,2023-04-11_15h54.10.132,oddball,2022.2.5,59.886084686786994,
20,,,,,0,0,0,3,8,0,8,0,20,0,20,0,,,,,,,,,,,,,,,,,960.9431010999833,961.5427526999847,961.5427526999847,962.1422028999659,962.1422028999659,0.599143500032369,964.1569316000096,2.6140365000464953,None,1,decreament,0.6,41,standard,None,100,,,,,,,m,21,234,fr,r,0,raw,2023-04-11_15h54.10.132,oddball,2022.2.5,59.886084686786994,
20,,,,,0,0,0,3,8,0,8,0,21,0,21,0,,,,,,,,,,,,,,,,,964.1569316000096,964.7234063000069,964.7234063000069,965.3227021999774,965.3227021999774,0.6153763000038452,967.3377981000231,2.630474100005813,None,1,decreament,0.6,41,standard,None,100,,,,,,,m,21,234,fr,r,0,raw,2023-04-11_15h54.10.132,oddball,2022.2.5,59.886084686786994,
20,,,,,0,0,0,3,8,0,8,0,22,0,22,0,,,,,,,,,,,,,,,,,967.3547108999919,967.9372231999878,967.9372231999878,968.5368885999778,968.5368885999778,0.6153373999986798,970.5517657999881,2.6302012999658473,None,1,decreament,0.6,41,standard,None,100,,,,,,,m,21,234,fr,r,0,raw,2023-04-11_15h54.10.132,oddball,2022.2.5,59.886084686786994,
20,,,,,0,0,0,3,8,0,8,0,23,0,23,0,,,,,,,,,,,,,,,,,970.5685759999906,971.3179663000046,971.3179663000046,971.9174196000095,971.9174196000095,0.5990243999985978,973.9325939000119,2.6139876000233926,None,1,decreament,0.6,41,standard,None,100,,,,,,,m,21,234,fr,r,0,raw,2023-04-11_15h54.10.132,oddball,2022.2.5,59.886084686786994,
20,,,,,0,0,0,3,8,0,8,0,24,0,24,0,,,,,,,,,,,,,,,,,973.9325939000119,974.4485561000183,974.4485561000183,974.7983111999929,974.8150752999936,0.36566229996969923,976.8135705000022,2.3809283999726176,None,0,decreament,0.36,43,oddball,j,60,,,,,,,m,21,234,fr,r,0,raw,2023-04-11_15h54.10.132,oddball,2022.2.5,59.886084686786994,
20,,,,,0,0,0,3,8,0,8,0,25,0,25,0,,,,,,,,,,,,,,,,,976.8301120999968,977.6125811999664,977.6125811999664,978.2122993000085,978.2122993000085,0.6155291000031866,980.2273177999887,2.6305269000004046,None,1,decreament,0.6,41,standard,None,100,,,,,,,m,21,234,fr,r,0,raw,2023-04-11_15h54.10.132,oddball,2022.2.5,59.886084686786994,
20,,,,,0,0,0,3,8,0,8,0,26,0,26,0,,,,,,,,,,,,,,,,,980.2439009000082,980.9433661000221,980.9433661000221,981.5427434999729,981.5427434999729,0.6152201000368223,983.5577869999688,2.630259500001557,None,1,decreament,0.6,41,standard,None,100,,,,,,,m,21,234,fr,r,0,raw,2023-04-11_15h54.10.132,oddball,2022.2.5,59.886084686786994,
20,,,,,0,0,0,3,8,0,8,0,27,0,27,0,,,,,,,,,,,,,,,,,983.5745641000103,984.273998300021,984.273998300021,984.8735028000083,984.8735028000083,0.6156003999640234,986.8885139999911,2.630605200014543,j,0,decreament,0.6,41,standard,None,100,0.9291554999654181,,,,,,m,21,234,fr,r,0,raw,2023-04-11_15h54.10.132,oddball,2022.2.5,59.886084686786994,
20,,,,,0,0,0,3,8,0,8,0,28,0,28,0,,,,,,,,,,,,,,,,,986.9050985000213,987.7045699000009,987.7045699000009,988.3037756999838,988.3037756999838,0.615199499996379,990.3190736999968,2.6304939999827184,None,1,decreament,0.6,41,standard,None,100,,,,,,,m,21,234,fr,r,0,raw,2023-04-11_15h54.10.132,oddball,2022.2.5,59.886084686786994,
20,,,,,0,0,0,3,8,0,8,0,29,0,29,0,,,,,,,,,,,,,,,,,990.3355634000036,990.9684182999772,990.9684182999772,991.5679421999957,991.5679421999957,0.6156392999691889,993.5828222999698,2.6305061999592,None,1,decreament,0.6,41,standard,None,100,,,,,,,m,21,234,fr,r,0,raw,2023-04-11_15h54.10.132,oddball,2022.2.5,59.886084686786994,
20,,,,,0,0,0,3,9,0,9,0,0,0,0,0,,,,,,,,,,,,,,,994.299078400014,994.299078400014,995.2814667000202,995.8975990000181,995.8975990000181,996.4971271000104,996.4971271000104,0.6154543000156991,998.5122529999935,2.630593099980615,None,1,increament,0.6,45,standard,None,100,,993.5996778999688,0.0007374999695457518,,,,m,21,234,fr,r,0,raw,2023-04-11_15h54.10.132,oddball,2022.2.5,59.886084686786994,
20,,,,,0,0,0,3,9,0,9,0,1,0,1,0,,,,,,,,,,,,,,,,,998.5288042000029,999.2617056000163,999.2617056000163,999.8611033000052,999.8611033000052,0.6152846000040881,1001.8760707000038,2.6302502999897115,None,1,increament,0.6,45,standard,None,100,,,,,,,m,21,234,fr,r,0,raw,2023-04-11_15h54.10.132,oddball,2022.2.5,59.886084686786994,
20,,,,,0,0,0,3,9,0,9,0,2,0,2,0,,,,,,,,,,,,,,,,,1001.892842900008,1002.5094096999965,1002.5094096999965,1003.108612400014,1003.108612400014,0.6153789000236429,1005.1234556999989,2.6302268999861553,None,1,increament,0.6,45,standard,None,100,,,,,,,m,21,234,fr,r,0,raw,2023-04-11_15h54.10.132,oddball,2022.2.5,59.886084686786994,
20,,,,,0,0,0,3,9,0,9,0,3,0,3,0,,,,,,,,,,,,,,,,,1005.1401254999801,1005.7728453999734,1005.7728453999734,1006.3726766000036,1006.3726766000036,0.6155007000197656,1008.3876995000173,2.630504700005986,None,1,increament,0.6,45,standard,None,100,,,,,,,m,21,234,fr,r,0,raw,2023-04-11_15h54.10.132,oddball,2022.2.5,59.886084686786994,
20,,,,,0,0,0,3,9,0,9,0,4,0,4,0,,,,,,,,,,,,,,,,,1008.4041060999734,1008.936958700011,1008.936958700011,1009.5366266000201,1009.5366266000201,0.6155143000069074,1011.5515335000237,2.6304363000090234,None,1,increament,0.6,45,standard,None,100,,,,,,,m,21,234,fr,r,0,raw,2023-04-11_15h54.10.132,oddball,2022.2.5,59.886084686786994,
20,,,,,0,0,0,3,9,0,9,0,5,0,5,0,,,,,,,,,,,,,,,,,1011.5681010999833,1012.2675562999793,1012.2675562999793,1012.8669966000016,1012.8669966000016,0.5991187999607064,1014.8820972999674,2.6140632999595255,None,1,increament,0.6,45,standard,None,100,,,,,,,m,21,234,fr,r,0,raw,2023-04-11_15h54.10.132,oddball,2022.2.5,59.886084686786994,
20,,,,,0,0,0,3,9,0,9,0,6,0,6,0,,,,,,,,,,,,,,,,,1014.8820972999674,1015.5649365999852,1015.5649365999852,1016.1643633000203,1016.1643633000203,0.5990814000251703,1018.179470299976,2.6139252000139095,None,1,increament,0.6,45,standard,None,100,,,,,,,m,21,234,fr,r,0,raw,2023-04-11_15h54.10.132,oddball,2022.2.5,59.886084686786994,
20,,,,,0,0,0,3,9,0,9,0,7,0,7,0,,,,,,,,,,,,,,,,,1018.179470299976,1018.7959464999731,1018.7959464999731,1019.3786477000103,1019.3951871999889,0.5990244999993593,1021.3936288999976,2.613973400031682,None,1,increament,0.6,45,standard,None,100,,,,,,,m,21,234,fr,r,0,raw,2023-04-11_15h54.10.132,oddball,2022.2.5,59.886084686786994,
20,,,,,0,0,0,3,9,0,9,0,8,0,8,0,,,,,,,,,,,,,,,,,1021.4100762999733,1022.1428654000047,1022.1428654000047,1022.7423964000191,1022.7423964000191,0.6153426999808289,1024.7572283999762,2.630157199979294,None,1,increament,0.6,45,standard,None,100,,,,,,,m,21,234,fr,r,0,raw,2023-04-11_15h54.10.132,oddball,2022.2.5,59.886084686786994,
20,,,,,0,0,0,3,9,0,9,0,9,0,9,0,,,,,,,,,,,,,,,,,1024.7743185000145,1025.3567648999742,1025.3567648999742,1026.1896507000201,1026.2061097999685,0.8487611999735236,1028.2045495000202,2.863662599993404,None,0,increament,0.84,47,oddball,j,140,,,,,,,m,21,234,fr,r,0,raw,2023-04-11_15h54.10.132,oddball,2022.2.5,59.886084686786994,
20,,,,,0,0,0,3,9,0,9,0,10,0,10,0,,,,,,,,,,,,,,,,,1028.2211987000192,1028.820782899973,1028.820782899973,1029.4036010999698,1029.4202653999673,0.5990379000431858,1031.41859820002,2.614001100009773,None,1,increament,0.6,45,standard,None,100,,,,,,,m,21,234,fr,r,0,raw,2023-04-11_15h54.10.132,oddball,2022.2.5,59.886084686786994,
20,,,,,0,0,0,3,9,0,9,0,11,0,11,0,,,,,,,,,,,,,,,,,1031.435294899973,1032.1346801000182,1032.1346801000182,1032.734094400017,1032.734094400017,0.6153377000009641,1034.7492877999903,2.6305434000096284,None,1,increament,0.6,45,standard,None,100,,,,,,,m,21,234,fr,r,0,raw,2023-04-11_15h54.10.132,oddball,2022.2.5,59.886084686786994,
20,,,,,0,0,0,3,9,0,9,0,12,0,12,0,,,,,,,,,,,,,,,,,1034.7658178000129,1035.3487195000052,1035.3487195000052,1035.9481349000125,1035.9481349000125,0.6152376999962144,1037.9632403000141,2.630331499967724,None,1,increament,0.6,45,standard,None,100,,,,,,,m,21,234,fr,r,0,raw,2023-04-11_15h54.10.132,oddball,2022.2.5,59.886084686786994,
20,,,,,0,0,0,3,9,0,9,0,13,0,13,0,,,,,,,,,,,,,,,,,1037.9798592000152,1038.6626643000054,1038.6626643000054,1039.245548899984,1039.262078700005,0.5991353999706917,1041.2604570999974,2.6140242999535985,None,1,increament,0.6,45,standard,None,100,,,,,,,m,21,234,fr,r,0,raw,2023-04-11_15h54.10.132,oddball,2022.2.5,59.886084686786994,
20,,,,,0,0,0,3,9,0,9,0,14,0,14,0,,,,,,,,,,,,,,,,,1041.277205499995,1041.8768452000222,1041.8768452000222,1042.4595634000143,1042.4761171999853,0.6155549999675713,1044.4745536000119,2.630429499957245,None,1,increament,0.6,45,standard,None,100,,,,,,,m,21,234,fr,r,0,raw,2023-04-11_15h54.10.132,oddball,2022.2.5,59.886084686786994,
20,,,,,0,0,0,3,9,0,9,0,15,0,15,0,,,,,,,,,,,,,,,,,1044.5078404999804,1045.0907145999954,1045.0907145999954,1045.6901762000052,1045.6901762000052,0.6155452000093646,1047.7051959999953,2.630557600001339,None,1,increament,0.6,45,standard,None,100,,,,,,,m,21,234,fr,r,0,raw,2023-04-11_15h54.10.132,oddball,2022.2.5,59.886084686786994,
20,,,,,0,0,0,3,9,0,9,0,16,0,16,0,,,,,,,,,,,,,,,,,1047.7220611000084,1048.437813800003,1048.437813800003,1049.037684799987,1049.037684799987,0.6157760999631137,1051.052543799975,2.6306136999628507,None,1,increament,0.6,45,standard,None,100,,,,,,,m,21,234,fr,r,0,raw,2023-04-11_15h54.10.132,oddball,2022.2.5,59.886084686786994,
20,,,,,0,0,0,3,9,0,9,0,17,0,17,0,,,,,,,,,,,,,,,,,1051.0691314999713,1051.7851486,1051.7851486,1052.5011936000083,1052.5180597999715,0.7317056999891065,1054.5163908000104,2.7469118000008166,None,0,increament,0.72,46,oddball,j,120,,,,,,,m,21,234,fr,r,0,raw,2023-04-11_15h54.10.132,oddball,2022.2.5,59.886084686786994,
20,,,,,0,0,0,3,9,0,9,0,18,0,18,0,,,,,,,,,,,,,,,,,1054.5330812999746,1055.1658349999925,1055.1658349999925,1055.7652851999737,1055.7652851999737,0.6154710999689996,1057.780260599975,2.6304356000036933,None,1,increament,0.6,45,standard,None,100,,,,,,,m,21,234,fr,r,0,raw,2023-04-11_15h54.10.132,oddball,2022.2.5,59.886084686786994,
20,,,,,0,0,0,3,9,0,9,0,19,0,19,0,,,,,,,,,,,,,,,,,1057.7970220000134,1058.4131857000175,1058.4131857000175,1059.0126162000233,1059.0126162000233,0.6156149000162259,1061.02762790001,2.6304529000190087,None,1,increament,0.6,45,standard,None,100,,,,,,,m,21,234,fr,r,0,raw,2023-04-11_15h54.10.132,oddball,2022.2.5,59.886084686786994,
20,,,,,0,0,0,3,9,0,9,0,20,0,20,0,,,,,,,,,,,,,,,,,1061.0441777000087,1061.7770033999695,1061.7770033999695,1062.3598364000209,1062.376369000005,0.5990018000011332,1064.3748313999968,2.6140005000052042,None,1,increament,0.6,45,standard,None,100,,,,,,,m,21,234,fr,r,0,raw,2023-04-11_15h54.10.132,oddball,2022.2.5,59.886084686786994,
20,,,,,0,0,0,3,9,0,9,0,21,0,21,0,,,,,,,,,,,,,,,,,1064.3915258999914,1064.9910391999874,1064.9910391999874,1065.57372689998,1065.590481399966,0.6156895999447443,1067.5889368000207,2.6308522999752313,None,1,increament,0.6,45,standard,None,100,,,,,,,m,21,234,fr,r,0,raw,2023-04-11_15h54.10.132,oddball,2022.2.5,59.886084686786994,
20,,,,,0,0,0,3,9,0,9,0,22,0,22,0,,,,,,,,,,,,,,,,,1067.6220681999694,1068.2216209999751,1068.2216209999751,1068.8212025999674,1068.8212025999674,0.6154919999535196,1070.8361975000007,2.630474699952174,None,1,increament,0.6,45,standard,None,100,,,,,,,m,21,234,fr,r,0,raw,2023-04-11_15h54.10.132,oddball,2022.2.5,59.886084686786994,
20,,,,,0,0,0,3,9,0,9,0,23,0,23,0,,,,,,,,,,,,,,,,,1070.8529617000022,1071.485638800019,1071.485638800019,1072.4348202999681,1072.4514729999937,0.9651947999955155,1074.4498305000016,2.980224700004328,None,0,increament,0.96,48,oddball,j,160,,,,,,,m,21,234,fr,r,0,raw,2023-04-11_15h54.10.132,oddball,2022.2.5,59.886084686786994,
20,,,,,0,0,0,3,9,0,9,0,24,0,24,0,,,,,,,,,,,,,,,,,1074.4665827999706,1075.1991561999894,1075.1991561999894,1075.7822216000059,1075.7987177000032,0.5991319000022486,1077.7972498000017,2.6141637000255287,None,1,increament,0.6,45,standard,None,100,,,,,,,m,21,234,fr,r,0,raw,2023-04-11_15h54.10.132,oddball,2022.2.5,59.886084686786994,
20,,,,,0,0,0,3,9,0,9,0,25,0,25,0,,,,,,,,,,,,,,,,,1077.8137061999878,1078.363317499985,1078.363317499985,1078.9628608999774,1078.9628608999774,0.615652600012254,1080.9779842999997,2.630770699994173,None,1,increament,0.6,45,standard,None,100,,,,,,,m,21,234,fr,r,0,raw,2023-04-11_15h54.10.132,oddball,2022.2.5,59.886084686786994,
20,,,,,0,0,0,3,9,0,9,0,26,0,26,0,,,,,,,,,,,,,,,,,1080.9945646999986,1081.5943019000115,1081.5943019000115,1082.1936892999802,1082.1936892999802,0.6155380000127479,1084.2084459000034,2.6302711000316776,None,1,increament,0.6,45,standard,None,100,,,,,,,m,21,234,fr,r,0,raw,2023-04-11_15h54.10.132,oddball,2022.2.5,59.886084686786994,
20,,,,,0,0,0,3,9,0,9,0,27,0,27,0,,,,,,,,,,,,,,,,,1084.2252376999822,1085.1247019000002,1085.1247019000002,1085.7238530999748,1085.7238530999748,0.6153859999612905,1087.7389847000013,2.6305005999747664,None,1,increament,0.6,45,standard,None,100,,,,,,,m,21,234,fr,r,0,raw,2023-04-11_15h54.10.132,oddball,2022.2.5,59.886084686786994,
20,,,,,0,0,0,3,9,0,9,0,28,0,28,0,,,,,,,,,,,,,,,,,1087.755654299981,1088.3551421000157,1088.3551421000157,1088.954531700001,1088.954531700001,0.6154418999794871,1090.9697060000035,2.630607399973087,None,1,increament,0.6,45,standard,None,100,,,,,,,m,21,234,fr,r,0,raw,2023-04-11_15h54.10.132,oddball,2022.2.5,59.886084686786994,
20,,,,,0,0,0,3,9,0,9,0,29,0,29,0,,,,,,,,,,,,,,,,,1090.9862672999734,1091.602467300021,1091.602467300021,1092.201830999984,1092.201830999984,0.6153517999919131,1094.2168400000082,2.6303378000156954,None,1,increament,0.6,45,standard,None,100,,,,,,,m,21,234,fr,r,0,raw,2023-04-11_15h54.10.132,oddball,2022.2.5,59.886084686786994,
5,,,,,0,1,1,1,0,0,0,0,0,0,0,0,,,,,,,,,,,,,,,1278.6654895999818,1278.6654895999818,1279.7479098999756,1280.3808269000147,1280.3808269000147,1280.9803956999676,1280.9803956999676,0.6153550999588333,1282.9951872999663,2.6301447000005282,None,1,decreament,0.6,11,standard,None,100,,1274.2358675000141,0.0006526000215671957,1094.2346151999664,1274.2358675000141,,m,21,234,fr,r,0,raw,2023-04-11_15h54.10.132,oddball,2022.2.5,59.886084686786994,
