grating_freq,blocks_prac.thisRepN,blocks_prac.thisTrialN,blocks_prac.thisN,blocks_prac.thisIndex,blocks.thisRepN,blocks.thisTrialN,blocks.thisN,blocks.thisIndex,repeat_freq.thisRepN,repeat_freq.thisTrialN,repeat_freq.thisN,repeat_freq.thisIndex,trials.thisRepN,trials.thisTrialN,trials.thisN,trials.thisIndex,break_loop.thisRepN,break_loop.thisTrialN,break_loop.thisN,break_loop.thisIndex,rest_loop.thisRepN,rest_loop.thisTrialN,rest_loop.thisN,rest_loop.thisIndex,instruct_prac_text.started,instruct_prac_resp.started,b_instruct_text_2_.started,b_instruct_resp_2_.started,prac_done_text.started,prac_done_resp.started,instruct_text.started,instruct_resp.started,fixation.started,fixation.stopped,grating.started,blank.started,resp.started,grating.stopped,blank.stopped,resp.stopped,resp.keys,resp.corr,direction,duration,trigger,stim_type,corr_ans,scaling,resp.rt,rest_text.started,rest_resp.started,text_2.started,text_2.stopped,thx_txt.started,gender,age,participant,language,main_hand,nBlock_prac,file_suffix,date,expName,psychopyVersion,frameRate,
10,,,,,0,0,0,2,0,0,0,0,0,0,0,0,,,,,,,,,21.023613500001375,21.023613500001375,26.5962894000113,26.5962894000113,27.662463900021976,27.662463900021976,44.50532700002077,44.50532700002077,48.92859910000698,49.654871500009904,49.654871500009904,50.194124700006796,0.6152437000127975,50.260884300019825,52.208846800000174,2.6299652000016067,None,1,decreament,0.6,21,standard,None,100,,,,,,,f,18,239,fr,r,0,raw,2023-05-11_09h14.15.581,oddball,2022.2.5,60.041596816979336,
10,,,,,0,0,0,2,0,0,0,0,1,0,1,0,,,,,,,,,,,,,,,,,52.225431700004265,52.92508200000157,52.92508200000157,53.524306500010425,0.6147415000014007,53.524306500010425,55.53928930000984,2.629705400002422,None,1,decreament,0.6,21,standard,None,100,,,,,,,f,18,239,fr,r,0,raw,2023-05-11_09h14.15.581,oddball,2022.2.5,60.041596816979336,
10,,,,,0,0,0,2,0,0,0,0,2,0,2,0,,,,,,,,,,,,,,,,,55.55615860002581,56.222111600014614,56.222111600014614,56.82158730001538,0.6150952999887522,56.82158730001538,58.836693700024625,2.6302852999942843,None,1,decreament,0.6,21,standard,None,100,,,,,,,f,18,239,fr,r,0,raw,2023-05-11_09h14.15.581,oddball,2022.2.5,60.041596816979336,
10,,,,,0,0,0,2,0,0,0,0,3,0,3,0,,,,,,,,,,,,,,,,,58.85362490001717,59.58603980002226,59.58603980002226,60.18558960000519,0.6154400999948848,60.18558960000519,62.200563500024145,2.630390999984229,None,1,decreament,0.6,21,standard,None,100,,,,,,,f,18,239,fr,r,0,raw,2023-05-11_09h14.15.581,oddball,2022.2.5,60.041596816979336,
10,,,,,0,0,0,2,0,0,0,0,4,0,4,0,,,,,,,,,,,,,,,,,62.21724379999796,62.883657099999255,62.883657099999255,63.48283700001775,0.6147954000043683,63.49926880002022,65.49789460000466,2.6298475000075996,None,1,decreament,0.6,21,standard,None,100,,,,,,,f,18,239,fr,r,0,raw,2023-05-11_09h14.15.581,oddball,2022.2.5,60.041596816979336,
10,,,,,0,0,0,2,0,0,0,0,5,0,5,0,,,,,,,,,,,,,,,,,65.51458230000571,66.1972056000086,66.1972056000086,66.79702910000924,0.6150389999966137,66.79702910000924,68.79528760001995,2.6298060000117403,None,1,decreament,0.6,21,standard,None,100,,,,,,,f,18,239,fr,r,0,raw,2023-05-11_09h14.15.581,oddball,2022.2.5,60.041596816979336,
10,,,,,0,0,0,2,0,0,0,0,6,0,6,0,,,,,,,,,,,,,,,,,68.8288122000231,69.428181700001,69.428181700001,70.02758900000481,0.6150912000157405,70.02758900000481,72.04264440000406,2.6301840000087395,None,1,decreament,0.6,21,standard,None,100,,,,,,,f,18,239,fr,r,0,raw,2023-05-11_09h14.15.581,oddball,2022.2.5,60.041596816979336,
10,,,,,0,0,0,2,0,0,0,0,7,0,7,0,,,,,,,,,,,,,,,,,72.05921560002025,72.74222660000669,72.74222660000669,73.34143400000175,0.6150907000119332,73.34143400000175,75.35624320001807,2.629888800001936,None,1,decreament,0.6,21,standard,None,100,,,,,,,f,18,239,fr,r,0,raw,2023-05-11_09h14.15.581,oddball,2022.2.5,60.041596816979336,
10,,,,,0,0,0,2,0,0,0,0,8,0,8,0,,,,,,,,,,,,,,,,,75.37353440001607,75.8896214000124,75.8896214000124,76.48879030000535,0.614679399994202,76.48879030000535,78.50369569999748,2.629529099998763,None,1,decreament,0.6,21,standard,None,100,,,,,,,f,18,239,fr,r,0,raw,2023-05-11_09h14.15.581,oddball,2022.2.5,60.041596816979336,
10,,,,,0,0,0,2,0,0,0,0,9,0,9,0,,,,,,,,,,,,,,,,,78.52041650001775,79.11988610000117,79.11988610000117,79.71944600000279,0.6149374000087846,79.71944600000279,81.73414730001241,2.6296024000039324,None,1,decreament,0.6,21,standard,None,100,,,,,,,f,18,239,fr,r,0,raw,2023-05-11_09h14.15.581,oddball,2022.2.5,60.041596816979336,
10,,,,,0,0,0,2,0,0,0,0,10,0,10,0,,,,,,,,,,,,,,,,,81.75112729999819,82.30058190002455,82.30058190002455,82.90024710001308,0.6151313000009395,82.90024710001308,84.91504690001602,2.6299105000216514,None,1,decreament,0.6,21,standard,None,100,,,,,,,f,18,239,fr,r,0,raw,2023-05-11_09h14.15.581,oddball,2022.2.5,60.041596816979336,
10,,,,,0,0,0,2,0,0,0,0,11,0,11,0,,,,,,,,,,,,,,,,,84.93220320000546,85.7309774000023,85.7309774000023,86.33065180000267,0.6151185000198893,86.33065180000267,88.3460568000155,2.6305007000046317,None,1,decreament,0.6,21,standard,None,100,,,,,,,f,18,239,fr,r,0,raw,2023-05-11_09h14.15.581,oddball,2022.2.5,60.041596816979336,
10,,,,,0,0,0,2,0,0,0,0,12,0,12,0,,,,,,,,,,,,,,,,,88.36272450000979,89.06166130001657,89.06166130001657,89.66117100001429,0.6151543000014499,89.66117100001429,91.67656600000919,2.630571899993811,None,1,decreament,0.6,21,standard,None,100,,,,,,,f,18,239,fr,r,0,raw,2023-05-11_09h14.15.581,oddball,2022.2.5,60.041596816979336,
10,,,,,0,0,0,2,0,0,0,0,13,0,13,0,,,,,,,,,,,,,,,,,91.69293670001207,92.4088282000157,92.4088282000157,93.00844800000777,0.6153792999975849,93.00844800000777,95.02339270000812,2.6303161999967415,None,1,decreament,0.6,21,standard,None,100,,,,,,,f,18,239,fr,r,0,raw,2023-05-11_09h14.15.581,oddball,2022.2.5,60.041596816979336,
10,,,,,0,0,0,2,0,0,0,0,14,0,14,0,,,,,,,,,,,,,,,,,95.04014820000157,95.65647750001517,95.65647750001517,95.8897152999998,0.24895290000131354,95.90591680002399,97.90445220001857,2.2637170999951195,j,1,decreament,0.24,22,oddball,j,40,0.7368964000197593,,,,,,f,18,239,fr,r,0,raw,2023-05-11_09h14.15.581,oddball,2022.2.5,60.041596816979336,
10,,,,,0,0,0,2,0,0,0,0,15,0,15,0,,,,,,,,,,,,,,,,,97.9216468000086,98.52083300001686,98.52083300001686,99.1205926000257,0.6155625999963377,99.1205926000257,101.13526570002432,2.630189000017708,None,1,decreament,0.6,21,standard,None,100,,,,,,,f,18,239,fr,r,0,raw,2023-05-11_09h14.15.581,oddball,2022.2.5,60.041596816979336,
10,,,,,0,0,0,2,0,0,0,0,16,0,16,0,,,,,,,,,,,,,,,,,101.15178919999744,101.80149390001316,101.80149390001316,102.38399770000251,0.5990003000188153,102.40075030000298,104.39893880000454,2.613937000016449,None,1,decreament,0.6,21,standard,None,100,,,,,,,f,18,239,fr,r,0,raw,2023-05-11_09h14.15.581,oddball,2022.2.5,60.041596816979336,
10,,,,,0,0,0,2,0,0,0,0,17,0,17,0,,,,,,,,,,,,,,,,,104.4157921000151,105.01535510001122,105.01535510001122,105.61461200000485,0.6136632000270765,105.61461200000485,107.6294853000145,2.628514600015478,None,1,decreament,0.6,21,standard,None,100,,,,,,,f,18,239,fr,r,0,raw,2023-05-11_09h14.15.581,oddball,2022.2.5,60.041596816979336,
10,,,,,0,0,0,2,0,0,0,0,18,0,18,0,,,,,,,,,,,,,,,,,107.64648340002168,108.22893650000333,108.22893650000333,108.82856980001088,0.6146756999951322,108.82856980001088,110.84358800001792,2.6296686000132468,None,1,decreament,0.6,21,standard,None,100,,,,,,,f,18,239,fr,r,0,raw,2023-05-11_09h14.15.581,oddball,2022.2.5,60.041596816979336,
10,,,,,0,0,0,2,0,0,0,0,19,0,19,0,,,,,,,,,,,,,,,,,110.86036970000714,111.47677100001602,111.47677100001602,112.07586040001479,0.614927999995416,112.07586040001479,114.09108780001407,2.630177100014407,None,1,decreament,0.6,21,standard,None,100,,,,,,,f,18,239,fr,r,0,raw,2023-05-11_09h14.15.581,oddball,2022.2.5,60.041596816979336,
10,,,,,0,0,0,2,0,0,0,0,20,0,20,0,,,,,,,,,,,,,,,,,114.10834720000275,114.75774330002605,114.75774330002605,115.35676540000713,0.6147773000120651,115.3732624000113,117.37186830001883,2.629893400007859,None,1,decreament,0.6,21,standard,None,100,,,,,,,f,18,239,fr,r,0,raw,2023-05-11_09h14.15.581,oddball,2022.2.5,60.041596816979336,
10,,,,,0,0,0,2,0,0,0,0,21,0,21,0,,,,,,,,,,,,,,,,,117.38892630001646,118.05465920001734,118.05465920001734,118.65385790000437,0.6149014999973588,118.65385790000437,120.66887160000624,2.629884800000582,None,1,decreament,0.6,21,standard,None,100,,,,,,,f,18,239,fr,r,0,raw,2023-05-11_09h14.15.581,oddball,2022.2.5,60.041596816979336,
10,,,,,0,0,0,2,0,0,0,0,22,0,22,0,,,,,,,,,,,,,,,,,120.68625100000645,121.3684558000241,121.3684558000241,121.96762330000638,0.5991109999886248,121.96762330000638,123.9831137000001,2.6136145000054967,None,1,decreament,0.6,21,standard,None,100,,,,,,,f,18,239,fr,r,0,raw,2023-05-11_09h14.15.581,oddball,2022.2.5,60.041596816979336,
10,,,,,0,0,0,2,0,0,0,0,23,0,23,0,,,,,,,,,,,,,,,,,123.9831137000001,124.66560649999883,124.66560649999883,125.13192400001572,0.4818850999872666,125.14838690002216,127.14697990001878,2.496851100004278,None,0,decreament,0.48,24,oddball,j,80,,,,,,,f,18,239,fr,r,0,raw,2023-05-11_09h14.15.581,oddball,2022.2.5,60.041596816979336,
10,,,,,0,0,0,2,0,0,0,0,24,0,24,0,,,,,,,,,,,,,,,,,127.16371420002542,127.74686810001731,127.74686810001731,128.34606080001686,0.6150118999939878,128.34606080001686,130.3607636000088,2.629709900007583,None,1,decreament,0.6,21,standard,None,100,,,,,,,f,18,239,fr,r,0,raw,2023-05-11_09h14.15.581,oddball,2022.2.5,60.041596816979336,
10,,,,,0,0,0,2,0,0,0,0,25,0,25,0,,,,,,,,,,,,,,,,,130.3779021000082,130.92736840000725,130.92736840000725,131.52669350002543,0.615188700001454,131.52669350002543,133.54161480002222,2.6301708000246435,None,1,decreament,0.6,21,standard,None,100,,,,,,,f,18,239,fr,r,0,raw,2023-05-11_09h14.15.581,oddball,2022.2.5,60.041596816979336,
10,,,,,0,0,0,2,0,0,0,0,26,0,26,0,,,,,,,,,,,,,,,,,133.55836460000137,134.20757180001237,134.20757180001237,134.80730510002468,0.5990800999861676,134.80730510002468,136.82228520000353,2.613992700004019,None,1,decreament,0.6,21,standard,None,100,,,,,,,f,18,239,fr,r,0,raw,2023-05-11_09h14.15.581,oddball,2022.2.5,60.041596816979336,
10,,,,,0,0,0,2,0,0,0,0,27,0,27,0,,,,,,,,,,,,,,,,,136.82228520000353,137.4055714000133,137.4055714000133,138.00453850001213,0.6134289000183344,138.00453850001213,140.01970870001242,2.6287549000116996,None,1,decreament,0.6,21,standard,None,100,,,,,,,f,18,239,fr,r,0,raw,2023-05-11_09h14.15.581,oddball,2022.2.5,60.041596816979336,
10,,,,,0,0,0,2,0,0,0,0,28,0,28,0,,,,,,,,,,,,,,,,,140.0364002000133,140.73585090000415,140.73585090000415,141.33579680000548,0.6158548000094015,141.33579680000548,143.35006540000904,2.63011510000797,j,0,decreament,0.6,21,standard,None,100,0.8312134000007063,,,,,,f,18,239,fr,r,0,raw,2023-05-11_09h14.15.581,oddball,2022.2.5,60.041596816979336,
10,,,,,0,0,0,2,0,0,0,0,29,0,29,0,,,,,,,,,,,,,,,,,143.36739379999926,144.03322209999897,144.03322209999897,144.3830133000156,0.3652658000064548,144.39934750000248,146.39750000002095,2.379741999990074,j,1,decreament,0.36,23,oddball,j,60,0.7127329999930225,,,,,,f,18,239,fr,r,0,raw,2023-05-11_09h14.15.581,oddball,2022.2.5,60.041596816979336,
10,,,,,0,0,0,2,1,0,1,0,0,0,0,0,,,,,,,,,,,,,,,157.4071576000133,157.4071576000133,167.1136489000055,167.76372610000544,167.76372610000544,168.36301880000974,0.6151786000118591,168.36301880000974,170.37785960000474,2.629993900016416,None,1,increament,0.6,25,standard,None,100,,146.41442529999767,0.0017185999895446002,,,,f,18,239,fr,r,0,raw,2023-05-11_09h14.15.581,oddball,2022.2.5,60.041596816979336,
10,,,,,0,0,0,2,1,0,1,0,1,0,1,0,,,,,,,,,,,,,,,,,170.39450700001908,170.9442419000261,170.9442419000261,171.54361770002288,0.6149545999942347,171.54361770002288,173.55865190000623,2.6299967999802902,None,1,increament,0.6,25,standard,None,100,,,,,,,f,18,239,fr,r,0,raw,2023-05-11_09h14.15.581,oddball,2022.2.5,60.041596816979336,
10,,,,,0,0,0,2,1,0,1,0,2,0,2,0,,,,,,,,,,,,,,,,,173.57543750002515,174.2913230000122,174.2913230000122,174.89122869999846,0.6149363000004087,174.89122869999846,176.90608580000116,2.6297949999861885,None,1,increament,0.6,25,standard,None,100,,,,,,,f,18,239,fr,r,0,raw,2023-05-11_09h14.15.581,oddball,2022.2.5,60.041596816979336,
10,,,,,0,0,0,2,1,0,1,0,3,0,3,0,,,,,,,,,,,,,,,,,176.92233460000716,177.5389031000086,177.5389031000086,178.13808240002254,0.6150414999865461,178.13808240002254,180.15348870001617,2.630468999996083,None,1,increament,0.6,25,standard,None,100,,,,,,,f,18,239,fr,r,0,raw,2023-05-11_09h14.15.581,oddball,2022.2.5,60.041596816979336,
10,,,,,0,0,0,2,1,0,1,0,4,0,4,0,,,,,,,,,,,,,,,,,180.17003660000046,180.80312230001437,180.80312230001437,181.4024082000251,0.5990097000030801,181.4024082000251,183.4168531000032,2.6137947000097483,None,1,increament,0.6,25,standard,None,100,,,,,,,f,18,239,fr,r,0,raw,2023-05-11_09h14.15.581,oddball,2022.2.5,60.041596816979336,
10,,,,,0,0,0,2,1,0,1,0,5,0,5,0,,,,,,,,,,,,,,,,,183.4168531000032,184.18333650002023,184.18333650002023,184.78334350002115,0.6158864999888465,184.78334350002115,186.79786190000596,2.6304410999873653,None,1,increament,0.6,25,standard,None,100,,,,,,,f,18,239,fr,r,0,raw,2023-05-11_09h14.15.581,oddball,2022.2.5,60.041596816979336,
10,,,,,0,0,0,2,1,0,1,0,6,0,6,0,,,,,,,,,,,,,,,,,186.8143498999998,187.43042450002395,187.43042450002395,188.0302578000119,0.6154425999848172,188.0302578000119,190.04482239999925,2.6299934999842662,None,1,increament,0.6,25,standard,None,100,,,,,,,f,18,239,fr,r,0,raw,2023-05-11_09h14.15.581,oddball,2022.2.5,60.041596816979336,
10,,,,,0,0,0,2,1,0,1,0,7,0,7,0,,,,,,,,,,,,,,,,,190.06148780000512,190.77774910000153,190.77774910000153,191.3771107000066,0.6149510999966878,191.3771107000066,193.39235130001907,2.6301535999809857,None,1,increament,0.6,25,standard,None,100,,,,,,,f,18,239,fr,r,0,raw,2023-05-11_09h14.15.581,oddball,2022.2.5,60.041596816979336,
10,,,,,0,0,0,2,1,0,1,0,8,0,8,0,,,,,,,,,,,,,,,,,193.4088445000234,194.0254253000021,194.0254253000021,194.62457580000046,0.5990901000041049,194.62457580000046,196.64018380001653,2.613512300013099,None,1,increament,0.6,25,standard,None,100,,,,,,,f,18,239,fr,r,0,raw,2023-05-11_09h14.15.581,oddball,2022.2.5,60.041596816979336,
10,,,,,0,0,0,2,1,0,1,0,9,0,9,0,,,,,,,,,,,,,,,,,196.64018380001653,197.27257380000083,197.27257380000083,197.87228660000255,0.6149923999910243,197.87228660000255,199.8868991000054,2.6295917999814264,None,1,increament,0.6,25,standard,None,100,,,,,,,f,18,239,fr,r,0,raw,2023-05-11_09h14.15.581,oddball,2022.2.5,60.041596816979336,
10,,,,,0,0,0,2,1,0,1,0,10,0,10,0,,,,,,,,,,,,,,,,,199.90361470001517,200.60297960002208,200.60297960002208,201.2026096000045,0.5990563999803271,201.2026096000045,203.21737480000593,2.6135161999845877,None,1,increament,0.6,25,standard,None,100,,,,,,,f,18,239,fr,r,0,raw,2023-05-11_09h14.15.581,oddball,2022.2.5,60.041596816979336,
10,,,,,0,0,0,2,1,0,1,0,11,0,11,0,,,,,,,,,,,,,,,,,203.21737480000593,203.81679500002065,203.81679500002065,204.40016300001298,0.6156507000268903,204.41693550001946,206.41482689999975,2.6301108000043314,None,1,increament,0.6,25,standard,None,100,,,,,,,f,18,239,fr,r,0,raw,2023-05-11_09h14.15.581,oddball,2022.2.5,60.041596816979336,
10,,,,,0,0,0,2,1,0,1,0,12,0,12,0,,,,,,,,,,,,,,,,,206.44830010001897,206.9810819000122,206.9810819000122,207.58062180000707,0.6152851000078954,207.58062180000707,209.59583020000719,2.6304963000002317,None,1,increament,0.6,25,standard,None,100,,,,,,,f,18,239,fr,r,0,raw,2023-05-11_09h14.15.581,oddball,2022.2.5,60.041596816979336,
10,,,,,0,0,0,2,1,0,1,0,13,0,13,0,,,,,,,,,,,,,,,,,209.6123835000035,210.31164349999744,210.31164349999744,210.9110240000009,0.6152112999989185,210.9110240000009,212.9264886000019,2.6306651000049897,None,1,increament,0.6,25,standard,None,100,,,,,,,f,18,239,fr,r,0,raw,2023-05-11_09h14.15.581,oddball,2022.2.5,60.041596816979336,
10,,,,,0,0,0,2,1,0,1,0,14,0,14,0,,,,,,,,,,,,,,,,,212.94280740001705,213.54217540001264,213.54217540001264,214.49150230002124,0.9648506000230554,214.50794999999925,216.50630950002233,2.979601900005946,j,1,increament,0.96,28,oddball,j,160,0.5533974999852944,,,,,,f,18,239,fr,r,0,raw,2023-05-11_09h14.15.581,oddball,2022.2.5,60.041596816979336,
10,,,,,0,0,0,2,1,0,1,0,15,0,15,0,,,,,,,,,,,,,,,,,216.52360320001026,217.12303220000467,217.12303220000467,217.72221500001615,0.6151515000092331,217.72221500001615,219.73720590001903,2.6302190000133123,None,1,increament,0.6,25,standard,None,100,,,,,,,f,18,239,fr,r,0,raw,2023-05-11_09h14.15.581,oddball,2022.2.5,60.041596816979336,
10,,,,,0,0,0,2,1,0,1,0,16,0,16,0,,,,,,,,,,,,,,,,,219.75385460001417,220.58693650001078,220.58693650001078,221.18571380001958,0.614784499979578,221.20229870002368,223.20087490000878,2.6299183999944944,None,1,increament,0.6,25,standard,None,100,,,,,,,f,18,239,fr,r,0,raw,2023-05-11_09h14.15.581,oddball,2022.2.5,60.041596816979336,
10,,,,,0,0,0,2,1,0,1,0,17,0,17,0,,,,,,,,,,,,,,,,,223.21783890001825,223.78366370001459,223.78366370001459,224.38335129999905,0.614828599995235,224.38335129999905,226.3983159000054,2.629776399990078,None,1,increament,0.6,25,standard,None,100,,,,,,,f,18,239,fr,r,0,raw,2023-05-11_09h14.15.581,oddball,2022.2.5,60.041596816979336,
10,,,,,0,0,0,2,1,0,1,0,18,0,18,0,,,,,,,,,,,,,,,,,226.4156154000084,227.06439510002383,227.06439510002383,227.66390920002596,0.6152648999996018,227.66390920002596,229.67889470001683,2.630209700000705,None,1,increament,0.6,25,standard,None,100,,,,,,,f,18,239,fr,r,0,raw,2023-05-11_09h14.15.581,oddball,2022.2.5,60.041596816979336,
10,,,,,0,0,0,2,1,0,1,0,19,0,19,0,,,,,,,,,,,,,,,,,229.69617310000467,230.54531860002317,230.54531860002317,231.14481440000236,0.6154853000189178,231.14481440000236,233.15946530000656,2.630151500023203,None,1,increament,0.6,25,standard,None,100,,,,,,,f,18,239,fr,r,0,raw,2023-05-11_09h14.15.581,oddball,2022.2.5,60.041596816979336,
10,,,,,0,0,0,2,1,0,1,0,20,0,20,0,,,,,,,,,,,,,,,,,233.17594620000455,233.74231130001135,233.74231130001135,234.34205880001537,0.6152779000112787,234.34205880001537,236.356668500026,2.629885900008958,None,1,increament,0.6,25,standard,None,100,,,,,,,f,18,239,fr,r,0,raw,2023-05-11_09h14.15.581,oddball,2022.2.5,60.041596816979336,
10,,,,,0,0,0,2,1,0,1,0,21,0,21,0,,,,,,,,,,,,,,,,,236.37352470000042,236.97306640000897,236.97306640000897,237.68903110001702,0.7317098999919835,237.70579290000023,239.70423020000453,2.74693130000378,None,0,increament,0.72,26,oddball,j,120,,,,,,,f,18,239,fr,r,0,raw,2023-05-11_09h14.15.581,oddball,2022.2.5,60.041596816979336,
10,,,,,0,0,0,2,1,0,1,0,22,0,22,0,,,,,,,,,,,,,,,,,239.72056880002492,240.38676850000047,240.38676850000047,240.9861496000085,0.6151628000079654,240.9861496000085,243.0011824000103,2.6301855000201613,None,1,increament,0.6,25,standard,None,100,,,,,,,f,18,239,fr,r,0,raw,2023-05-11_09h14.15.581,oddball,2022.2.5,60.041596816979336,
10,,,,,0,0,0,2,1,0,1,0,23,0,23,0,,,,,,,,,,,,,,,,,243.01782999999705,243.56748370002606,243.56748370002606,244.16700330001186,0.6154937999963295,244.16700330001186,246.1822444999998,2.630732599995099,None,1,increament,0.6,25,standard,None,100,,,,,,,f,18,239,fr,r,0,raw,2023-05-11_09h14.15.581,oddball,2022.2.5,60.041596816979336,
10,,,,,0,0,0,2,1,0,1,0,24,0,24,0,,,,,,,,,,,,,,,,,246.19888900002115,246.7984501000028,246.7984501000028,247.39758540000184,0.6148341000080109,247.39758540000184,249.41260239999974,2.6298035999934655,None,1,increament,0.6,25,standard,None,100,,,,,,,f,18,239,fr,r,0,raw,2023-05-11_09h14.15.581,oddball,2022.2.5,60.041596816979336,
10,,,,,0,0,0,2,1,0,1,0,25,0,25,0,,,,,,,,,,,,,,,,,249.42924930001027,250.14536650001537,250.14536650001537,250.74489190001623,0.6153864999942016,250.74489190001623,252.75984420001623,2.6302834000089206,None,1,increament,0.6,25,standard,None,100,,,,,,,f,18,239,fr,r,0,raw,2023-05-11_09h14.15.581,oddball,2022.2.5,60.041596816979336,
10,,,,,0,0,0,2,1,0,1,0,26,0,26,0,,,,,,,,,,,,,,,,,252.7768255000119,253.35931120000896,253.35931120000896,254.19203370000469,0.8477678000053857,254.20895300002303,256.2069554000045,2.8626880000228994,j,1,increament,0.84,27,oddball,j,140,0.9435576999967452,,,,,,f,18,239,fr,r,0,raw,2023-05-11_09h14.15.581,oddball,2022.2.5,60.041596816979336,
10,,,,,0,0,0,2,1,0,1,0,27,0,27,0,,,,,,,,,,,,,,,,,256.22358310001437,256.9398461000237,256.9398461000237,257.53913380001904,0.6152197000046726,257.53913380001904,259.55413240002235,2.6302152999851387,None,1,increament,0.6,25,standard,None,100,,,,,,,f,18,239,fr,r,0,raw,2023-05-11_09h14.15.581,oddball,2022.2.5,60.041596816979336,
10,,,,,0,0,0,2,1,0,1,0,28,0,28,0,,,,,,,,,,,,,,,,,259.5709821000055,260.1874584000034,260.1874584000034,260.786589299998,0.6147088999859989,260.786589299998,262.801262300025,2.6293211999873165,None,1,increament,0.6,25,standard,None,100,,,,,,,f,18,239,fr,r,0,raw,2023-05-11_09h14.15.581,oddball,2022.2.5,60.041596816979336,
10,,,,,0,0,0,2,1,0,1,0,29,0,29,0,,,,,,,,,,,,,,,,,262.81775310001103,263.3677024000208,263.3677024000208,263.967280700017,0.6145912000210956,263.967280700017,265.9823460000043,2.6296047000214458,None,1,increament,0.6,25,standard,None,100,,,,,,,f,18,239,fr,r,0,raw,2023-05-11_09h14.15.581,oddball,2022.2.5,60.041596816979336,
10,,,,,0,0,0,2,2,0,2,0,0,0,0,0,,,,,,,,,,,,,,,282.50845630001277,282.50845630001277,285.11691340000834,286.0156548000232,286.0156548000232,286.6157412000175,0.6154697999882046,286.6157412000175,288.63015060001635,2.6298851000028662,None,1,decreament,0.6,21,standard,None,100,,265.99891760002356,0.0015683999808970839,,,,f,18,239,fr,r,0,raw,2023-05-11_09h14.15.581,oddball,2022.2.5,60.041596816979336,
10,,,,,0,0,0,2,2,0,2,0,1,0,1,0,,,,,,,,,,,,,,,,,288.64715490001254,289.3131471000088,289.3131471000088,289.9130804000015,0.615898299991386,289.9130804000015,291.9277885000047,2.6306576999777462,None,1,decreament,0.6,21,standard,None,100,,,,,,,f,18,239,fr,r,0,raw,2023-05-11_09h14.15.581,oddball,2022.2.5,60.041596816979336,
10,,,,,0,0,0,2,2,0,2,0,2,0,2,0,,,,,,,,,,,,,,,,,291.944524999999,292.66061230000923,292.66061230000923,293.2599501000077,0.6144533999904525,293.2599501000077,295.2749726000184,2.629488800012041,None,1,decreament,0.6,21,standard,None,100,,,,,,,f,18,239,fr,r,0,raw,2023-05-11_09h14.15.581,oddball,2022.2.5,60.041596816979336,
10,,,,,0,0,0,2,2,0,2,0,3,0,3,0,,,,,,,,,,,,,,,,,295.2913743000245,295.90778540002066,295.90778540002066,296.5071447000082,0.61498769998434,296.5071447000082,298.5220781000098,2.629908999981126,None,1,decreament,0.6,21,standard,None,100,,,,,,,f,18,239,fr,r,0,raw,2023-05-11_09h14.15.581,oddball,2022.2.5,60.041596816979336,
10,,,,,0,0,0,2,2,0,2,0,4,0,4,0,,,,,,,,,,,,,,,,,298.53880880001816,299.08831620001,299.08831620001,299.6879388000234,0.615454500017222,299.6879388000234,301.70284209999954,2.630315500020515,None,1,decreament,0.6,21,standard,None,100,,,,,,,f,18,239,fr,r,0,raw,2023-05-11_09h14.15.581,oddball,2022.2.5,60.041596816979336,
10,,,,,0,0,0,2,2,0,2,0,5,0,5,0,,,,,,,,,,,,,,,,,301.71935369999846,302.2855733000033,302.2855733000033,302.8853915000218,0.5990263000130653,302.8853915000218,304.9002543000097,2.6134979000198655,None,1,decreament,0.6,21,standard,None,100,,,,,,,f,18,239,fr,r,0,raw,2023-05-11_09h14.15.581,oddball,2022.2.5,60.041596816979336,
10,,,,,0,0,0,2,2,0,2,0,6,0,6,0,,,,,,,,,,,,,,,,,304.9002543000097,305.5495479000092,305.5495479000092,306.1492624000239,0.6151517999824136,306.1492624000239,308.16397590001,2.629857699997956,None,1,decreament,0.6,21,standard,None,100,,,,,,,f,18,239,fr,r,0,raw,2023-05-11_09h14.15.581,oddball,2022.2.5,60.041596816979336,
10,,,,,0,0,0,2,2,0,2,0,7,0,7,0,,,,,,,,,,,,,,,,,308.18113680000533,308.7968972000235,308.7968972000235,309.3963765000226,0.6149302999838255,309.3963765000226,311.4113774000143,2.6299353999784216,None,1,decreament,0.6,21,standard,None,100,,,,,,,f,18,239,fr,r,0,raw,2023-05-11_09h14.15.581,oddball,2022.2.5,60.041596816979336,
10,,,,,0,0,0,2,2,0,2,0,8,0,8,0,,,,,,,,,,,,,,,,,311.42849360001856,312.0107941000024,312.0107941000024,312.61025690002134,0.614348599978257,312.61025690002134,314.6256137000164,2.629681899998104,None,1,decreament,0.6,21,standard,None,100,,,,,,,f,18,239,fr,r,0,raw,2023-05-11_09h14.15.581,oddball,2022.2.5,60.041596816979336,
10,,,,,0,0,0,2,2,0,2,0,9,0,9,0,,,,,,,,,,,,,,,,,314.6422530999989,315.3748779000016,315.3748779000016,315.9746264000132,0.6153529000002891,315.9746264000132,317.9893244999985,2.630040599993663,None,1,decreament,0.6,21,standard,None,100,,,,,,,f,18,239,fr,r,0,raw,2023-05-11_09h14.15.581,oddball,2022.2.5,60.041596816979336,
10,,,,,0,0,0,2,2,0,2,0,10,0,10,0,,,,,,,,,,,,,,,,,318.006417000026,318.60540680002305,318.60540680002305,319.20486270001857,0.6144612999923993,319.20486270001857,321.21986840001773,2.6294081000087317,None,1,decreament,0.6,21,standard,None,100,,,,,,,f,18,239,fr,r,0,raw,2023-05-11_09h14.15.581,oddball,2022.2.5,60.041596816979336,
10,,,,,0,0,0,2,2,0,2,0,11,0,11,0,,,,,,,,,,,,,,,,,321.23675130002084,321.83594690001337,321.83594690001337,322.3023294000013,0.482068800018169,322.31904430000577,324.31755300000077,2.4973078000184614,None,0,decreament,0.48,24,oddball,j,80,,,,,,,f,18,239,fr,r,0,raw,2023-05-11_09h14.15.581,oddball,2022.2.5,60.041596816979336,
10,,,,,0,0,0,2,2,0,2,0,12,0,12,0,,,,,,,,,,,,,,,,,324.33396800002083,324.9171998000238,324.9171998000238,325.5162617000169,0.6151912000204902,325.5162617000169,327.5314207000192,2.6302045000193175,None,1,decreament,0.6,21,standard,None,100,,,,,,,f,18,239,fr,r,0,raw,2023-05-11_09h14.15.581,oddball,2022.2.5,60.041596816979336,
10,,,,,0,0,0,2,2,0,2,0,13,0,13,0,,,,,,,,,,,,,,,,,327.54767850000644,328.214031600015,328.214031600015,328.8137101000175,0.5990700999973342,328.8137101000175,330.8292368000257,2.6142405999999028,None,1,decreament,0.6,21,standard,None,100,,,,,,,f,18,239,fr,r,0,raw,2023-05-11_09h14.15.581,oddball,2022.2.5,60.041596816979336,
10,,,,,0,0,0,2,2,0,2,0,14,0,14,0,,,,,,,,,,,,,,,,,330.8292368000257,331.64442789999885,331.64442789999885,332.22737400000915,0.599197000003187,332.2439491999976,334.2422985000012,2.6141207000182476,None,1,decreament,0.6,21,standard,None,100,,,,,,,f,18,239,fr,r,0,raw,2023-05-11_09h14.15.581,oddball,2022.2.5,60.041596816979336,
10,,,,,0,0,0,2,2,0,2,0,15,0,15,0,,,,,,,,,,,,,,,,,334.25912150001386,334.8588412000099,334.8588412000099,335.44131560000824,0.6159196000080556,335.4584007000085,337.4568294000055,2.6309604000125546,None,1,decreament,0.6,21,standard,None,100,,,,,,,f,18,239,fr,r,0,raw,2023-05-11_09h14.15.581,oddball,2022.2.5,60.041596816979336,
10,,,,,0,0,0,2,2,0,2,0,16,0,16,0,,,,,,,,,,,,,,,,,337.4900937000057,338.02292380001745,338.02292380001745,338.3727211000223,0.3652070999960415,338.3894113000133,340.38746190001257,2.3800063999951817,j,1,decreament,0.36,23,oddball,j,60,0.76334720000159,,,,,,f,18,239,fr,r,0,raw,2023-05-11_09h14.15.581,oddball,2022.2.5,60.041596816979336,
10,,,,,0,0,0,2,2,0,2,0,17,0,17,0,,,,,,,,,,,,,,,,,340.4040009000164,341.1369865000015,341.1369865000015,341.73667310000747,0.6153775000129826,341.73667310000747,343.751866000006,2.6305633000156377,None,1,decreament,0.6,21,standard,None,100,,,,,,,f,18,239,fr,r,0,raw,2023-05-11_09h14.15.581,oddball,2022.2.5,60.041596816979336,
10,,,,,0,0,0,2,2,0,2,0,18,0,18,0,,,,,,,,,,,,,,,,,343.7684391000075,344.4179489000235,344.4179489000235,345.0171207000094,0.6146841000008862,345.0171207000094,347.0317268000217,2.629240900016157,None,1,decreament,0.6,21,standard,None,100,,,,,,,f,18,239,fr,r,0,raw,2023-05-11_09h14.15.581,oddball,2022.2.5,60.041596816979336,
10,,,,,0,0,0,2,2,0,2,0,19,0,19,0,,,,,,,,,,,,,,,,,347.0483593000099,347.6814235000056,347.6814235000056,348.26447090000147,0.599401300016325,348.2806642000214,350.27932680002414,2.61429820000194,None,1,decreament,0.6,21,standard,None,100,,,,,,,f,18,239,fr,r,0,raw,2023-05-11_09h14.15.581,oddball,2022.2.5,60.041596816979336,
10,,,,,0,0,0,2,2,0,2,0,20,0,20,0,,,,,,,,,,,,,,,,,350.2961421000073,351.01254650001647,351.01254650001647,351.61154330000863,0.6156844000215642,351.62825540002086,353.62649920000695,2.6306939000205602,None,1,decreament,0.6,21,standard,None,100,,,,,,,f,18,239,fr,r,0,raw,2023-05-11_09h14.15.581,oddball,2022.2.5,60.041596816979336,
10,,,,,0,0,0,2,2,0,2,0,21,0,21,0,,,,,,,,,,,,,,,,,353.6430513000232,354.3093329000112,354.3093329000112,354.8922074000002,0.5992295000178274,354.9089341000072,356.907374500006,2.614384100015741,None,1,decreament,0.6,21,standard,None,100,,,,,,,f,18,239,fr,r,0,raw,2023-05-11_09h14.15.581,oddball,2022.2.5,60.041596816979336,
10,,,,,0,0,0,2,2,0,2,0,22,0,22,0,,,,,,,,,,,,,,,,,356.9239249000093,357.5230036000139,357.5230036000139,358.1058977000066,0.5990751000063028,358.1226849000086,360.1207147000241,2.6139035999949556,None,1,decreament,0.6,21,standard,None,100,,,,,,,f,18,239,fr,r,0,raw,2023-05-11_09h14.15.581,oddball,2022.2.5,60.041596816979336,
10,,,,,0,0,0,2,2,0,2,0,23,0,23,0,,,,,,,,,,,,,,,,,360.1376326000027,360.85393750001094,360.85393750001094,361.45313860001625,0.6153731000085827,361.45313860001625,363.46835970002576,2.6305974000133574,None,1,decreament,0.6,21,standard,None,100,,,,,,,f,18,239,fr,r,0,raw,2023-05-11_09h14.15.581,oddball,2022.2.5,60.041596816979336,
10,,,,,0,0,0,2,2,0,2,0,24,0,24,0,,,,,,,,,,,,,,,,,363.4849787999992,364.1013521999994,364.1013521999994,364.33411590001197,0.24859460000880063,364.3507853000192,366.349494300026,2.264023099996848,j,1,decreament,0.24,22,oddball,j,40,0.6956130999897141,,,,,,f,18,239,fr,r,0,raw,2023-05-11_09h14.15.581,oddball,2022.2.5,60.041596816979336,
10,,,,,0,0,0,2,2,0,2,0,25,0,25,0,,,,,,,,,,,,,,,,,366.3658682000241,367.132136900007,367.132136900007,367.7312543000153,0.6153192000056151,367.7312543000153,369.7464446000231,2.630501400009962,None,1,decreament,0.6,21,standard,None,100,,,,,,,f,18,239,fr,r,0,raw,2023-05-11_09h14.15.581,oddball,2022.2.5,60.041596816979336,
10,,,,,0,0,0,2,2,0,2,0,26,0,26,0,,,,,,,,,,,,,,,,,369.76328210000065,370.4292919000145,370.4292919000145,371.0119982000033,0.6157299999904353,371.0288007000054,373.0270032999979,2.6311732000031043,None,1,decreament,0.6,21,standard,None,100,,,,,,,f,18,239,fr,r,0,raw,2023-05-11_09h14.15.581,oddball,2022.2.5,60.041596816979336,
10,,,,,0,0,0,2,2,0,2,0,27,0,27,0,,,,,,,,,,,,,,,,,373.0607799999998,373.74315449999995,373.74315449999995,374.342727500014,0.59909649999463,374.342727500014,376.3582042000198,2.6136998999863863,None,1,decreament,0.6,21,standard,None,100,,,,,,,f,18,239,fr,r,0,raw,2023-05-11_09h14.15.581,oddball,2022.2.5,60.041596816979336,
10,,,,,0,0,0,2,2,0,2,0,28,0,28,0,,,,,,,,,,,,,,,,,376.3582042000198,376.8744596000179,376.8744596000179,377.4737268000026,0.6151462999987416,377.4737268000026,379.4890414000256,2.63044790001004,None,1,decreament,0.6,21,standard,None,100,,,,,,,f,18,239,fr,r,0,raw,2023-05-11_09h14.15.581,oddball,2022.2.5,60.041596816979336,
10,,,,,0,0,0,2,2,0,2,0,29,0,29,0,,,,,,,,,,,,,,,,,379.5052143000066,380.122185300017,380.122185300017,380.7212617000041,0.6152805000019725,380.73763040002086,382.736071500025,2.6300049999845214,None,1,decreament,0.6,21,standard,None,100,,,,,,,f,18,239,fr,r,0,raw,2023-05-11_09h14.15.581,oddball,2022.2.5,60.041596816979336,
10,,,,,0,0,0,2,3,0,3,0,0,0,0,0,,,,,,,,,,,,,,,393.60083350000787,393.60083350000787,397.95658019999973,398.5562329000095,398.5562329000095,399.1557052000135,0.6149128999968525,399.1557052000135,401.1707216000068,2.630019000003813,None,1,increament,0.6,25,standard,None,100,,382.7524242000072,0.0019677999953273684,,,,f,18,239,fr,r,0,raw,2023-05-11_09h14.15.581,oddball,2022.2.5,60.041596816979336,
10,,,,,0,0,0,2,3,0,3,0,1,0,1,0,,,,,,,,,,,,,,,,,401.18736510002054,402.00324000002,402.00324000002,402.6026967000216,0.6152677000209223,402.6026967000216,404.61785360000795,2.630416400003014,None,1,increament,0.6,25,standard,None,100,,,,,,,f,18,239,fr,r,0,raw,2023-05-11_09h14.15.581,oddball,2022.2.5,60.041596816979336,
10,,,,,0,0,0,2,3,0,3,0,2,0,2,0,,,,,,,,,,,,,,,,,404.63458179999725,405.317443500011,405.317443500011,405.916590000008,0.6147861999925226,405.916590000008,407.93166840000777,2.629864499991527,None,1,increament,0.6,25,standard,None,100,,,,,,,f,18,239,fr,r,0,raw,2023-05-11_09h14.15.581,oddball,2022.2.5,60.041596816979336,
10,,,,,0,0,0,2,3,0,3,0,3,0,3,0,,,,,,,,,,,,,,,,,407.9483051999996,408.5645375000022,408.5645375000022,409.1639847000188,0.6151079999981448,409.1639847000188,411.1791858000215,2.6301584000175353,None,1,increament,0.6,25,standard,None,100,,,,,,,f,18,239,fr,r,0,raw,2023-05-11_09h14.15.581,oddball,2022.2.5,60.041596816979336,
10,,,,,0,0,0,2,3,0,3,0,4,0,4,0,,,,,,,,,,,,,,,,,411.1959347000229,411.961518600001,411.961518600001,412.561119400023,0.6152214999892749,412.561119400023,414.5759934000089,2.630059099989012,None,1,increament,0.6,25,standard,None,100,,,,,,,f,18,239,fr,r,0,raw,2023-05-11_09h14.15.581,oddball,2022.2.5,60.041596816979336,
10,,,,,0,0,0,2,3,0,3,0,5,0,5,0,,,,,,,,,,,,,,,,,414.5932424000057,415.34273930001655,415.34273930001655,415.9416337000148,0.6150885999959428,415.9416337000148,417.95729890000075,2.63070200002403,None,1,increament,0.6,25,standard,None,100,,,,,,,f,18,239,fr,r,0,raw,2023-05-11_09h14.15.581,oddball,2022.2.5,60.041596816979336,
10,,,,,0,0,0,2,3,0,3,0,6,0,6,0,,,,,,,,,,,,,,,,,417.97334789999877,418.7560915000213,418.7560915000213,419.705747400003,0.9652415000018664,419.7220182000019,421.720186200022,2.9796249000064563,j,1,increament,0.96,28,oddball,j,160,0.7410530000051949,,,,,,f,18,239,fr,r,0,raw,2023-05-11_09h14.15.581,oddball,2022.2.5,60.041596816979336,
10,,,,,0,0,0,2,3,0,3,0,7,0,7,0,,,,,,,,,,,,,,,,,421.7371511000092,422.3532298000064,422.3532298000064,422.95283920000657,0.6153111000021454,422.95283920000657,424.96739279999747,2.629819800000405,None,1,increament,0.6,25,standard,None,100,,,,,,,f,18,239,fr,r,0,raw,2023-05-11_09h14.15.581,oddball,2022.2.5,60.041596816979336,
10,,,,,0,0,0,2,3,0,3,0,8,0,8,0,,,,,,,,,,,,,,,,,424.98429230001057,425.58427610000945,425.58427610000945,426.18331990001025,0.6149531000119168,426.2000470000203,428.1983980000077,2.629963700019289,None,1,increament,0.6,25,standard,None,100,,,,,,,f,18,239,fr,r,0,raw,2023-05-11_09h14.15.581,oddball,2022.2.5,60.041596816979336,
10,,,,,0,0,0,2,3,0,3,0,9,0,9,0,,,,,,,,,,,,,,,,,428.215645600023,428.8480068000208,428.8480068000208,429.44783910000115,0.5997133000055328,429.44783910000115,431.4622327000252,2.6135772000125144,None,1,increament,0.6,25,standard,None,100,,,,,,,f,18,239,fr,r,0,raw,2023-05-11_09h14.15.581,oddball,2022.2.5,60.041596816979336,
10,,,,,0,0,0,2,3,0,3,0,10,0,10,0,,,,,,,,,,,,,,,,,431.4622327000252,432.0453540000017,432.0453540000017,432.6451752000139,0.6153493000019807,432.6451752000139,434.659499100002,2.6296317000233103,None,1,increament,0.6,25,standard,None,100,,,,,,,f,18,239,fr,r,0,raw,2023-05-11_09h14.15.581,oddball,2022.2.5,60.041596816979336,
10,,,,,0,0,0,2,3,0,3,0,11,0,11,0,,,,,,,,,,,,,,,,,434.6763218000124,435.2257563000021,435.2257563000021,436.05841920000967,0.8482341000053566,436.07524060001015,438.0734340000199,2.863242599996738,j,1,increament,0.84,27,oddball,j,140,0.9185152999998536,,,,,,f,18,239,fr,r,0,raw,2023-05-11_09h14.15.581,oddball,2022.2.5,60.041596816979336,
10,,,,,0,0,0,2,3,0,3,0,12,0,12,0,,,,,,,,,,,,,,,,,438.0901514000143,438.70645470000454,438.70645470000454,439.30615410002065,0.6152963000058662,439.30615410002065,441.32104020001134,2.630162899993593,None,1,increament,0.6,25,standard,None,100,,,,,,,f,18,239,fr,r,0,raw,2023-05-11_09h14.15.581,oddball,2022.2.5,60.041596816979336,
10,,,,,0,0,0,2,3,0,3,0,13,0,13,0,,,,,,,,,,,,,,,,,441.33764520002296,442.05398050000076,442.05398050000076,442.65309649999836,0.6151387999998406,442.65309649999836,444.6684707000095,2.630489100003615,None,1,increament,0.6,25,standard,None,100,,,,,,,f,18,239,fr,r,0,raw,2023-05-11_09h14.15.581,oddball,2022.2.5,60.041596816979336,
10,,,,,0,0,0,2,3,0,3,0,14,0,14,0,,,,,,,,,,,,,,,,,444.68490330001805,445.35070180002367,445.35070180002367,445.95015930000227,0.6146076999721117,445.95015930000227,447.9653901999991,2.6297987999860197,None,1,increament,0.6,25,standard,None,100,,,,,,,f,18,239,fr,r,0,raw,2023-05-11_09h14.15.581,oddball,2022.2.5,60.041596816979336,
10,,,,,0,0,0,2,3,0,3,0,15,0,15,0,,,,,,,,,,,,,,,,,447.98233690002235,448.7650392000214,448.7650392000214,449.36400840000715,0.6147403999930248,449.36400840000715,451.3792054000078,2.6299278999795206,None,1,increament,0.6,25,standard,None,100,,,,,,,f,18,239,fr,r,0,raw,2023-05-11_09h14.15.581,oddball,2022.2.5,60.041596816979336,
10,,,,,0,0,0,2,3,0,3,0,16,0,16,0,,,,,,,,,,,,,,,,,451.3960735000146,452.1289945000026,452.1289945000026,452.72811860000365,0.6150208000035491,452.72811860000365,454.74297829999705,2.629869600001257,None,1,increament,0.6,25,standard,None,100,,,,,,,f,18,239,fr,r,0,raw,2023-05-11_09h14.15.581,oddball,2022.2.5,60.041596816979336,
10,,,,,0,0,0,2,3,0,3,0,17,0,17,0,,,,,,,,,,,,,,,,,454.7599058000196,455.292534600012,455.292534600012,456.00866330001736,0.7316029999929015,456.0254033000092,458.0240973000182,2.7470321000146214,None,0,increament,0.72,26,oddball,j,120,,,,,,,f,18,239,fr,r,0,raw,2023-05-11_09h14.15.581,oddball,2022.2.5,60.041596816979336,
10,,,,,0,0,0,2,3,0,3,0,18,0,18,0,,,,,,,,,,,,,,,,,458.0403198999993,458.5735612999997,458.5735612999997,459.1726347000222,0.6149058000009973,459.1726347000222,461.18773870001314,2.629994999995688,None,1,increament,0.6,25,standard,None,100,,,,,,,f,18,239,fr,r,0,raw,2023-05-11_09h14.15.581,oddball,2022.2.5,60.041596816979336,
10,,,,,0,0,0,2,3,0,3,0,19,0,19,0,,,,,,,,,,,,,,,,,461.20434870000463,461.7871512999991,461.7871512999991,462.3866339000233,0.6148806999844965,462.3866339000233,464.4017802000162,2.6300610000034794,None,1,increament,0.6,25,standard,None,100,,,,,,,f,18,239,fr,r,0,raw,2023-05-11_09h14.15.581,oddball,2022.2.5,60.041596816979336,
10,,,,,0,0,0,2,3,0,3,0,20,0,20,0,,,,,,,,,,,,,,,,,464.41901830001734,464.96800660001463,464.96800660001463,465.56763220002176,0.6151628000079654,465.56763220002176,467.5823449000018,2.6297977000067476,None,1,increament,0.6,25,standard,None,100,,,,,,,f,18,239,fr,r,0,raw,2023-05-11_09h14.15.581,oddball,2022.2.5,60.041596816979336,
10,,,,,0,0,0,2,3,0,3,0,21,0,21,0,,,,,,,,,,,,,,,,,467.5991493000183,468.2652286000084,468.2652286000084,468.86505520000355,0.6153672999935225,468.86505520000355,470.87999460002175,2.630348100006813,None,1,increament,0.6,25,standard,None,100,,,,,,,f,18,239,fr,r,0,raw,2023-05-11_09h14.15.581,oddball,2022.2.5,60.041596816979336,
10,,,,,0,0,0,2,3,0,3,0,22,0,22,0,,,,,,,,,,,,,,,,,470.8970502000011,471.56261630001245,471.56261630001245,472.1622421000211,0.5991715000127442,472.1622421000211,474.1772947999998,2.6141593000211287,None,1,increament,0.6,25,standard,None,100,,,,,,,f,18,239,fr,r,0,raw,2023-05-11_09h14.15.581,oddball,2022.2.5,60.041596816979336,
10,,,,,0,0,0,2,3,0,3,0,23,0,23,0,,,,,,,,,,,,,,,,,474.1772947999998,474.693531900004,474.693531900004,475.2927092000027,0.6149671000021044,475.2927092000027,477.30761050002184,2.629865700000664,None,1,increament,0.6,25,standard,None,100,,,,,,,f,18,239,fr,r,0,raw,2023-05-11_09h14.15.581,oddball,2022.2.5,60.041596816979336,
10,,,,,0,0,0,2,3,0,3,0,24,0,24,0,,,,,,,,,,,,,,,,,477.3247315000044,477.8910242000129,477.8910242000129,478.4902178000193,0.6156388999952469,478.4902178000193,480.5057944,2.6311965999775566,None,1,increament,0.6,25,standard,None,100,,,,,,,f,18,239,fr,r,0,raw,2023-05-11_09h14.15.581,oddball,2022.2.5,60.041596816979336,
10,,,,,0,0,0,2,3,0,3,0,25,0,25,0,,,,,,,,,,,,,,,,,480.5221594000177,481.13830330001656,481.13830330001656,481.7370656999992,0.6148629999952391,481.7370656999992,483.7522541000217,2.6300419999752194,None,1,increament,0.6,25,standard,None,100,,,,,,,f,18,239,fr,r,0,raw,2023-05-11_09h14.15.581,oddball,2022.2.5,60.041596816979336,
10,,,,,0,0,0,2,3,0,3,0,26,0,26,0,,,,,,,,,,,,,,,,,483.76896890002536,484.41900819999864,484.41900819999864,485.0181349000195,0.6150861000060104,485.0181349000195,487.03315120001207,2.629990799992811,j,0,increament,0.6,25,standard,None,100,0.9787121999834199,,,,,,f,18,239,fr,r,0,raw,2023-05-11_09h14.15.581,oddball,2022.2.5,60.041596816979336,
10,,,,,0,0,0,2,3,0,3,0,27,0,27,0,,,,,,,,,,,,,,,,,487.05001190002076,487.8324809000187,487.8324809000187,488.43193099999917,0.6153970999876037,488.43193099999917,490.44683520001126,2.6302270999876782,None,1,increament,0.6,25,standard,None,100,,,,,,,f,18,239,fr,r,0,raw,2023-05-11_09h14.15.581,oddball,2022.2.5,60.041596816979336,
10,,,,,0,0,0,2,3,0,3,0,28,0,28,0,,,,,,,,,,,,,,,,,490.46356810000725,491.06283520002034,491.06283520002034,491.66240710002603,0.6146060999890324,491.66240710002603,493.67760700001963,2.629850700002862,None,1,increament,0.6,25,standard,None,100,,,,,,,f,18,239,fr,r,0,raw,2023-05-11_09h14.15.581,oddball,2022.2.5,60.041596816979336,
10,,,,,0,0,0,2,3,0,3,0,29,0,29,0,,,,,,,,,,,,,,,,,493.6943470000115,494.327156400017,494.327156400017,494.92689260002226,0.6154726999811828,494.92689260002226,496.94182970002294,2.6304207999783102,None,1,increament,0.6,25,standard,None,100,,,,,,,f,18,239,fr,r,0,raw,2023-05-11_09h14.15.581,oddball,2022.2.5,60.041596816979336,
10,,,,,0,0,0,2,4,0,4,0,0,0,0,0,,,,,,,,,,,,,,,513.9486745000177,513.9486745000177,517.5580578000227,518.2905664000136,518.2905664000136,518.8901101000083,0.6150920999934897,518.8901101000083,520.9051296000252,2.6301442999974824,None,1,decreament,0.6,21,standard,None,100,,496.9580294000043,0.0018007000035140663,,,,f,18,239,fr,r,0,raw,2023-05-11_09h14.15.581,oddball,2022.2.5,60.041596816979336,
10,,,,,0,0,0,2,4,0,4,0,1,0,1,0,,,,,,,,,,,,,,,,,520.9219731000194,521.5877286000177,521.5877286000177,522.1874342000228,0.6151159000000916,522.1874342000228,524.2024596999981,2.6301906000007875,None,1,decreament,0.6,21,standard,None,100,,,,,,,f,18,239,fr,r,0,raw,2023-05-11_09h14.15.581,oddball,2022.2.5,60.041596816979336,
10,,,,,0,0,0,2,4,0,4,0,2,0,2,0,,,,,,,,,,,,,,,,,524.2193811000034,524.8018937000015,524.8018937000015,525.4020020000171,0.6158423000015318,525.4020020000171,527.4162350000115,2.630023000005167,None,1,decreament,0.6,21,standard,None,100,,,,,,,f,18,239,fr,r,0,raw,2023-05-11_09h14.15.581,oddball,2022.2.5,60.041596816979336,
10,,,,,0,0,0,2,4,0,4,0,3,0,3,0,,,,,,,,,,,,,,,,,527.4332639000204,528.0159960000019,528.0159960000019,528.6159245000163,0.6157683999917936,528.6159245000163,530.6302764000138,2.6300631999911275,None,1,decreament,0.6,21,standard,None,100,,,,,,,f,18,239,fr,r,0,raw,2023-05-11_09h14.15.581,oddball,2022.2.5,60.041596816979336,
10,,,,,0,0,0,2,4,0,4,0,4,0,4,0,,,,,,,,,,,,,,,,,530.6473416000081,531.2965986000199,531.2965986000199,531.8961023000011,0.6151032000198029,531.8961023000011,533.9111144000199,2.6300678999978118,None,1,decreament,0.6,21,standard,None,100,,,,,,,f,18,239,fr,r,0,raw,2023-05-11_09h14.15.581,oddball,2022.2.5,60.041596816979336,
10,,,,,0,0,0,2,4,0,4,0,5,0,5,0,,,,,,,,,,,,,,,,,533.927804100007,534.5605401000066,534.5605401000066,535.1433352000022,0.6155138000031002,535.1601275000139,537.1415760000236,2.6301188000070397,None,1,decreament,0.6,21,standard,None,100,,,,,,,f,18,239,fr,r,0,raw,2023-05-11_09h14.15.581,oddball,2022.2.5,60.041596816979336,
10,,,,,0,0,0,2,4,0,4,0,6,0,6,0,,,,,,,,,,,,,,,,,537.1918697000074,537.9077914000081,537.9077914000081,538.5071841000172,0.6142732000153046,538.5071841000172,540.522138100001,2.629248400015058,None,1,decreament,0.6,21,standard,None,100,,,,,,,f,18,239,fr,r,0,raw,2023-05-11_09h14.15.581,oddball,2022.2.5,60.041596816979336,
10,,,,,0,0,0,2,4,0,4,0,7,0,7,0,,,,,,,,,,,,,,,,,540.5393061000213,541.3381284000061,541.3381284000061,541.8052133000165,0.4829306000028737,541.8210580000014,543.8194506000145,2.497109200019622,None,0,decreament,0.48,24,oddball,j,80,,,,,,,f,18,239,fr,r,0,raw,2023-05-11_09h14.15.581,oddball,2022.2.5,60.041596816979336,
10,,,,,0,0,0,2,4,0,4,0,8,0,8,0,,,,,,,,,,,,,,,,,543.8364373000222,544.4190249000094,544.4190249000094,545.0185007000109,0.6149889999942388,545.0185007000109,547.0334558000031,2.6299342999991495,None,1,decreament,0.6,21,standard,None,100,,,,,,,f,18,239,fr,r,0,raw,2023-05-11_09h14.15.581,oddball,2022.2.5,60.041596816979336,
10,,,,,0,0,0,2,4,0,4,0,9,0,9,0,,,,,,,,,,,,,,,,,547.0506288000033,547.7164807000081,547.7164807000081,548.3155244000081,0.6145327000122052,548.3155244000081,550.3309752000205,2.629902899992885,None,1,decreament,0.6,21,standard,None,100,,,,,,,f,18,239,fr,r,0,raw,2023-05-11_09h14.15.581,oddball,2022.2.5,60.041596816979336,
10,,,,,0,0,0,2,4,0,4,0,10,0,10,0,,,,,,,,,,,,,,,,,550.347817300004,551.0468681000057,551.0468681000057,551.6464866000169,0.615147500007879,551.6464866000169,553.6612889000098,2.629936599987559,None,1,decreament,0.6,21,standard,None,100,,,,,,,f,18,239,fr,r,0,raw,2023-05-11_09h14.15.581,oddball,2022.2.5,60.041596816979336,
10,,,,,0,0,0,2,4,0,4,0,11,0,11,0,,,,,,,,,,,,,,,,,553.6780932000256,554.3775402000174,554.3775402000174,554.9769662000181,0.6152734000061173,554.9769662000181,556.9919681000174,2.6302790000045206,None,1,decreament,0.6,21,standard,None,100,,,,,,,f,18,239,fr,r,0,raw,2023-05-11_09h14.15.581,oddball,2022.2.5,60.041596816979336,
10,,,,,0,0,0,2,4,0,4,0,12,0,12,0,,,,,,,,,,,,,,,,,557.0086856000125,557.674952500005,557.674952500005,558.2739912000252,0.6148857999942265,558.2739912000252,560.2893095000181,2.6301940999983344,None,1,decreament,0.6,21,standard,None,100,,,,,,,f,18,239,fr,r,0,raw,2023-05-11_09h14.15.581,oddball,2022.2.5,60.041596816979336,
10,,,,,0,0,0,2,4,0,4,0,13,0,13,0,,,,,,,,,,,,,,,,,560.305869200005,560.9391386000207,560.9391386000207,561.5382246000227,0.6151172000099905,561.5382246000227,563.553175900015,2.6300675999955274,None,1,decreament,0.6,21,standard,None,100,,,,,,,f,18,239,fr,r,0,raw,2023-05-11_09h14.15.581,oddball,2022.2.5,60.041596816979336,
10,,,,,0,0,0,2,4,0,4,0,14,0,14,0,,,,,,,,,,,,,,,,,563.5700092000188,564.3030260000087,564.3030260000087,564.5357812000148,0.24903879998601042,564.5524835000106,566.5507476000057,2.2640055999800097,j,1,decreament,0.24,22,oddball,j,40,0.6465551999863237,,,,,,f,18,239,fr,r,0,raw,2023-05-11_09h14.15.581,oddball,2022.2.5,60.041596816979336,
10,,,,,0,0,0,2,4,0,4,0,15,0,15,0,,,,,,,,,,,,,,,,,566.5676681000041,567.2334331000166,567.2334331000166,567.8330702000239,0.6151555000105873,567.8330702000239,569.848052300018,2.630099900008645,None,1,decreament,0.6,21,standard,None,100,,,,,,,f,18,239,fr,r,0,raw,2023-05-11_09h14.15.581,oddball,2022.2.5,60.041596816979336,
10,,,,,0,0,0,2,4,0,4,0,16,0,16,0,,,,,,,,,,,,,,,,,569.8648499000119,570.497491200018,570.497491200018,571.0969674000225,0.6152596000174526,571.0969674000225,573.1120954000216,2.6303867000096943,None,1,decreament,0.6,21,standard,None,100,,,,,,,f,18,239,fr,r,0,raw,2023-05-11_09h14.15.581,oddball,2022.2.5,60.041596816979336,
10,,,,,0,0,0,2,4,0,4,0,17,0,17,0,,,,,,,,,,,,,,,,,573.1288063000247,573.7113912000204,573.7113912000204,574.3109843000129,0.6151290999841876,574.3109843000129,576.326538400026,2.6307119999837596,None,1,decreament,0.6,21,standard,None,100,,,,,,,f,18,239,fr,r,0,raw,2023-05-11_09h14.15.581,oddball,2022.2.5,60.041596816979336,
10,,,,,0,0,0,2,4,0,4,0,18,0,18,0,,,,,,,,,,,,,,,,,576.3430321000051,577.025836100016,577.025836100016,577.6253086000215,0.6156310999940615,577.6253086000215,579.639911700011,2.63019749999512,None,1,decreament,0.6,21,standard,None,100,,,,,,,f,18,239,fr,r,0,raw,2023-05-11_09h14.15.581,oddball,2022.2.5,60.041596816979336,
10,,,,,0,0,0,2,4,0,4,0,19,0,19,0,,,,,,,,,,,,,,,,,579.6566013999982,580.1896700000216,580.1896700000216,580.7888891000184,0.6142629999958444,580.7888891000184,582.8040639000246,2.6294048000127077,None,1,decreament,0.6,21,standard,None,100,,,,,,,f,18,239,fr,r,0,raw,2023-05-11_09h14.15.581,oddball,2022.2.5,60.041596816979336,
10,,,,,0,0,0,2,4,0,4,0,20,0,20,0,,,,,,,,,,,,,,,,,582.8207423000131,583.4040716000018,583.4040716000018,584.0031273000059,0.6151219999883324,584.0198007000145,586.0179734000121,2.629999600001611,None,1,decreament,0.6,21,standard,None,100,,,,,,,f,18,239,fr,r,0,raw,2023-05-11_09h14.15.581,oddball,2022.2.5,60.041596816979336,
10,,,,,0,0,0,2,4,0,4,0,21,0,21,0,,,,,,,,,,,,,,,,,586.0347293000086,586.7340836000221,586.7340836000221,587.3333908000204,0.614447800006019,587.3333908000204,589.3484670000034,2.629509499995038,None,1,decreament,0.6,21,standard,None,100,,,,,,,f,18,239,fr,r,0,raw,2023-05-11_09h14.15.581,oddball,2022.2.5,60.041596816979336,
10,,,,,0,0,0,2,4,0,4,0,22,0,22,0,,,,,,,,,,,,,,,,,589.3658225000254,590.2980941999995,590.2980941999995,590.6473094000248,0.36507599998731166,590.6640793000115,592.6625524999981,2.380379299982451,j,1,decreament,0.36,23,oddball,j,60,1.3005424000148196,,,,,,f,18,239,fr,r,0,raw,2023-05-11_09h14.15.581,oddball,2022.2.5,60.041596816979336,
10,,,,,0,0,0,2,4,0,4,0,23,0,23,0,,,,,,,,,,,,,,,,,592.6793672000058,593.4620829000196,593.4620829000196,594.0615050000197,0.6150268999917898,594.0615050000197,596.0762718000042,2.6297927999985404,None,1,decreament,0.6,21,standard,None,100,,,,,,,f,18,239,fr,r,0,raw,2023-05-11_09h14.15.581,oddball,2022.2.5,60.041596816979336,
10,,,,,0,0,0,2,4,0,4,0,24,0,24,0,,,,,,,,,,,,,,,,,596.0933671000239,596.7094469000003,596.7094469000003,597.3088197000034,0.6145704999798909,597.3088197000034,599.3235643000226,2.6293255999917164,None,1,decreament,0.6,21,standard,None,100,,,,,,,f,18,239,fr,r,0,raw,2023-05-11_09h14.15.581,oddball,2022.2.5,60.041596816979336,
10,,,,,0,0,0,2,4,0,4,0,25,0,25,0,,,,,,,,,,,,,,,,,599.3405733999971,600.1233808000106,600.1233808000106,600.7226332999999,0.6152635000180453,600.7226332999999,602.7380240000202,2.630658600013703,None,1,decreament,0.6,21,standard,None,100,,,,,,,f,18,239,fr,r,0,raw,2023-05-11_09h14.15.581,oddball,2022.2.5,60.041596816979336,
10,,,,,0,0,0,2,4,0,4,0,26,0,26,0,,,,,,,,,,,,,,,,,602.7547637000098,603.4202264000196,603.4202264000196,604.0200435000006,0.614962599996943,604.0200435000006,606.034707600018,2.6296115999866743,None,1,decreament,0.6,21,standard,None,100,,,,,,,f,18,239,fr,r,0,raw,2023-05-11_09h14.15.581,oddball,2022.2.5,60.041596816979336,
10,,,,,0,0,0,2,4,0,4,0,27,0,27,0,,,,,,,,,,,,,,,,,606.0513603000145,606.7513389000087,606.7513389000087,607.3502751000051,0.614885899994988,607.3668649000174,609.3652700000093,2.629846299998462,None,1,decreament,0.6,21,standard,None,100,,,,,,,f,18,239,fr,r,0,raw,2023-05-11_09h14.15.581,oddball,2022.2.5,60.041596816979336,
10,,,,,0,0,0,2,4,0,4,0,28,0,28,0,,,,,,,,,,,,,,,,,609.3821484000073,610.081697400019,610.081697400019,610.6817272000189,0.6156682000146247,610.6817272000189,612.695933400013,2.629807899997104,None,1,decreament,0.6,21,standard,None,100,,,,,,,f,18,239,fr,r,0,raw,2023-05-11_09h14.15.581,oddball,2022.2.5,60.041596816979336,
10,,,,,0,0,0,2,4,0,4,0,29,0,29,0,,,,,,,,,,,,,,,,,612.7126768000016,613.4118271000043,613.4118271000043,614.0117306000029,0.615050299995346,614.0117306000029,616.0268260000157,2.630112899991218,None,1,decreament,0.6,21,standard,None,100,,,,,,,f,18,239,fr,r,0,raw,2023-05-11_09h14.15.581,oddball,2022.2.5,60.041596816979336,
10,,,,,0,0,0,2,5,0,5,0,0,0,0,0,,,,,,,,,,,,,,,630.302182400017,630.302182400017,633.0127480000083,633.5287932000065,633.5287932000065,634.1283609000093,0.6142493000079412,634.1283609000093,636.1430722000077,2.612976600008551,None,1,increament,0.6,25,standard,None,100,,616.043768100004,0.0014593999949283898,,,,f,18,239,fr,r,0,raw,2023-05-11_09h14.15.581,oddball,2022.2.5,60.041596816979336,
10,,,,,0,0,0,2,5,0,5,0,1,0,1,0,,,,,,,,,,,,,,,,,636.1430722000077,636.6594748000207,636.6594748000207,637.2594314000162,0.6156125999987125,637.2594314000162,639.2738764000242,2.63001069999882,None,1,increament,0.6,25,standard,None,100,,,,,,,f,18,239,fr,r,0,raw,2023-05-11_09h14.15.581,oddball,2022.2.5,60.041596816979336,
10,,,,,0,0,0,2,5,0,5,0,2,0,2,0,,,,,,,,,,,,,,,,,639.2910084000032,640.0400900000241,640.0400900000241,640.6396871000179,0.6149917999864556,640.6396871000179,642.6551216000225,2.6303910999849904,None,1,increament,0.6,25,standard,None,100,,,,,,,f,18,239,fr,r,0,raw,2023-05-11_09h14.15.581,oddball,2022.2.5,60.041596816979336,
10,,,,,0,0,0,2,5,0,5,0,3,0,3,0,,,,,,,,,,,,,,,,,642.6713342000148,643.3380380000162,643.3380380000162,643.9367861000064,0.6147865999955684,643.9536482999974,645.9522988000244,2.6303047999972478,None,1,increament,0.6,25,standard,None,100,,,,,,,f,18,239,fr,r,0,raw,2023-05-11_09h14.15.581,oddball,2022.2.5,60.041596816979336,
10,,,,,0,0,0,2,5,0,5,0,4,0,4,0,,,,,,,,,,,,,,,,,645.9684262000083,646.56848300001,646.56848300001,647.167754300026,0.6153593999915756,647.167754300026,649.1824451000139,2.6300365999923088,None,1,increament,0.6,25,standard,None,100,,,,,,,f,18,239,fr,r,0,raw,2023-05-11_09h14.15.581,oddball,2022.2.5,60.041596816979336,
10,,,,,0,0,0,2,5,0,5,0,5,0,5,0,,,,,,,,,,,,,,,,,649.199301900022,649.9152962000226,649.9152962000226,650.515039800026,0.6153339000011329,650.515039800026,652.5296627000207,2.629940599988913,None,1,increament,0.6,25,standard,None,100,,,,,,,f,18,239,fr,r,0,raw,2023-05-11_09h14.15.581,oddball,2022.2.5,60.041596816979336,
10,,,,,0,0,0,2,5,0,5,0,6,0,6,0,,,,,,,,,,,,,,,,,652.5465983000176,653.2458984999976,653.2458984999976,654.0788199000235,0.8482913999760058,654.0956602000224,656.0936904000118,2.863167399977101,None,0,increament,0.84,27,oddball,j,140,,,,,,,f,18,239,fr,r,0,raw,2023-05-11_09h14.15.581,oddball,2022.2.5,60.041596816979336,
10,,,,,0,0,0,2,5,0,5,0,7,0,7,0,,,,,,,,,,,,,,,,,656.1108162000019,656.6597915000166,656.6597915000166,657.2431535000214,0.5993922999768984,657.2592656000052,659.2576316000195,2.6138259999861475,None,1,increament,0.6,25,standard,None,100,,,,,,,f,18,239,fr,r,0,raw,2023-05-11_09h14.15.581,oddball,2022.2.5,60.041596816979336,
10,,,,,0,0,0,2,5,0,5,0,8,0,8,0,,,,,,,,,,,,,,,,,659.2742914000119,659.8236303000012,659.8236303000012,660.4231730000174,0.6153827999951318,660.4231730000174,662.4382508000126,2.630471199983731,None,1,increament,0.6,25,standard,None,100,,,,,,,f,18,239,fr,r,0,raw,2023-05-11_09h14.15.581,oddball,2022.2.5,60.041596816979336,
10,,,,,0,0,0,2,5,0,5,0,9,0,9,0,,,,,,,,,,,,,,,,,662.4549708999984,663.1045772000216,663.1045772000216,663.7036471000174,0.5991788000101224,663.7036471000174,665.7190887000179,2.6138682999880984,None,1,increament,0.6,25,standard,None,100,,,,,,,f,18,239,fr,r,0,raw,2023-05-11_09h14.15.581,oddball,2022.2.5,60.041596816979336,
10,,,,,0,0,0,2,5,0,5,0,10,0,10,0,,,,,,,,,,,,,,,,,665.7190887000179,666.4848076000053,666.4848076000053,667.0677658000204,0.6155393999943044,667.0844402000075,669.0830997000157,2.6305196000030264,None,1,increament,0.6,25,standard,None,100,,,,,,,f,18,239,fr,r,0,raw,2023-05-11_09h14.15.581,oddball,2022.2.5,60.041596816979336,
10,,,,,0,0,0,2,5,0,5,0,11,0,11,0,,,,,,,,,,,,,,,,,669.1159690000059,669.6993148000038,669.6993148000038,670.2988871000125,0.6154144999745768,670.2988871000125,672.3133002000104,2.6297859999758657,None,1,increament,0.6,25,standard,None,100,,,,,,,f,18,239,fr,r,0,raw,2023-05-11_09h14.15.581,oddball,2022.2.5,60.041596816979336,
10,,,,,0,0,0,2,5,0,5,0,12,0,12,0,,,,,,,,,,,,,,,,,672.3304806000087,673.0626728000061,673.0626728000061,673.662502000021,0.6152939000166953,673.662502000021,675.6770164000045,2.6297492000157945,None,1,increament,0.6,25,standard,None,100,,,,,,,f,18,239,fr,r,0,raw,2023-05-11_09h14.15.581,oddball,2022.2.5,60.041596816979336,
10,,,,,0,0,0,2,5,0,5,0,13,0,13,0,,,,,,,,,,,,,,,,,675.6943696000089,676.3768817000091,676.3768817000091,676.9760615999985,0.6148996999836527,676.9760615999985,678.9915661000123,2.6304454999917652,None,1,increament,0.6,25,standard,None,100,,,,,,,f,18,239,fr,r,0,raw,2023-05-11_09h14.15.581,oddball,2022.2.5,60.041596816979336,
10,,,,,0,0,0,2,5,0,5,0,14,0,14,0,,,,,,,,,,,,,,,,,679.0080169000139,679.6744881000195,679.6744881000195,680.2735572000092,0.6153047999832779,680.2735572000092,682.2886313000054,2.6303914999880362,None,1,increament,0.6,25,standard,None,100,,,,,,,f,18,239,fr,r,0,raw,2023-05-11_09h14.15.581,oddball,2022.2.5,60.041596816979336,
10,,,,,0,0,0,2,5,0,5,0,15,0,15,0,,,,,,,,,,,,,,,,,682.3052915000007,682.8714910999988,682.8714910999988,683.4708125000179,0.6150809999962803,683.4708125000179,685.4858140000142,2.630053799977759,None,1,increament,0.6,25,standard,None,100,,,,,,,f,18,239,fr,r,0,raw,2023-05-11_09h14.15.581,oddball,2022.2.5,60.041596816979336,
10,,,,,0,0,0,2,5,0,5,0,16,0,16,0,,,,,,,,,,,,,,,,,685.5023714000126,686.1018138000218,686.1018138000218,686.818488000019,0.7328757000213955,686.8347535000066,688.8329253999982,2.7473127000266686,None,0,increament,0.72,26,oddball,j,120,,,,,,,f,18,239,fr,r,0,raw,2023-05-11_09h14.15.581,oddball,2022.2.5,60.041596816979336,
10,,,,,0,0,0,2,5,0,5,0,17,0,17,0,,,,,,,,,,,,,,,,,688.8496855999983,689.5824951000104,689.5824951000104,690.1820186000259,0.6152317000087351,690.1820186000259,692.196873000008,2.630012000008719,None,1,increament,0.6,25,standard,None,100,,,,,,,f,18,239,fr,r,0,raw,2023-05-11_09h14.15.581,oddball,2022.2.5,60.041596816979336,
10,,,,,0,0,0,2,5,0,5,0,18,0,18,0,,,,,,,,,,,,,,,,,692.2137310000253,692.7797451000079,692.7797451000079,693.3793518000166,0.6150172999768984,693.3793518000166,695.3943074000126,2.629994999995688,None,1,increament,0.6,25,standard,None,100,,,,,,,f,18,239,fr,r,0,raw,2023-05-11_09h14.15.581,oddball,2022.2.5,60.041596816979336,
10,,,,,0,0,0,2,5,0,5,0,19,0,19,0,,,,,,,,,,,,,,,,,695.4113367000245,695.977638500015,695.977638500015,696.5770688000193,0.6127312000025995,696.5934739000222,698.5918481000117,2.6274465000024065,None,1,increament,0.6,25,standard,None,100,,,,,,,f,18,239,fr,r,0,raw,2023-05-11_09h14.15.581,oddball,2022.2.5,60.041596816979336,
10,,,,,0,0,0,2,5,0,5,0,20,0,20,0,,,,,,,,,,,,,,,,,698.6085662000114,699.1579734000261,699.1579734000261,699.7577318000258,0.6149239999940619,699.7577318000258,701.7727021000173,2.6298863999836612,None,1,increament,0.6,25,standard,None,100,,,,,,,f,18,239,fr,r,0,raw,2023-05-11_09h14.15.581,oddball,2022.2.5,60.041596816979336,
10,,,,,0,0,0,2,5,0,5,0,21,0,21,0,,,,,,,,,,,,,,,,,701.789174400008,702.3386069000117,702.3386069000117,702.9382293000235,0.6151298999902792,702.9382293000235,704.9532202999981,2.6302011999941897,None,1,increament,0.6,25,standard,None,100,,,,,,,f,18,239,fr,r,0,raw,2023-05-11_09h14.15.581,oddball,2022.2.5,60.041596816979336,
10,,,,,0,0,0,2,5,0,5,0,22,0,22,0,,,,,,,,,,,,,,,,,704.9699853000056,705.569697400002,705.569697400002,706.1689560000086,0.6150426999956835,706.1689560000086,708.1839618000085,2.6300194000068586,None,1,increament,0.6,25,standard,None,100,,,,,,,f,18,239,fr,r,0,raw,2023-05-11_09h14.15.581,oddball,2022.2.5,60.041596816979336,
10,,,,,0,0,0,2,5,0,5,0,23,0,23,0,,,,,,,,,,,,,,,,,708.2003636000154,708.8998162000207,708.8998162000207,709.499387000018,0.6153830999974161,709.499387000018,711.5143627000216,2.6303503999952227,None,1,increament,0.6,25,standard,None,100,,,,,,,f,18,239,fr,r,0,raw,2023-05-11_09h14.15.581,oddball,2022.2.5,60.041596816979336,
10,,,,,0,0,0,2,5,0,5,0,24,0,24,0,,,,,,,,,,,,,,,,,711.5312933000096,712.1638134000241,712.1638134000241,712.7640842000255,0.6160098000254948,712.7640842000255,714.778667000006,2.6306107999989763,None,1,increament,0.6,25,standard,None,100,,,,,,,f,18,239,fr,r,0,raw,2023-05-11_09h14.15.581,oddball,2022.2.5,60.041596816979336,
10,,,,,0,0,0,2,5,0,5,0,25,0,25,0,,,,,,,,,,,,,,,,,714.7949902999972,715.4777393999975,715.4777393999975,716.0773470000131,0.6150008999975398,716.0773470000131,718.092310100008,2.6300178000237793,None,1,increament,0.6,25,standard,None,100,,,,,,,f,18,239,fr,r,0,raw,2023-05-11_09h14.15.581,oddball,2022.2.5,60.041596816979336,
10,,,,,0,0,0,2,5,0,5,0,26,0,26,0,,,,,,,,,,,,,,,,,718.1090722000226,718.7083033000235,718.7083033000235,719.6578529000108,0.9651098000176717,719.6740469000069,721.6726747000066,2.979927600012161,j,1,increament,0.96,28,oddball,j,160,0.5697855000034906,,,,,,f,18,239,fr,r,0,raw,2023-05-11_09h14.15.581,oddball,2022.2.5,60.041596816979336,
10,,,,,0,0,0,2,5,0,5,0,27,0,27,0,,,,,,,,,,,,,,,,,721.6890023000014,722.3055508000252,722.3055508000252,722.9048859000031,0.6150226999889128,722.9048859000031,724.9201490000123,2.6301702999917325,None,1,increament,0.6,25,standard,None,100,,,,,,,f,18,239,fr,r,0,raw,2023-05-11_09h14.15.581,oddball,2022.2.5,60.041596816979336,
10,,,,,0,0,0,2,5,0,5,0,28,0,28,0,,,,,,,,,,,,,,,,,724.9370195000083,725.6362290000252,725.6362290000252,726.235657000012,0.6147965000127442,726.235657000012,728.2505784000095,2.6296945000067353,None,1,increament,0.6,25,standard,None,100,,,,,,,f,18,239,fr,r,0,raw,2023-05-11_09h14.15.581,oddball,2022.2.5,60.041596816979336,
10,,,,,0,0,0,2,5,0,5,0,29,0,29,0,,,,,,,,,,,,,,,,,728.2672555000172,728.8334109999996,728.8334109999996,729.4160479000129,0.6153754999977536,729.4330522000091,731.431668300007,2.6301980999996886,None,1,increament,0.6,25,standard,None,100,,,,,,,f,18,239,fr,r,0,raw,2023-05-11_09h14.15.581,oddball,2022.2.5,60.041596816979336,
10,,,,,0,0,0,2,6,0,6,0,0,0,0,0,,,,,,,,,,,,,,,742.6472139000252,742.6472139000252,745.0367429000034,745.6199312000244,745.6199312000244,746.2193192999985,0.6153479999920819,746.2193192999985,748.2339753000124,2.629991299996618,None,1,decreament,0.6,21,standard,None,100,,731.4647980000009,0.001702100009424612,,,,f,18,239,fr,r,0,raw,2023-05-11_09h14.15.581,oddball,2022.2.5,60.041596816979336,
10,,,,,0,0,0,2,6,0,6,0,1,0,1,0,,,,,,,,,,,,,,,,,748.2506449000211,749.1000937000208,749.1000937000208,749.6991902000154,0.614396700024372,749.6991902000154,751.6979130000109,2.6296626000257675,None,1,decreament,0.6,21,standard,None,100,,,,,,,f,18,239,fr,r,0,raw,2023-05-11_09h14.15.581,oddball,2022.2.5,60.041596816979336,
10,,,,,0,0,0,2,6,0,6,0,2,0,2,0,,,,,,,,,,,,,,,,,751.7312189000077,752.3473449000157,752.3473449000157,752.946602800017,0.6148573999817017,752.946602800017,754.9618030000129,2.6300722000014503,None,1,decreament,0.6,21,standard,None,100,,,,,,,f,18,239,fr,r,0,raw,2023-05-11_09h14.15.581,oddball,2022.2.5,60.041596816979336,
10,,,,,0,0,0,2,6,0,6,0,3,0,3,0,,,,,,,,,,,,,,,,,754.9789784000022,755.5784779000096,755.5784779000096,756.1775583999988,0.6146178000199143,756.1775583999988,758.1924170000129,2.6294737000134774,None,1,decreament,0.6,21,standard,None,100,,,,,,,f,18,239,fr,r,0,raw,2023-05-11_09h14.15.581,oddball,2022.2.5,60.041596816979336,
10,,,,,0,0,0,2,6,0,6,0,4,0,4,0,,,,,,,,,,,,,,,,,758.2090385000047,758.9085663000005,758.9085663000005,759.5080562000221,0.6149042999895755,759.5080562000221,761.5234005000093,2.630229899979895,None,1,decreament,0.6,21,standard,None,100,,,,,,,f,18,239,fr,r,0,raw,2023-05-11_09h14.15.581,oddball,2022.2.5,60.041596816979336,
10,,,,,0,0,0,2,6,0,6,0,5,0,5,0,,,,,,,,,,,,,,,,,761.5398924000037,762.1725472000253,762.1725472000253,762.7719963999989,0.614995199983241,762.7719963999989,764.7868429000082,2.62983499999973,None,1,decreament,0.6,21,standard,None,100,,,,,,,f,18,239,fr,r,0,raw,2023-05-11_09h14.15.581,oddball,2022.2.5,60.041596816979336,
10,,,,,0,0,0,2,6,0,6,0,6,0,6,0,,,,,,,,,,,,,,,,,764.8038058000093,765.5203423000057,765.5203423000057,766.1192507000233,0.6150697999983095,766.1192507000233,768.1341145000188,2.629941699997289,None,1,decreament,0.6,21,standard,None,100,,,,,,,f,18,239,fr,r,0,raw,2023-05-11_09h14.15.581,oddball,2022.2.5,60.041596816979336,
10,,,,,0,0,0,2,6,0,6,0,7,0,7,0,,,,,,,,,,,,,,,,,768.1515091000183,768.9005706000025,768.9005706000025,769.2504589000018,0.36583470000186935,769.2666756000253,771.2653228999989,2.3807101999991573,j,1,decreament,0.36,23,oddball,j,60,0.7831919000018388,,,,,,f,18,239,fr,r,0,raw,2023-05-11_09h14.15.581,oddball,2022.2.5,60.041596816979336,
10,,,,,0,0,0,2,6,0,6,0,8,0,8,0,,,,,,,,,,,,,,,,,771.2817164000007,772.0308756000013,772.0308756000013,772.6305697000062,0.614933300006669,772.6305697000062,774.6456087000261,2.629976299998816,None,1,decreament,0.6,21,standard,None,100,,,,,,,f,18,239,fr,r,0,raw,2023-05-11_09h14.15.581,oddball,2022.2.5,60.041596816979336,
10,,,,,0,0,0,2,6,0,6,0,9,0,9,0,,,,,,,,,,,,,,,,,774.6625547000149,775.2119543000008,775.2119543000008,775.8114517000213,0.6144619999977294,775.8114517000213,777.8261859000195,2.629240399983246,None,1,decreament,0.6,21,standard,None,100,,,,,,,f,18,239,fr,r,0,raw,2023-05-11_09h14.15.581,oddball,2022.2.5,60.041596816979336,
10,,,,,0,0,0,2,6,0,6,0,10,0,10,0,,,,,,,,,,,,,,,,,777.8433479000232,778.4923987000075,778.4923987000075,779.0917566000135,0.5991635000100359,779.0917566000135,781.0906154000259,2.597755299997516,None,1,decreament,0.6,21,standard,None,100,,,,,,,f,18,239,fr,r,0,raw,2023-05-11_09h14.15.581,oddball,2022.2.5,60.041596816979336,
10,,,,,0,0,0,2,6,0,6,0,11,0,11,0,,,,,,,,,,,,,,,,,781.0906154000259,781.6732769000228,781.6732769000228,782.1395081000228,0.48166930000297725,782.1563414999982,784.1544975000143,2.4966615999874193,None,0,decreament,0.48,24,oddball,j,80,,,,,,,f,18,239,fr,r,0,raw,2023-05-11_09h14.15.581,oddball,2022.2.5,60.041596816979336,
10,,,,,0,0,0,2,6,0,6,0,12,0,12,0,,,,,,,,,,,,,,,,,784.1712275000173,784.8374757000129,784.8374757000129,785.4367498000211,0.6155689000152051,785.4367498000211,787.4514684000169,2.6303535999904852,None,1,decreament,0.6,21,standard,None,100,,,,,,,f,18,239,fr,r,0,raw,2023-05-11_09h14.15.581,oddball,2022.2.5,60.041596816979336,
10,,,,,0,0,0,2,6,0,6,0,13,0,13,0,,,,,,,,,,,,,,,,,787.4681983000191,788.1513266000256,788.1513266000256,788.750686400017,0.5990443000046071,788.750686400017,790.7654984000255,2.613875899987761,None,1,decreament,0.6,21,standard,None,100,,,,,,,f,18,239,fr,r,0,raw,2023-05-11_09h14.15.581,oddball,2022.2.5,60.041596816979336,
10,,,,,0,0,0,2,6,0,6,0,14,0,14,0,,,,,,,,,,,,,,,,,790.7654984000255,791.3985157000134,791.3985157000134,791.9977808000112,0.6152542000054382,791.9977808000112,794.0130376000016,2.630502299987711,None,1,decreament,0.6,21,standard,None,100,,,,,,,f,18,239,fr,r,0,raw,2023-05-11_09h14.15.581,oddball,2022.2.5,60.041596816979336,
10,,,,,0,0,0,2,6,0,6,0,15,0,15,0,,,,,,,,,,,,,,,,,794.0296015000204,794.7288859999971,794.7288859999971,795.3286760000046,0.6157163000025321,795.3286760000046,797.3434886000177,2.6305245999828912,None,1,decreament,0.6,21,standard,None,100,,,,,,,f,18,239,fr,r,0,raw,2023-05-11_09h14.15.581,oddball,2022.2.5,60.041596816979336,
10,,,,,0,0,0,2,6,0,6,0,16,0,16,0,,,,,,,,,,,,,,,,,797.360215200024,798.0267106000101,798.0267106000101,798.6258061999979,0.6152524000208359,798.6258061999979,800.6406272000168,2.630071299994597,None,1,decreament,0.6,21,standard,None,100,,,,,,,f,18,239,fr,r,0,raw,2023-05-11_09h14.15.581,oddball,2022.2.5,60.041596816979336,
10,,,,,0,0,0,2,6,0,6,0,17,0,17,0,,,,,,,,,,,,,,,,,800.6575851000089,801.3902642000176,801.3902642000176,801.9898198000155,0.6151917999959551,801.9898198000155,804.004937300022,2.630295400012983,None,1,decreament,0.6,21,standard,None,100,,,,,,,f,18,239,fr,r,0,raw,2023-05-11_09h14.15.581,oddball,2022.2.5,60.041596816979336,
10,,,,,0,0,0,2,6,0,6,0,18,0,18,0,,,,,,,,,,,,,,,,,804.0216833000013,804.6708976000082,804.6708976000082,805.270499700011,0.6151418999943417,805.270499700011,807.2852746999997,2.629906199988909,None,1,decreament,0.6,21,standard,None,100,,,,,,,f,18,239,fr,r,0,raw,2023-05-11_09h14.15.581,oddball,2022.2.5,60.041596816979336,
10,,,,,0,0,0,2,6,0,6,0,19,0,19,0,,,,,,,,,,,,,,,,,807.3016957000073,808.0845168000087,808.0845168000087,808.3177211000002,0.24907530000200495,808.3347572000057,810.3326691999973,2.263910500012571,j,1,decreament,0.24,22,oddball,j,40,0.7221300000092015,,,,,,f,18,239,fr,r,0,raw,2023-05-11_09h14.15.581,oddball,2022.2.5,60.041596816979336,
10,,,,,0,0,0,2,6,0,6,0,20,0,20,0,,,,,,,,,,,,,,,,,810.3495039000118,811.0490018000128,811.0490018000128,811.6481373000133,0.614772200002335,811.6481373000133,813.6633738000237,2.6300189000030514,None,1,decreament,0.6,21,standard,None,100,,,,,,,f,18,239,fr,r,0,raw,2023-05-11_09h14.15.581,oddball,2022.2.5,60.041596816979336,
10,,,,,0,0,0,2,6,0,6,0,21,0,21,0,,,,,,,,,,,,,,,,,813.6799867000082,814.3295599000121,814.3295599000121,814.9291731000121,0.6149055999994744,814.9291731000121,816.9439984000055,2.6297335000126623,None,1,decreament,0.6,21,standard,None,100,,,,,,,f,18,239,fr,r,0,raw,2023-05-11_09h14.15.581,oddball,2022.2.5,60.041596816979336,
10,,,,,0,0,0,2,6,0,6,0,22,0,22,0,,,,,,,,,,,,,,,,,816.960533800011,817.5601961000066,817.5601961000066,818.1595218000002,0.6149800000130199,818.1595218000002,820.1747211000184,2.6301482999988366,None,1,decreament,0.6,21,standard,None,100,,,,,,,f,18,239,fr,r,0,raw,2023-05-11_09h14.15.581,oddball,2022.2.5,60.041596816979336,
10,,,,,0,0,0,2,6,0,6,0,23,0,23,0,,,,,,,,,,,,,,,,,820.1912816000113,820.7242870000191,820.7242870000191,821.3237766000093,0.6152112999989185,821.3237766000093,823.338558700023,2.6299236999766435,None,1,decreament,0.6,21,standard,None,100,,,,,,,f,18,239,fr,r,0,raw,2023-05-11_09h14.15.581,oddball,2022.2.5,60.041596816979336,
10,,,,,0,0,0,2,6,0,6,0,24,0,24,0,,,,,,,,,,,,,,,,,823.3553140000149,823.9716453000146,823.9716453000146,824.5710667000094,0.6151827999856323,824.5710667000094,826.5859644000011,2.630160300002899,None,1,decreament,0.6,21,standard,None,100,,,,,,,f,18,239,fr,r,0,raw,2023-05-11_09h14.15.581,oddball,2022.2.5,60.041596816979336,
10,,,,,0,0,0,2,6,0,6,0,25,0,25,0,,,,,,,,,,,,,,,,,826.6028090000036,827.2690089000098,827.2690089000098,827.8681595000089,0.6151990000216756,827.8681595000089,829.8834313999978,2.630476999998791,None,1,decreament,0.6,21,standard,None,100,,,,,,,f,18,239,fr,r,0,raw,2023-05-11_09h14.15.581,oddball,2022.2.5,60.041596816979336,
10,,,,,0,0,0,2,6,0,6,0,26,0,26,0,,,,,,,,,,,,,,,,,829.8998340000107,830.4998949000146,830.4998949000146,831.098893700022,0.6154249999963213,831.098893700022,833.113905700011,2.6304109999909997,None,1,decreament,0.6,21,standard,None,100,,,,,,,f,18,239,fr,r,0,raw,2023-05-11_09h14.15.581,oddball,2022.2.5,60.041596816979336,
10,,,,,0,0,0,2,6,0,6,0,27,0,27,0,,,,,,,,,,,,,,,,,833.1305144000216,833.813537900016,833.813537900016,834.4127679000085,0.6149392999941483,834.4127679000085,836.4283170000126,2.630514399992535,None,1,decreament,0.6,21,standard,None,100,,,,,,,f,18,239,fr,r,0,raw,2023-05-11_09h14.15.581,oddball,2022.2.5,60.041596816979336,
10,,,,,0,0,0,2,6,0,6,0,28,0,28,0,,,,,,,,,,,,,,,,,836.4446898000024,837.0774313000147,837.0774313000147,837.6768621000228,0.6148111999791581,837.6768621000228,839.6920015000214,2.629975599993486,None,1,decreament,0.6,21,standard,None,100,,,,,,,f,18,239,fr,r,0,raw,2023-05-11_09h14.15.581,oddball,2022.2.5,60.041596816979336,
10,,,,,0,0,0,2,6,0,6,0,29,0,29,0,,,,,,,,,,,,,,,,,839.7093117000186,840.2417012000224,840.2417012000224,840.8413929000089,0.6153143999981694,840.8413929000089,842.8564721000148,2.6303136000060476,None,1,decreament,0.6,21,standard,None,100,,,,,,,f,18,239,fr,r,0,raw,2023-05-11_09h14.15.581,oddball,2022.2.5,60.041596816979336,
10,,,,,0,0,0,2,7,0,7,0,0,0,0,0,,,,,,,,,,,,,,,857.3144035000005,857.3144035000005,868.0184318000101,868.5510892000166,868.5510892000166,869.1509354000154,0.6154416000063065,869.1509354000154,871.1658940000052,2.6304392000020016,None,1,increament,0.6,25,standard,None,100,,842.8727893000178,0.0015951000095810741,,,,f,18,239,fr,r,0,raw,2023-05-11_09h14.15.581,oddball,2022.2.5,60.041596816979336,
10,,,,,0,0,0,2,7,0,7,0,1,0,1,0,,,,,,,,,,,,,,,,,871.1831494000216,871.8155437000096,871.8155437000096,872.4148515000124,0.6153105999983381,872.4148515000124,874.4304163000197,2.6309289000055287,None,1,increament,0.6,25,standard,None,100,,,,,,,f,18,239,fr,r,0,raw,2023-05-11_09h14.15.581,oddball,2022.2.5,60.041596816979336,
10,,,,,0,0,0,2,7,0,7,0,2,0,2,0,,,,,,,,,,,,,,,,,874.4462883000087,875.1960564000183,875.1960564000183,875.7958390999993,0.6154693999851588,875.7958390999993,877.8104574000172,2.630066599987913,None,1,increament,0.6,25,standard,None,100,,,,,,,f,18,239,fr,r,0,raw,2023-05-11_09h14.15.581,oddball,2022.2.5,60.041596816979336,
10,,,,,0,0,0,2,7,0,7,0,3,0,3,0,,,,,,,,,,,,,,,,,877.8274962000141,878.393338200025,878.393338200025,878.9926942000166,0.6153297999990173,878.9926942000166,881.0075422000082,2.6301604000036605,None,1,increament,0.6,25,standard,None,100,,,,,,,f,18,239,fr,r,0,raw,2023-05-11_09h14.15.581,oddball,2022.2.5,60.041596816979336,
10,,,,,0,0,0,2,7,0,7,0,4,0,4,0,,,,,,,,,,,,,,,,,881.0241824000259,881.6571352000174,881.6571352000174,882.2399652000167,0.5991505999991205,882.2567304000258,884.2549595000164,2.614110900001833,None,1,increament,0.6,25,standard,None,100,,,,,,,f,18,239,fr,r,0,raw,2023-05-11_09h14.15.581,oddball,2022.2.5,60.041596816979336,
10,,,,,0,0,0,2,7,0,7,0,5,0,5,0,,,,,,,,,,,,,,,,,884.2719329000101,884.9044811000058,884.9044811000058,885.5041634000081,0.615839899983257,885.5041634000081,887.5189343000238,2.630599500000244,None,1,increament,0.6,25,standard,None,100,,,,,,,f,18,239,fr,r,0,raw,2023-05-11_09h14.15.581,oddball,2022.2.5,60.041596816979336,
10,,,,,0,0,0,2,7,0,7,0,6,0,6,0,,,,,,,,,,,,,,,,,887.5355509000074,888.3195683000085,888.3195683000085,889.0343823000148,0.7318935999937821,889.0508447000175,891.0495421000232,2.7470681999984663,None,0,increament,0.72,26,oddball,j,120,,,,,,,f,18,239,fr,r,0,raw,2023-05-11_09h14.15.581,oddball,2022.2.5,60.041596816979336,
10,,,,,0,0,0,2,7,0,7,0,7,0,7,0,,,,,,,,,,,,,,,,,891.0661973000097,891.7820385000086,891.7820385000086,892.3814951000095,0.5990046999941114,892.3814951000095,894.3965734000085,2.613454800011823,None,1,increament,0.6,25,standard,None,100,,,,,,,f,18,239,fr,r,0,raw,2023-05-11_09h14.15.581,oddball,2022.2.5,60.041596816979336,
10,,,,,0,0,0,2,7,0,7,0,8,0,8,0,,,,,,,,,,,,,,,,,894.3965734000085,895.1124055999971,895.1124055999971,895.7122019000235,0.61566579999635,895.7122019000235,897.7272069000173,2.6306514000170864,None,1,increament,0.6,25,standard,None,100,,,,,,,f,18,239,fr,r,0,raw,2023-05-11_09h14.15.581,oddball,2022.2.5,60.041596816979336,
10,,,,,0,0,0,2,7,0,7,0,9,0,9,0,,,,,,,,,,,,,,,,,897.7438993000251,898.509885300009,898.509885300009,899.109409800003,0.6155856999976095,899.109409800003,901.1244407000195,2.630613000015728,None,1,increament,0.6,25,standard,None,100,,,,,,,f,18,239,fr,r,0,raw,2023-05-11_09h14.15.581,oddball,2022.2.5,60.041596816979336,
10,,,,,0,0,0,2,7,0,7,0,10,0,10,0,,,,,,,,,,,,,,,,,901.1411885000125,901.8738132000144,901.8738132000144,902.4733846000163,0.6156636000087019,902.4733846000163,904.4883189000248,2.6306028999970295,None,1,increament,0.6,25,standard,None,100,,,,,,,f,18,239,fr,r,0,raw,2023-05-11_09h14.15.581,oddball,2022.2.5,60.041596816979336,
10,,,,,0,0,0,2,7,0,7,0,11,0,11,0,,,,,,,,,,,,,,,,,904.5050207000168,905.2210584999993,905.2210584999993,905.820234200015,0.6154565000033472,905.820234200015,907.8352301999985,2.630445699993288,None,1,increament,0.6,25,standard,None,100,,,,,,,f,18,239,fr,r,0,raw,2023-05-11_09h14.15.581,oddball,2022.2.5,60.041596816979336,
10,,,,,0,0,0,2,7,0,7,0,12,0,12,0,,,,,,,,,,,,,,,,,907.8523449000204,908.6677790000103,908.6677790000103,909.2674867000023,0.6154551999934483,909.2674867000023,911.2826289000222,2.630606499995338,None,1,increament,0.6,25,standard,None,100,,,,,,,f,18,239,fr,r,0,raw,2023-05-11_09h14.15.581,oddball,2022.2.5,60.041596816979336,
10,,,,,0,0,0,2,7,0,7,0,13,0,13,0,,,,,,,,,,,,,,,,,911.2994064000086,911.8489591000252,911.8489591000252,912.4483078000194,0.5990135000029113,912.4483078000194,914.4635684000095,2.6133698000048753,None,1,increament,0.6,25,standard,None,100,,,,,,,f,18,239,fr,r,0,raw,2023-05-11_09h14.15.581,oddball,2022.2.5,60.041596816979336,
10,,,,,0,0,0,2,7,0,7,0,14,0,14,0,,,,,,,,,,,,,,,,,914.4635684000095,915.1625069000002,915.1625069000002,915.745690700016,0.5992591999820434,915.7619526000053,917.7609512000054,2.614543200004846,None,1,increament,0.6,25,standard,None,100,,,,,,,f,18,239,fr,r,0,raw,2023-05-11_09h14.15.581,oddball,2022.2.5,60.041596816979336,
10,,,,,0,0,0,2,7,0,7,0,15,0,15,0,,,,,,,,,,,,,,,,,917.7771312000114,918.3600146000099,918.3600146000099,918.9594306000217,0.61530330000096,918.9594306000217,920.9745249999978,2.6303821000037715,None,1,increament,0.6,25,standard,None,100,,,,,,,f,18,239,fr,r,0,raw,2023-05-11_09h14.15.581,oddball,2022.2.5,60.041596816979336,
10,,,,,0,0,0,2,7,0,7,0,16,0,16,0,,,,,,,,,,,,,,,,,920.991061800014,921.6584741999977,921.6584741999977,922.6064007000241,0.9647359999944456,922.6231670000125,924.6216319000232,2.979950999986613,j,1,increament,0.96,28,oddball,j,160,0.6183301999990363,,,,,,f,18,239,fr,r,0,raw,2023-05-11_09h14.15.581,oddball,2022.2.5,60.041596816979336,
10,,,,,0,0,0,2,7,0,7,0,17,0,17,0,,,,,,,,,,,,,,,,,924.6383558000089,925.4048192000191,925.4048192000191,926.0036787000136,0.59953000000678,926.0036787000136,928.0187936000002,2.6134178999927826,None,1,increament,0.6,25,standard,None,100,,,,,,,f,18,239,fr,r,0,raw,2023-05-11_09h14.15.581,oddball,2022.2.5,60.041596816979336,
10,,,,,0,0,0,2,7,0,7,0,18,0,18,0,,,,,,,,,,,,,,,,,928.0187936000002,928.7682600000117,928.7682600000117,929.3674864000059,0.6150679999846034,929.3674864000059,931.3830606999982,2.630649099999573,None,1,increament,0.6,25,standard,None,100,,,,,,,f,18,239,fr,r,0,raw,2023-05-11_09h14.15.581,oddball,2022.2.5,60.041596816979336,
10,,,,,0,0,0,2,7,0,7,0,19,0,19,0,,,,,,,,,,,,,,,,,931.3994668000087,932.0818336000084,932.0818336000084,932.6649602000252,0.599182900012238,932.6815559000243,934.6796510000131,2.6138432000007015,None,1,increament,0.6,25,standard,None,100,,,,,,,f,18,239,fr,r,0,raw,2023-05-11_09h14.15.581,oddball,2022.2.5,60.041596816979336,
10,,,,,0,0,0,2,7,0,7,0,20,0,20,0,,,,,,,,,,,,,,,,,934.6965769000235,935.5125808000157,935.5125808000157,936.0955480000121,0.5994041000085417,936.1124040000141,938.1104579000094,2.614283400005661,None,1,increament,0.6,25,standard,None,100,,,,,,,f,18,239,fr,r,0,raw,2023-05-11_09h14.15.581,oddball,2022.2.5,60.041596816979336,
10,,,,,0,0,0,2,7,0,7,0,21,0,21,0,,,,,,,,,,,,,,,,,938.1271695000178,938.7769185000216,938.7769185000216,939.3765211999998,0.6153383000055328,939.3765211999998,941.3911126000166,2.629970999987563,None,1,increament,0.6,25,standard,None,100,,,,,,,f,18,239,fr,r,0,raw,2023-05-11_09h14.15.581,oddball,2022.2.5,60.041596816979336,
10,,,,,0,0,0,2,7,0,7,0,22,0,22,0,,,,,,,,,,,,,,,,,941.408113100013,942.0743038000073,942.0743038000073,942.9066871000105,0.8480776000069454,942.9231420000142,944.9219726000156,2.8633544000040274,j,1,increament,0.84,27,oddball,j,140,0.730058299988741,,,,,,f,18,239,fr,r,0,raw,2023-05-11_09h14.15.581,oddball,2022.2.5,60.041596816979336,
10,,,,,0,0,0,2,7,0,7,0,23,0,23,0,,,,,,,,,,,,,,,,,944.9384087000217,945.5378093000036,945.5378093000036,946.1371106000151,0.6147956000058912,946.1371106000151,948.1521110000031,2.629775100009283,None,1,increament,0.6,25,standard,None,100,,,,,,,f,18,239,fr,r,0,raw,2023-05-11_09h14.15.581,oddball,2022.2.5,60.041596816979336,
10,,,,,0,0,0,2,7,0,7,0,24,0,24,0,,,,,,,,,,,,,,,,,948.1694476999983,948.7849160000042,948.7849160000042,949.3681244000036,0.5990228000155184,949.3845482000033,951.3830248000158,2.6139537000271957,None,1,increament,0.6,25,standard,None,100,,,,,,,f,18,239,fr,r,0,raw,2023-05-11_09h14.15.581,oddball,2022.2.5,60.041596816979336,
10,,,,,0,0,0,2,7,0,7,0,25,0,25,0,,,,,,,,,,,,,,,,,951.3997244000202,952.0659521000052,952.0659521000052,952.6652782000019,0.6153462000074796,952.6652782000019,954.6801630000118,2.630194199999096,None,1,increament,0.6,25,standard,None,100,,,,,,,f,18,239,fr,r,0,raw,2023-05-11_09h14.15.581,oddball,2022.2.5,60.041596816979336,
10,,,,,0,0,0,2,7,0,7,0,26,0,26,0,,,,,,,,,,,,,,,,,954.6970193000161,955.363115300017,955.363115300017,955.9624257000105,0.6148931999923661,955.9624257000105,957.9773115999997,2.6298285000084434,None,1,increament,0.6,25,standard,None,100,,,,,,,f,18,239,fr,r,0,raw,2023-05-11_09h14.15.581,oddball,2022.2.5,60.041596816979336,
10,,,,,0,0,0,2,7,0,7,0,27,0,27,0,,,,,,,,,,,,,,,,,957.9943345000211,958.6441466000106,958.6441466000106,959.2435572000104,0.615082899981644,959.2603631000093,961.2582885000156,2.6298042999987956,None,1,increament,0.6,25,standard,None,100,,,,,,,f,18,239,fr,r,0,raw,2023-05-11_09h14.15.581,oddball,2022.2.5,60.041596816979336,
10,,,,,0,0,0,2,7,0,7,0,28,0,28,0,,,,,,,,,,,,,,,,,961.274731100013,961.8743790000153,961.8743790000153,962.4737682999985,0.6146521999908146,962.4737682999985,964.4887858000002,2.6297004999942146,None,1,increament,0.6,25,standard,None,100,,,,,,,f,18,239,fr,r,0,raw,2023-05-11_09h14.15.581,oddball,2022.2.5,60.041596816979336,
10,,,,,0,0,0,2,7,0,7,0,29,0,29,0,,,,,,,,,,,,,,,,,964.5057892000186,965.0719610000087,965.0719610000087,965.6710255000216,0.6142940999998245,965.6710255000216,967.6861776000005,2.6294773999834433,None,1,increament,0.6,25,standard,None,100,,,,,,,f,18,239,fr,r,0,raw,2023-05-11_09h14.15.581,oddball,2022.2.5,60.041596816979336,
10,,,,,0,0,0,2,8,0,8,0,0,0,0,0,,,,,,,,,,,,,,,995.687488800002,995.687488800002,997.5782658000244,998.2613085000194,998.2613085000194,998.8605726000096,0.6150375000142958,998.8605726000096,1000.8760426000226,2.6304315000015777,None,1,decreament,0.6,21,standard,None,100,,967.7030743000214,0.0014328000252135098,,,,f,18,239,fr,r,0,raw,2023-05-11_09h14.15.581,oddball,2022.2.5,60.041596816979336,
10,,,,,0,0,0,2,8,0,8,0,1,0,1,0,,,,,,,,,,,,,,,,,1000.8921871000202,1001.6081467000186,1001.6081467000186,1002.2076204000041,0.6140369000204373,1002.2076204000041,1004.2228891999985,2.629343400010839,None,1,decreament,0.6,21,standard,None,100,,,,,,,f,18,239,fr,r,0,raw,2023-05-11_09h14.15.581,oddball,2022.2.5,60.041596816979336,
10,,,,,0,0,0,2,8,0,8,0,2,0,2,0,,,,,,,,,,,,,,,,,1004.2392909000046,1004.8723842000181,1004.8723842000181,1005.4717582000012,0.6149131999991369,1005.4717582000012,1007.4864653000259,2.6296249000006355,None,1,decreament,0.6,21,standard,None,100,,,,,,,f,18,239,fr,r,0,raw,2023-05-11_09h14.15.581,oddball,2022.2.5,60.041596816979336,
10,,,,,0,0,0,2,8,0,8,0,3,0,3,0,,,,,,,,,,,,,,,,,1007.5034554000013,1008.1526370000211,1008.1526370000211,1008.7524647000246,0.6157568999915384,1008.7524647000246,1010.7676528000156,2.630891100008739,None,1,decreament,0.6,21,standard,None,100,,,,,,,f,18,239,fr,r,0,raw,2023-05-11_09h14.15.581,oddball,2022.2.5,60.041596816979336,
10,,,,,0,0,0,2,8,0,8,0,4,0,4,0,,,,,,,,,,,,,,,,,1010.7838809000095,1011.6173643000075,1011.6173643000075,1012.2161519000074,0.615203900000779,1012.2325971000246,1014.2307737000228,2.629801100003533,None,1,decreament,0.6,21,standard,None,100,,,,,,,f,18,239,fr,r,0,raw,2023-05-11_09h14.15.581,oddball,2022.2.5,60.041596816979336,
10,,,,,0,0,0,2,8,0,8,0,5,0,5,0,,,,,,,,,,,,,,,,,1014.2479477000015,1014.8307754000125,1014.8307754000125,1015.4300596000103,0.6142228999815416,1015.4300596000103,1017.4450497000071,2.629258299974026,None,1,decreament,0.6,21,standard,None,100,,,,,,,f,18,239,fr,r,0,raw,2023-05-11_09h14.15.581,oddball,2022.2.5,60.041596816979336,
10,,,,,0,0,0,2,8,0,8,0,6,0,6,0,,,,,,,,,,,,,,,,,1017.4620031000231,1018.2112132000038,1018.2112132000038,1018.5610604000103,0.3653741999878548,1018.5776868000103,1020.5758677000122,2.38018429998192,j,1,decreament,0.36,23,oddball,j,60,1.1251602999982424,,,,,,f,18,239,fr,r,0,raw,2023-05-11_09h14.15.581,oddball,2022.2.5,60.041596816979336,
10,,,,,0,0,0,2,8,0,8,0,7,0,7,0,,,,,,,,,,,,,,,,,1020.5923958000203,1021.4249215000018,1021.4249215000018,1022.0245820000127,0.6149776999955066,1022.0245820000127,1024.0396868000098,2.630065100005595,None,1,decreament,0.6,21,standard,None,100,,,,,,,f,18,239,fr,r,0,raw,2023-05-11_09h14.15.581,oddball,2022.2.5,60.041596816979336,
10,,,,,0,0,0,2,8,0,8,0,8,0,8,0,,,,,,,,,,,,,,,,,1024.056696900021,1024.8057526000193,1024.8057526000193,1025.4052471000177,0.6142450000043027,1025.4052471000177,1027.420417300018,2.629394499992486,None,1,decreament,0.6,21,standard,None,100,,,,,,,f,18,239,fr,r,0,raw,2023-05-11_09h14.15.581,oddball,2022.2.5,60.041596816979336,
10,,,,,0,0,0,2,8,0,8,0,9,0,9,0,,,,,,,,,,,,,,,,,1027.4370696000115,1028.0366815000016,1028.0366815000016,1028.6357909000071,0.6141920000081882,1028.6357909000071,1030.6511144000106,2.629569700016873,None,1,decreament,0.6,21,standard,None,100,,,,,,,f,18,239,fr,r,0,raw,2023-05-11_09h14.15.581,oddball,2022.2.5,60.041596816979336,
10,,,,,0,0,0,2,8,0,8,0,10,0,10,0,,,,,,,,,,,,,,,,,1030.6679514000134,1031.333636700001,1031.333636700001,1031.9338508000073,0.6158876999979839,1031.9338508000073,1033.948263600003,2.630361699993955,None,1,decreament,0.6,21,standard,None,100,,,,,,,f,18,239,fr,r,0,raw,2023-05-11_09h14.15.581,oddball,2022.2.5,60.041596816979336,
10,,,,,0,0,0,2,8,0,8,0,11,0,11,0,,,,,,,,,,,,,,,,,1033.9647409000027,1034.6974001000053,1034.6974001000053,1034.9307278000051,0.24880460000713356,1034.9476657000196,1036.9456422000076,2.2637070000055246,j,1,decreament,0.24,22,oddball,j,40,0.7559015000006184,,,,,,f,18,239,fr,r,0,raw,2023-05-11_09h14.15.581,oddball,2022.2.5,60.041596816979336,
10,,,,,0,0,0,2,8,0,8,0,12,0,12,0,,,,,,,,,,,,,,,,,1036.9622691000113,1037.6952391000232,1037.6952391000232,1038.2946662000031,0.5993109999981243,1038.2946662000031,1040.3099415000179,2.613306700019166,None,1,decreament,0.6,21,standard,None,100,,,,,,,f,18,239,fr,r,0,raw,2023-05-11_09h14.15.581,oddball,2022.2.5,60.041596816979336,
10,,,,,0,0,0,2,8,0,8,0,13,0,13,0,,,,,,,,,,,,,,,,,1040.3099415000179,1040.9426315000164,1040.9426315000164,1041.5418293000257,0.6146948999958113,1041.5418293000257,1043.5570591000142,2.6299081000033766,None,1,decreament,0.6,21,standard,None,100,,,,,,,f,18,239,fr,r,0,raw,2023-05-11_09h14.15.581,oddball,2022.2.5,60.041596816979336,
10,,,,,0,0,0,2,8,0,8,0,14,0,14,0,,,,,,,,,,,,,,,,,1043.5735016000108,1044.1900903000205,1044.1900903000205,1044.7891745000088,0.6143143000081182,1044.7891745000088,1046.8041152000078,2.62911370000802,None,1,decreament,0.6,21,standard,None,100,,,,,,,f,18,239,fr,r,0,raw,2023-05-11_09h14.15.581,oddball,2022.2.5,60.041596816979336,
10,,,,,0,0,0,2,8,0,8,0,15,0,15,0,,,,,,,,,,,,,,,,,1046.8210120000003,1047.5705312000064,1047.5705312000064,1048.169892100006,0.6154333000013139,1048.169892100006,1050.1848002000188,2.6303475000022445,None,1,decreament,0.6,21,standard,None,100,,,,,,,f,18,239,fr,r,0,raw,2023-05-11_09h14.15.581,oddball,2022.2.5,60.041596816979336,
10,,,,,0,0,0,2,8,0,8,0,16,0,16,0,,,,,,,,,,,,,,,,,1050.2012633999984,1050.950704500021,1050.950704500021,1051.5502023000154,0.6146834999963176,1051.5502023000154,1053.5654871000152,2.629959499987308,None,1,decreament,0.6,21,standard,None,100,,,,,,,f,18,239,fr,r,0,raw,2023-05-11_09h14.15.581,oddball,2022.2.5,60.041596816979336,
10,,,,,0,0,0,2,8,0,8,0,17,0,17,0,,,,,,,,,,,,,,,,,1053.5819305000186,1054.1652690000192,1054.1652690000192,1054.7643747000257,0.6152360000123736,1054.780992600019,1056.779206600011,2.630057600006694,None,1,decreament,0.6,21,standard,None,100,,,,,,,f,18,239,fr,r,0,raw,2023-05-11_09h14.15.581,oddball,2022.2.5,60.041596816979336,
10,,,,,0,0,0,2,8,0,8,0,18,0,18,0,,,,,,,,,,,,,,,,,1056.796230500011,1057.5454854000127,1057.5454854000127,1058.144597400009,0.5991232999949716,1058.144597400009,1060.1596588000248,2.613516300014453,None,1,decreament,0.6,21,standard,None,100,,,,,,,f,18,239,fr,r,0,raw,2023-05-11_09h14.15.581,oddball,2022.2.5,60.041596816979336,
10,,,,,0,0,0,2,8,0,8,0,19,0,19,0,,,,,,,,,,,,,,,,,1060.1596588000248,1060.8091965000203,1060.8091965000203,1061.408965700015,0.6154774999886286,1061.408965700015,1063.4241118000064,2.630622999975458,None,1,decreament,0.6,21,standard,None,100,,,,,,,f,18,239,fr,r,0,raw,2023-05-11_09h14.15.581,oddball,2022.2.5,60.041596816979336,
10,,,,,0,0,0,2,8,0,8,0,20,0,20,0,,,,,,,,,,,,,,,,,1063.4404609000194,1064.1401421000191,1064.1401421000191,1064.7393618000206,0.6149857999989763,1064.7393618000206,1066.7542117999983,2.6298145999899134,None,1,decreament,0.6,21,standard,None,100,,,,,,,f,18,239,fr,r,0,raw,2023-05-11_09h14.15.581,oddball,2022.2.5,60.041596816979336,
10,,,,,0,0,0,2,8,0,8,0,21,0,21,0,,,,,,,,,,,,,,,,,1066.7711990000098,1067.3210926000029,1067.3210926000029,1067.7868551000138,0.4820678999822121,1067.803899200022,1069.8021879000007,2.4974152999930084,j,1,decreament,0.48,24,oddball,j,80,0.6596103000047151,,,,,,f,18,239,fr,r,0,raw,2023-05-11_09h14.15.581,oddball,2022.2.5,60.041596816979336,
10,,,,,0,0,0,2,8,0,8,0,22,0,22,0,,,,,,,,,,,,,,,,,1069.8185661000025,1070.5843495000154,1070.5843495000154,1071.1839800000016,0.615132300008554,1071.1839800000016,1073.1990493000194,2.630198600003496,None,1,decreament,0.6,21,standard,None,100,,,,,,,f,18,239,fr,r,0,raw,2023-05-11_09h14.15.581,oddball,2022.2.5,60.041596816979336,
10,,,,,0,0,0,2,8,0,8,0,23,0,23,0,,,,,,,,,,,,,,,,,1073.2161632000061,1074.1314078000141,1074.1314078000141,1074.7307966000226,0.6148401999962516,1074.7307966000226,1076.7296502000245,2.630399599991506,None,1,decreament,0.6,21,standard,None,100,,,,,,,f,18,239,fr,r,0,raw,2023-05-11_09h14.15.581,oddball,2022.2.5,60.041596816979336,
10,,,,,0,0,0,2,8,0,8,0,24,0,24,0,,,,,,,,,,,,,,,,,1076.7626358999987,1077.3454204000009,1077.3454204000009,1077.9452593000024,0.6152082000044174,1077.9452593000024,1079.9602434000117,2.6301990000065416,None,1,decreament,0.6,21,standard,None,100,,,,,,,f,18,239,fr,r,0,raw,2023-05-11_09h14.15.581,oddball,2022.2.5,60.041596816979336,
10,,,,,0,0,0,2,8,0,8,0,25,0,25,0,,,,,,,,,,,,,,,,,1079.9766527000174,1080.6428652000031,1080.6428652000031,1081.242377800023,0.615008199994918,1081.242377800023,1083.2585726000252,2.631173999980092,None,1,decreament,0.6,21,standard,None,100,,,,,,,f,18,239,fr,r,0,raw,2023-05-11_09h14.15.581,oddball,2022.2.5,60.041596816979336,
10,,,,,0,0,0,2,8,0,8,0,26,0,26,0,,,,,,,,,,,,,,,,,1083.2744396000053,1083.9899463000183,1083.9899463000183,1084.5898066000082,0.6152730000030715,1084.5898066000082,1086.6046124999993,2.630060199997388,None,1,decreament,0.6,21,standard,None,100,,,,,,,f,18,239,fr,r,0,raw,2023-05-11_09h14.15.581,oddball,2022.2.5,60.041596816979336,
10,,,,,0,0,0,2,8,0,8,0,27,0,27,0,,,,,,,,,,,,,,,,,1086.6213565000216,1087.2041374000255,1087.2041374000255,1087.8035012000182,0.6152732000045944,1087.8035012000182,1089.8185846999986,2.6303652999922633,None,1,decreament,0.6,21,standard,None,100,,,,,,,f,18,239,fr,r,0,raw,2023-05-11_09h14.15.581,oddball,2022.2.5,60.041596816979336,
10,,,,,0,0,0,2,8,0,8,0,28,0,28,0,,,,,,,,,,,,,,,,,1089.8356065000116,1090.4352626000182,1090.4352626000182,1091.0343450000219,0.6154180000012275,1091.0343450000219,1093.0492792000005,2.6303402000048663,None,1,decreament,0.6,21,standard,None,100,,,,,,,f,18,239,fr,r,0,raw,2023-05-11_09h14.15.581,oddball,2022.2.5,60.041596816979336,
10,,,,,0,0,0,2,8,0,8,0,29,0,29,0,,,,,,,,,,,,,,,,,1093.0660216000106,1093.7155491000158,1093.7155491000158,1094.3153554000019,0.6150097000063397,1094.3153554000019,1096.3301976000075,2.629851600009715,None,1,decreament,0.6,21,standard,None,100,,,,,,,f,18,239,fr,r,0,raw,2023-05-11_09h14.15.581,oddball,2022.2.5,60.041596816979336,
10,,,,,0,0,0,2,9,0,9,0,0,0,0,0,,,,,,,,,,,,,,,1129.7110063,1129.7110063,1146.9381680000224,1147.6210064000043,1147.6210064000043,1148.220328299998,0.6149525000073481,1148.220328299998,1150.2359408000193,2.6305820000125095,None,1,increament,0.6,25,standard,None,100,,1096.346869800007,0.0016783000028226525,,,,f,18,239,fr,r,0,raw,2023-05-11_09h14.15.581,oddball,2022.2.5,60.041596816979336,
10,,,,,0,0,0,2,9,0,9,0,1,0,1,0,,,,,,,,,,,,,,,,,1150.2523093000054,1150.901483499998,1150.901483499998,1151.5012375000224,0.6153804000059608,1151.5012375000224,1153.5159434000088,2.630041700002039,None,1,increament,0.6,25,standard,None,100,,,,,,,f,18,239,fr,r,0,raw,2023-05-11_09h14.15.581,oddball,2022.2.5,60.041596816979336,
10,,,,,0,0,0,2,9,0,9,0,2,0,2,0,,,,,,,,,,,,,,,,,1153.5327311000146,1154.2654972000164,1154.2654972000164,1154.8648264000076,0.6150548000005074,1154.8648264000076,1156.8802999000181,2.6304939999827184,None,1,increament,0.6,25,standard,None,100,,,,,,,f,18,239,fr,r,0,raw,2023-05-11_09h14.15.581,oddball,2022.2.5,60.041596816979336,
10,,,,,0,0,0,2,9,0,9,0,3,0,3,0,,,,,,,,,,,,,,,,,1156.8970166000072,1157.5962032000243,1157.5962032000243,1158.1964095000003,0.6156636000087019,1158.1964095000003,1160.2109158000094,2.630253800016362,None,1,increament,0.6,25,standard,None,100,,,,,,,f,18,239,fr,r,0,raw,2023-05-11_09h14.15.581,oddball,2022.2.5,60.041596816979336,
10,,,,,0,0,0,2,9,0,9,0,4,0,4,0,,,,,,,,,,,,,,,,,1160.2271833000123,1160.8772267000168,1160.8772267000168,1161.4761913999973,0.6141413000004832,1161.4927021000185,1163.4746235000202,2.6292003999988083,None,1,increament,0.6,25,standard,None,100,,,,,,,f,18,239,fr,r,0,raw,2023-05-11_09h14.15.581,oddball,2022.2.5,60.041596816979336,
10,,,,,0,0,0,2,9,0,9,0,5,0,5,0,,,,,,,,,,,,,,,,,1163.5079436000087,1164.2070627000066,1164.2070627000066,1164.8065470000147,0.6150019000051543,1164.8065470000147,1166.821279100026,2.6296529000101145,None,1,increament,0.6,25,standard,None,100,,,,,,,f,18,239,fr,r,0,raw,2023-05-11_09h14.15.581,oddball,2022.2.5,60.041596816979336,
10,,,,,0,0,0,2,9,0,9,0,6,0,6,0,,,,,,,,,,,,,,,,,1166.8385999000166,1167.504851900012,1167.504851900012,1168.1038406000007,0.6148722999787424,1168.1038406000007,1170.1189552000142,2.6299512999830768,None,1,increament,0.6,25,standard,None,100,,,,,,,f,18,239,fr,r,0,raw,2023-05-11_09h14.15.581,oddball,2022.2.5,60.041596816979336,
10,,,,,0,0,0,2,9,0,9,0,7,0,7,0,,,,,,,,,,,,,,,,,1170.1360142000194,1170.7686902999994,1170.7686902999994,1171.367935700022,0.6146736000082456,1171.367935700022,1173.3831761000038,2.629900500003714,None,1,increament,0.6,25,standard,None,100,,,,,,,f,18,239,fr,r,0,raw,2023-05-11_09h14.15.581,oddball,2022.2.5,60.041596816979336,
10,,,,,0,0,0,2,9,0,9,0,8,0,8,0,,,,,,,,,,,,,,,,,1173.3995329000172,1174.099011000013,1174.099011000013,1174.6985735000053,0.6153973000182305,1174.6985735000053,1176.7133557000197,2.6301509000186343,None,1,increament,0.6,25,standard,None,100,,,,,,,f,18,239,fr,r,0,raw,2023-05-11_09h14.15.581,oddball,2022.2.5,60.041596816979336,
10,,,,,0,0,0,2,9,0,9,0,9,0,9,0,,,,,,,,,,,,,,,,,1176.7304023000179,1177.3796375000093,1177.3796375000093,1177.9789840000158,0.6142103000020143,1177.9789840000158,1179.9941015000222,2.629343200009316,None,1,increament,0.6,25,standard,None,100,,,,,,,f,18,239,fr,r,0,raw,2023-05-11_09h14.15.581,oddball,2022.2.5,60.041596816979336,
10,,,,,0,0,0,2,9,0,9,0,10,0,10,0,,,,,,,,,,,,,,,,,1180.0106672000256,1180.6603830000095,1180.6603830000095,1181.2597773000016,0.6151243999775033,1181.2597773000016,1183.2748196000175,2.6302650999859907,None,1,increament,0.6,25,standard,None,100,,,,,,,f,18,239,fr,r,0,raw,2023-05-11_09h14.15.581,oddball,2022.2.5,60.041596816979336,
10,,,,,0,0,0,2,9,0,9,0,11,0,11,0,,,,,,,,,,,,,,,,,1183.2916727999982,1183.9577894000104,1183.9577894000104,1184.5571801000042,0.6151977000117768,1184.5571801000042,1186.572201700008,2.6302077999862377,None,1,increament,0.6,25,standard,None,100,,,,,,,f,18,239,fr,r,0,raw,2023-05-11_09h14.15.581,oddball,2022.2.5,60.041596816979336,
10,,,,,0,0,0,2,9,0,9,0,12,0,12,0,,,,,,,,,,,,,,,,,1186.5890865000256,1187.305006700015,1187.305006700015,1187.904446200002,0.6154570000071544,1187.904446200002,1189.9198883000063,2.630893299996387,None,1,increament,0.6,25,standard,None,100,,,,,,,f,18,239,fr,r,0,raw,2023-05-11_09h14.15.581,oddball,2022.2.5,60.041596816979336,
10,,,,,0,0,0,2,9,0,9,0,13,0,13,0,,,,,,,,,,,,,,,,,1189.9360793000087,1190.5187732000195,1190.5187732000195,1191.351549300016,0.8482117000094149,1191.3684839000052,1193.3663815000036,2.8630316000198945,j,1,increament,0.84,27,oddball,j,140,0.5835790999990422,,,,,,f,18,239,fr,r,0,raw,2023-05-11_09h14.15.581,oddball,2022.2.5,60.041596816979336,
10,,,,,0,0,0,2,9,0,9,0,14,0,14,0,,,,,,,,,,,,,,,,,1193.3830172000162,1194.1324524000229,1194.1324524000229,1194.7318159000133,0.614585100003751,1194.7318159000133,1196.7469261000224,2.6296519000025,None,1,increament,0.6,25,standard,None,100,,,,,,,f,18,239,fr,r,0,raw,2023-05-11_09h14.15.581,oddball,2022.2.5,60.041596816979336,
10,,,,,0,0,0,2,9,0,9,0,15,0,15,0,,,,,,,,,,,,,,,,,1196.7641660000081,1197.3131585000083,1197.3131585000083,1197.9129918000253,0.6151239000027999,1197.9129918000253,1199.9280612000148,2.6302665999974124,None,1,increament,0.6,25,standard,None,100,,,,,,,f,18,239,fr,r,0,raw,2023-05-11_09h14.15.581,oddball,2022.2.5,60.041596816979336,
10,,,,,0,0,0,2,9,0,9,0,16,0,16,0,,,,,,,,,,,,,,,,,1199.9459004000237,1200.6269786000194,1200.6269786000194,1201.2267980000179,0.6151019999815617,1201.2267980000179,1203.2418234000215,2.6300917999760713,None,1,increament,0.6,25,standard,None,100,,,,,,,f,18,239,fr,r,0,raw,2023-05-11_09h14.15.581,oddball,2022.2.5,60.041596816979336,
10,,,,,0,0,0,2,9,0,9,0,17,0,17,0,,,,,,,,,,,,,,,,,1203.2582223000063,1203.8081076000235,1203.8081076000235,1204.4074413000199,0.6152582000067923,1204.4074413000199,1206.4223563999985,2.630179900006624,None,1,increament,0.6,25,standard,None,100,,,,,,,f,18,239,fr,r,0,raw,2023-05-11_09h14.15.581,oddball,2022.2.5,60.041596816979336,
10,,,,,0,0,0,2,9,0,9,0,18,0,18,0,,,,,,,,,,,,,,,,,1206.439075000002,1207.1051522000053,1207.1051522000053,1207.704923000012,0.6157058000098914,1207.704923000012,1209.719511000003,2.630256200005533,None,1,increament,0.6,25,standard,None,100,,,,,,,f,18,239,fr,r,0,raw,2023-05-11_09h14.15.581,oddball,2022.2.5,60.041596816979336,
10,,,,,0,0,0,2,9,0,9,0,19,0,19,0,,,,,,,,,,,,,,,,,1209.7362291000027,1210.3526031000074,1210.3526031000074,1211.3017720000062,0.9647992000100203,1211.3184064000088,1213.3164814000193,2.979558899998665,j,1,increament,0.96,28,oddball,j,160,0.8272998000029474,,,,,,f,18,239,fr,r,0,raw,2023-05-11_09h14.15.581,oddball,2022.2.5,60.041596816979336,
10,,,,,0,0,0,2,9,0,9,0,20,0,20,0,,,,,,,,,,,,,,,,,1213.3336113000114,1214.0999209000147,1214.0999209000147,1214.6988657000184,0.6153230000054464,1214.7154957000166,1216.713649900019,2.6301153999811504,None,1,increament,0.6,25,standard,None,100,,,,,,,f,18,239,fr,r,0,raw,2023-05-11_09h14.15.581,oddball,2022.2.5,60.041596816979336,
10,,,,,0,0,0,2,9,0,9,0,21,0,21,0,,,,,,,,,,,,,,,,,1216.7310736000072,1217.3468360000115,1217.3468360000115,1217.9462854000158,0.614513899985468,1217.9462854000158,1219.9614530000254,2.6296602999791503,None,1,increament,0.6,25,standard,None,100,,,,,,,f,18,239,fr,r,0,raw,2023-05-11_09h14.15.581,oddball,2022.2.5,60.041596816979336,
10,,,,,0,0,0,2,9,0,9,0,22,0,22,0,,,,,,,,,,,,,,,,,1219.9783932999999,1220.6776119999995,1220.6776119999995,1221.276789800002,0.614915199985262,1221.293603900005,1223.2918371999986,2.629967499990016,None,1,increament,0.6,25,standard,None,100,,,,,,,f,18,239,fr,r,0,raw,2023-05-11_09h14.15.581,oddball,2022.2.5,60.041596816979336,
10,,,,,0,0,0,2,9,0,9,0,23,0,23,0,,,,,,,,,,,,,,,,,1223.3082348000025,1223.9912452000135,1223.9912452000135,1224.590692800004,0.6151232999982312,1224.590692800004,1226.605584600009,2.629958599980455,None,1,increament,0.6,25,standard,None,100,,,,,,,f,18,239,fr,r,0,raw,2023-05-11_09h14.15.581,oddball,2022.2.5,60.041596816979336,
10,,,,,0,0,0,2,9,0,9,0,24,0,24,0,,,,,,,,,,,,,,,,,1226.6223223000125,1227.2386738000205,1227.2386738000205,1227.837815900013,0.6145862000121269,1227.837815900013,1229.8534076000215,2.6301821999950334,None,1,increament,0.6,25,standard,None,100,,,,,,,f,18,239,fr,r,0,raw,2023-05-11_09h14.15.581,oddball,2022.2.5,60.041596816979336,
10,,,,,0,0,0,2,9,0,9,0,25,0,25,0,,,,,,,,,,,,,,,,,1229.869931400026,1230.5528201000125,1230.5528201000125,1231.1519886000024,0.6145041999989189,1231.1519886000024,1233.1671126,2.629626099980669,None,1,increament,0.6,25,standard,None,100,,,,,,,f,18,239,fr,r,0,raw,2023-05-11_09h14.15.581,oddball,2022.2.5,60.041596816979336,
10,,,,,0,0,0,2,9,0,9,0,26,0,26,0,,,,,,,,,,,,,,,,,1233.1837931000046,1233.833189099998,1233.833189099998,1234.549102900026,0.7310710000165273,1234.5658141000022,1236.5644192000036,2.746395599999232,None,0,increament,0.72,26,oddball,j,120,,,,,,,f,18,239,fr,r,0,raw,2023-05-11_09h14.15.581,oddball,2022.2.5,60.041596816979336,
10,,,,,0,0,0,2,9,0,9,0,27,0,27,0,,,,,,,,,,,,,,,,,1236.580887100019,1237.34695560002,1237.34695560002,1237.946204500011,0.6150168999738526,1237.946204500011,1239.9612503000244,2.6299041000020225,None,1,increament,0.6,25,standard,None,100,,,,,,,f,18,239,fr,r,0,raw,2023-05-11_09h14.15.581,oddball,2022.2.5,60.041596816979336,
10,,,,,0,0,0,2,9,0,9,0,28,0,28,0,,,,,,,,,,,,,,,,,1239.978270600026,1240.693900800019,1240.693900800019,1241.2938168999972,0.6155438999994658,1241.2938168999972,1243.308504000015,2.6302207999979146,None,1,increament,0.6,25,standard,None,100,,,,,,,f,18,239,fr,r,0,raw,2023-05-11_09h14.15.581,oddball,2022.2.5,60.041596816979336,
10,,,,,0,0,0,2,9,0,9,0,29,0,29,0,,,,,,,,,,,,,,,,,1243.3253317000053,1243.9747437000042,1243.9747437000042,1244.5746557000093,0.6157025000138674,1244.5746557000093,1246.589131100016,2.630180400010431,None,1,increament,0.6,25,standard,None,100,,,,,,,f,18,239,fr,r,0,raw,2023-05-11_09h14.15.581,oddball,2022.2.5,60.041596816979336,
